"rt","stimulus","response","trial_type","trial_index","time_elapsed","internal_node_id","ses_1","ses_2","ses_3","ses_4","ses_5","ses_6","ses_7","ses_8","ses_9","ses_10","coreself_1","coreself_2","coreself_3","coreself_4","coreself_5","coreself_6","coreself_7","coreself_8","coreself_9","coreself_10","SGPS_1","SGPS_2","SGPS_3","SGPS_4","SGPS_5","SGPS_6","SGPS_7","SGPS_8","SGPS_9","NPI1","NPI2","NPI3","NPI4","NPI5","NPI6","NPI7","NPI8","NPI9","NPI10","NPI11","NPI12","NPI13","NPI14","NPI15","hsns_1","hsns_2","hsns_3","hsns_4","hsns_5","trap1","hsns_6","hsns_7","hsns_8","hsns_9","hsns_10","subj_idx","friend_name","ParticipantID","value","success","user_agent","responses","item_order","radio_event_ids","radio_event_times","key_event_times","mouse_event_times","straightlining","zigzagging","honeypot","timeout","failed_images","failed_audio","failed_video","version_attrib2","version_target2","correct","IAT","screen_id","task_id","RT","condition","word","varname","summary","version_attrib","version_target","time_stamp","view_history","response_type","key_press","avg_frame_time","center_x","center_y","correct_response","identity","Image","question_order","correct_answer","trap1_item"
"7215","
   <p><div style = ""color: white;font-size:25px;"">您好，欢迎参加本次实验。</div> </p>
   <p><div style = ""color: white;font-size:25px;"">为充分保障您的权利，请确保您已经知晓并同意《参与实验同意书》以及《数据公开知情同意书》。</div></p>
   <p><div style = ""color: white;font-size:25px;"">如果您未见过上述内容，请咨询实验员。</div></p>
   <p><div style = ""color: white;font-size:25px;"">如果您选择继续实验，则表示您已经清楚两份知情同意书的内容并同意。</div></p>
   <p><div style = ""color: pink;font-size:30px;"">请确保您记得day0的实验编号，您将在本次实验输入该编号，若您忘记，请咨询实验员后作答。</div></p>
   <p><div style = ""color: lightblue;font-size:25px;"">请您尽可能认真地作答，我们将依据您在各问卷和按键任务中的作答质量发放报酬。</div></p>
   <p> <div style = ""color: green;font-size:25px;""><按空格键至下页></div> </p>
   "," ","html-keyboard-response","0","7222","0.0-0.0","2","3","3","2","2","2","2","2","2","2","2","3","2","3","3","2","2","2","2","2","3","4","4","4","5","4","4","2","4","1","0","1","0","0","0","0","1","1","1","1","0","0","0","0","3","4","4","4","3","1","2","3","2","3","3","657683860254883840","SY","686","","","","","","","","","","","","","","","","","","","","","","","","","","","","","","","","","","","","","","","","","",""
"","","","call-function","1","7225","0.0-1.0-0.0","2","3","3","2","2","2","2","2","2","2","2","3","2","3","3","2","2","2","2","2","3","4","4","4","5","4","4","2","4","1","0","1","0","0","0","0","1","1","1","1","0","0","0","0","3","4","4","4","3","1","2","3","2","3","3","657683860254883840","SY","686","","","","","","","","","","","","","","","","","","","","","","","","","","","","","","","","","","","","","","","","","",""
"13047","","{""friend_name"":""SY"",""ParticipantID"":""686""}","survey-html-form","2","20273","0.0-1.0-1.0","2","3","3","2","2","2","2","2","2","2","2","3","2","3","3","2","2","2","2","2","3","4","4","4","5","4","4","2","4","1","0","1","0","0","0","0","1","1","1","1","0","0","0","0","3","4","4","4","3","1","2","3","2","3","3","657683860254883840","SY","686","","","","","","","","","","","","","","","","","","","","","","","","","","","","","","","","","","","","","","","","","",""
"","","","fullscreen","3","33447","0.0-2.0","2","3","3","2","2","2","2","2","2","2","2","3","2","3","3","2","2","2","2","2","3","4","4","4","5","4","4","2","4","1","0","1","0","0","0","0","1","1","1","1","0","0","0","0","3","4","4","4","3","1","2","3","2","3","3","657683860254883840","SY","686","","true","{}","","","","","","","","","","","","","","","","","","","","","","","","","","","","","","","","","","","","","","",""
"24636.600000023842","","{""Q01"":""2"",""Q02"":""3"",""Q03"":""3"",""Q04"":""2"",""Q05"":""2"",""Q06"":""2"",""Q07"":""2"",""Q08"":""2"",""Q09"":""2"",""Q10"":""2""}","survey-template","4","58090","0.0-3.0","2","3","3","2","2","2","2","2","2","2","2","3","2","3","3","2","2","2","2","2","3","4","4","4","5","4","4","2","4","1","0","1","0","0","0","0","1","1","1","1","0","0","0","0","3","4","4","4","3","1","2","3","2","3","3","657683860254883840","SY","686","","","","{""Q01"":""2"",""Q02"":""3"",""Q03"":""3"",""Q04"":""2"",""Q05"":""2"",""Q06"":""2"",""Q07"":""2"",""Q08"":""2"",""Q09"":""2"",""Q10"":""2""}","[0,1,2,3,4,5,6,7,8,9]","[""Q01"",""Q02"",""Q03"",""Q04"",""Q05"",""Q05"",""Q06"",""Q07"",""Q08"",""Q09"",""Q10""]","[2888.400000035763,4141.100000023842,5424,10392,11970.5,13205.699999988079,16399.900000035763,16887.900000035763,18814.100000023842,19602.80000001192,23812.80000001192]","[]","[2888.400000035763,4141.100000023842,5111.600000023842,5424,10392,11970.5,12522.800000011921,13205.699999988079,14100.600000023842,15035.300000011921,15437.300000011921,15815.5,16399.900000035763,16887.900000035763,18814.100000023842,19602.80000001192,21337.5,22367.900000035763,22953.900000035763,23812.80000001192,24635]","0.5","0.5555555555555556","0","","","","","","","","","","","","","","","","","","","","","","","","","","","","","",""
"24162.5","","{""Q01"":""2"",""Q02"":""3"",""Q03"":""2"",""Q04"":""3"",""Q05"":""3"",""Q06"":""2"",""Q07"":""2"",""Q08"":""2"",""Q09"":""2"",""Q10"":""2""}","survey-template","5","82258","0.0-4.0","2","3","3","2","2","2","2","2","2","2","2","3","2","3","3","2","2","2","2","2","3","4","4","4","5","4","4","2","4","1","0","1","0","0","0","0","1","1","1","1","0","0","0","0","3","4","4","4","3","1","2","3","2","3","3","657683860254883840","SY","686","","","","{""Q01"":""2"",""Q02"":""3"",""Q03"":""2"",""Q04"":""3"",""Q05"":""3"",""Q06"":""2"",""Q07"":""2"",""Q08"":""2"",""Q09"":""2"",""Q10"":""2""}","[0,1,2,3,4,5,6,7,8,9]","[""Q01"",""Q02"",""Q03"",""Q04"",""Q05"",""Q06"",""Q08"",""Q07"",""Q09"",""Q10""]","[6392.600000023842,8467.699999988079,10062.100000023842,11812.899999976158,15182.600000023842,15989.699999988079,18317.80000001192,18920.600000023842,21304.30000001192,22933.399999976158]","[]","[6392.600000023842,8467.699999988079,10062.100000023842,11812.899999976158,14224.699999988079,15182.600000023842,15989.699999988079,17261.399999976158,18317.80000001192,18920.600000023842,21304.30000001192,22412.80000001192,22933.399999976158,23719.19999998808,24161.100000023842]","0.4","0.4444444444444444","0","","","","","","","","","","","","","","","","","","","","","","","","","","","","","",""
"","","","preload","6","82685","0.0-5.0","2","3","3","2","2","2","2","2","2","2","2","3","2","3","3","2","2","2","2","2","3","4","4","4","5","4","4","2","4","1","0","1","0","0","0","0","1","1","1","1","0","0","0","0","3","4","4","4","3","1","2","3","2","3","3","657683860254883840","SY","686","","true","","","","","","","","","","","false","[]","[]","[]","","","","","","","","","","","","","","","","","","","","","","","","","",""
"12423","
    <h3>词语分类任务</h3>
    <p>在接下来的任务中，你需要对一系列词语进行分类。<p/>
    请先熟悉这些词语，这有利于你完成接下来的任务。</p>
    <table align=""center"" border=1 cellpadding=3 cellspacing=0>
    <tr> <th>类别</th> <th>词语</th> </tr>
    <tr> <td>&emsp;积极&emsp;</td> <td>&emsp;高尚、诚信、善良、君子、廉正、正直&emsp;</td> </tr>
    <tr> <td>&emsp;消极&emsp;</td> <td>&emsp;缺德、卑鄙、不孝、不仁、小人、黑心&emsp;</td> </tr>
    <tr> <td>&emsp;自我&emsp;</td> <td>&emsp;我、我的、自己、自己的、本人、本人的&emsp;</td> </tr>
    <tr> <td>&emsp;他人&emsp;</td> <td>&emsp;他、他的、别人、别人的、他人、他人的&emsp;</td> </tr>
    </table><br/>","0","html-button-response","7","95109","0.0-6.0-1.0-0.0","2","3","3","2","2","2","2","2","2","2","2","3","2","3","3","2","2","2","2","2","3","4","4","4","5","4","4","2","4","1","0","1","0","0","0","0","1","1","1","1","0","0","0","0","3","4","4","4","3","1","2","3","2","3","3","657683860254883840","SY","686","","","","","","","","","","","","","","","","","2","1","","","","","","","","","","","","","","","","","","","","","","","",""
"18156","
    <div class=""tag-bottom""><p>
    —— 任务1：对“自我”词和“他人”词分类 ——<p/>
    不同词语会出现在屏幕中央，类别标签将始终显示在屏幕上方<p/>   
    <span style=""color:#FFD866""><b>请根据上方标签的提示，尽可能正确并且快速地做出按键反应</b></span><p/>
    当按键错误时屏幕中会出现<span style=""color:red""> X </span>，需要按另一个键纠正才能继续<br/><p/>
    请把双手食指分别放在键盘的“E”键和“I”键上<p/>
    按<空格键>开始
    </p></div>"," ","html-keyboard-response","8","113269","0.0-6.0-1.0-1.0","2","3","3","2","2","2","2","2","2","2","2","3","2","3","3","2","2","2","2","2","3","4","4","4","5","4","4","2","4","1","0","1","0","0","0","0","1","1","1","1","0","0","0","0","3","4","4","4","3","1","2","3","2","3","3","657683860254883840","SY","686","","","","","","","","","","","","","","","","","","","","","","","","","","","","","","","","","","","","","","","","","",""
"null","","null","html-keyboard-response","9","113521","0.0-6.0-1.0-2.0-0.0","2","3","3","2","2","2","2","2","2","2","2","3","2","3","3","2","2","2","2","2","3","4","4","4","5","4","4","2","4","1","0","1","0","0","0","0","1","1","1","1","0","0","0","0","3","4","4","4","3","1","2","3","2","3","3","657683860254883840","SY","686","","","","","","","","","","","","","","","","","","","","","","","","","","","","","","","","","","","","","","","","","",""
"1043","<p style=""color:rgb(150, 250, 100); font-size: 35px;"">本人</p>","e","categorize-html","10","114573","0.0-6.0-1.0-2.0-1.0","2","3","3","2","2","2","2","2","2","2","2","3","2","3","3","2","2","2","2","2","3","4","4","4","5","4","4","2","4","1","0","1","0","0","0","0","1","1","1","1","0","0","0","0","3","4","4","4","3","1","2","3","2","3","3","657683860254883840","SY","686","","","","","","","","","","","","","","","","","","","true","11","1","moral","1043","self","本人","","","","","","","","","","","","","","","","",""
"null","","null","html-keyboard-response","11","114825","0.0-6.0-1.0-2.0-0.1","2","3","3","2","2","2","2","2","2","2","2","3","2","3","3","2","2","2","2","2","3","4","4","4","5","4","4","2","4","1","0","1","0","0","0","0","1","1","1","1","0","0","0","0","3","4","4","4","3","1","2","3","2","3","3","657683860254883840","SY","686","","","","","","","","","","","","","","","","","","","","","","","","","","","","","","","","","","","","","","","","","",""
"682","<p style=""color:rgb(150, 250, 100); font-size: 35px;"">我</p>","e","categorize-html","12","115512","0.0-6.0-1.0-2.0-1.1","2","3","3","2","2","2","2","2","2","2","2","3","2","3","3","2","2","2","2","2","3","4","4","4","5","4","4","2","4","1","0","1","0","0","0","0","1","1","1","1","0","0","0","0","3","4","4","4","3","1","2","3","2","3","3","657683860254883840","SY","686","","","","","","","","","","","","","","","","","","","true","11","1","moral","682","self","我","","","","","","","","","","","","","","","","",""
"null","","null","html-keyboard-response","13","115764","0.0-6.0-1.0-2.0-0.2","2","3","3","2","2","2","2","2","2","2","2","3","2","3","3","2","2","2","2","2","3","4","4","4","5","4","4","2","4","1","0","1","0","0","0","0","1","1","1","1","0","0","0","0","3","4","4","4","3","1","2","3","2","3","3","657683860254883840","SY","686","","","","","","","","","","","","","","","","","","","","","","","","","","","","","","","","","","","","","","","","","",""
"581","<p style=""color:rgb(150, 250, 100); font-size: 35px;"">我的</p>","e","categorize-html","14","116350","0.0-6.0-1.0-2.0-1.2","2","3","3","2","2","2","2","2","2","2","2","3","2","3","3","2","2","2","2","2","3","4","4","4","5","4","4","2","4","1","0","1","0","0","0","0","1","1","1","1","0","0","0","0","3","4","4","4","3","1","2","3","2","3","3","657683860254883840","SY","686","","","","","","","","","","","","","","","","","","","true","11","1","moral","581","self","我的","","","","","","","","","","","","","","","","",""
"null","","null","html-keyboard-response","15","116602","0.0-6.0-1.0-2.0-0.3","2","3","3","2","2","2","2","2","2","2","2","3","2","3","3","2","2","2","2","2","3","4","4","4","5","4","4","2","4","1","0","1","0","0","0","0","1","1","1","1","0","0","0","0","3","4","4","4","3","1","2","3","2","3","3","657683860254883840","SY","686","","","","","","","","","","","","","","","","","","","","","","","","","","","","","","","","","","","","","","","","","",""
"479","<p style=""color:rgb(150, 250, 100); font-size: 35px;"">自己的</p>","e","categorize-html","16","117086","0.0-6.0-1.0-2.0-1.3","2","3","3","2","2","2","2","2","2","2","2","3","2","3","3","2","2","2","2","2","3","4","4","4","5","4","4","2","4","1","0","1","0","0","0","0","1","1","1","1","0","0","0","0","3","4","4","4","3","1","2","3","2","3","3","657683860254883840","SY","686","","","","","","","","","","","","","","","","","","","true","11","1","moral","479","self","自己的","","","","","","","","","","","","","","","","",""
"null","","null","html-keyboard-response","17","117337","0.0-6.0-1.0-2.0-0.4","2","3","3","2","2","2","2","2","2","2","2","3","2","3","3","2","2","2","2","2","3","4","4","4","5","4","4","2","4","1","0","1","0","0","0","0","1","1","1","1","0","0","0","0","3","4","4","4","3","1","2","3","2","3","3","657683860254883840","SY","686","","","","","","","","","","","","","","","","","","","","","","","","","","","","","","","","","","","","","","","","","",""
"499","<p style=""color:rgb(150, 250, 100); font-size: 35px;"">他人的</p>","i","categorize-html","18","117843","0.0-6.0-1.0-2.0-1.4","2","3","3","2","2","2","2","2","2","2","2","3","2","3","3","2","2","2","2","2","3","4","4","4","5","4","4","2","4","1","0","1","0","0","0","0","1","1","1","1","0","0","0","0","3","4","4","4","3","1","2","3","2","3","3","657683860254883840","SY","686","","","","","","","","","","","","","","","","","","","true","11","1","moral","499","other","他人的","","","","","","","","","","","","","","","","",""
"null","","null","html-keyboard-response","19","118095","0.0-6.0-1.0-2.0-0.5","2","3","3","2","2","2","2","2","2","2","2","3","2","3","3","2","2","2","2","2","3","4","4","4","5","4","4","2","4","1","0","1","0","0","0","0","1","1","1","1","0","0","0","0","3","4","4","4","3","1","2","3","2","3","3","657683860254883840","SY","686","","","","","","","","","","","","","","","","","","","","","","","","","","","","","","","","","","","","","","","","","",""
"613","<p style=""color:rgb(150, 250, 100); font-size: 35px;"">他</p>","i","categorize-html","20","118713","0.0-6.0-1.0-2.0-1.5","2","3","3","2","2","2","2","2","2","2","2","3","2","3","3","2","2","2","2","2","3","4","4","4","5","4","4","2","4","1","0","1","0","0","0","0","1","1","1","1","0","0","0","0","3","4","4","4","3","1","2","3","2","3","3","657683860254883840","SY","686","","","","","","","","","","","","","","","","","","","true","11","1","moral","613","other","他","","","","","","","","","","","","","","","","",""
"null","","null","html-keyboard-response","21","118965","0.0-6.0-1.0-2.0-0.6","2","3","3","2","2","2","2","2","2","2","2","3","2","3","3","2","2","2","2","2","3","4","4","4","5","4","4","2","4","1","0","1","0","0","0","0","1","1","1","1","0","0","0","0","3","4","4","4","3","1","2","3","2","3","3","657683860254883840","SY","686","","","","","","","","","","","","","","","","","","","","","","","","","","","","","","","","","","","","","","","","","",""
"422","<p style=""color:rgb(150, 250, 100); font-size: 35px;"">他的</p>","i","categorize-html","22","119393","0.0-6.0-1.0-2.0-1.6","2","3","3","2","2","2","2","2","2","2","2","3","2","3","3","2","2","2","2","2","3","4","4","4","5","4","4","2","4","1","0","1","0","0","0","0","1","1","1","1","0","0","0","0","3","4","4","4","3","1","2","3","2","3","3","657683860254883840","SY","686","","","","","","","","","","","","","","","","","","","true","11","1","moral","422","other","他的","","","","","","","","","","","","","","","","",""
"null","","null","html-keyboard-response","23","119646","0.0-6.0-1.0-2.0-0.7","2","3","3","2","2","2","2","2","2","2","2","3","2","3","3","2","2","2","2","2","3","4","4","4","5","4","4","2","4","1","0","1","0","0","0","0","1","1","1","1","0","0","0","0","3","4","4","4","3","1","2","3","2","3","3","657683860254883840","SY","686","","","","","","","","","","","","","","","","","","","","","","","","","","","","","","","","","","","","","","","","","",""
"514","<p style=""color:rgb(150, 250, 100); font-size: 35px;"">自己</p>","e","categorize-html","24","120166","0.0-6.0-1.0-2.0-1.7","2","3","3","2","2","2","2","2","2","2","2","3","2","3","3","2","2","2","2","2","3","4","4","4","5","4","4","2","4","1","0","1","0","0","0","0","1","1","1","1","0","0","0","0","3","4","4","4","3","1","2","3","2","3","3","657683860254883840","SY","686","","","","","","","","","","","","","","","","","","","true","11","1","moral","514","self","自己","","","","","","","","","","","","","","","","",""
"null","","null","html-keyboard-response","25","120417","0.0-6.0-1.0-2.0-0.8","2","3","3","2","2","2","2","2","2","2","2","3","2","3","3","2","2","2","2","2","3","4","4","4","5","4","4","2","4","1","0","1","0","0","0","0","1","1","1","1","0","0","0","0","3","4","4","4","3","1","2","3","2","3","3","657683860254883840","SY","686","","","","","","","","","","","","","","","","","","","","","","","","","","","","","","","","","","","","","","","","","",""
"504","<p style=""color:rgb(150, 250, 100); font-size: 35px;"">别人</p>","i","categorize-html","26","120926","0.0-6.0-1.0-2.0-1.8","2","3","3","2","2","2","2","2","2","2","2","3","2","3","3","2","2","2","2","2","3","4","4","4","5","4","4","2","4","1","0","1","0","0","0","0","1","1","1","1","0","0","0","0","3","4","4","4","3","1","2","3","2","3","3","657683860254883840","SY","686","","","","","","","","","","","","","","","","","","","true","11","1","moral","504","other","别人","","","","","","","","","","","","","","","","",""
"null","","null","html-keyboard-response","27","121178","0.0-6.0-1.0-2.0-0.9","2","3","3","2","2","2","2","2","2","2","2","3","2","3","3","2","2","2","2","2","3","4","4","4","5","4","4","2","4","1","0","1","0","0","0","0","1","1","1","1","0","0","0","0","3","4","4","4","3","1","2","3","2","3","3","657683860254883840","SY","686","","","","","","","","","","","","","","","","","","","","","","","","","","","","","","","","","","","","","","","","","",""
"587","<p style=""color:rgb(150, 250, 100); font-size: 35px;"">本人的</p>","e","categorize-html","28","121769","0.0-6.0-1.0-2.0-1.9","2","3","3","2","2","2","2","2","2","2","2","3","2","3","3","2","2","2","2","2","3","4","4","4","5","4","4","2","4","1","0","1","0","0","0","0","1","1","1","1","0","0","0","0","3","4","4","4","3","1","2","3","2","3","3","657683860254883840","SY","686","","","","","","","","","","","","","","","","","","","true","11","1","moral","587","self","本人的","","","","","","","","","","","","","","","","",""
"null","","null","html-keyboard-response","29","122031","0.0-6.0-1.0-2.0-0.10","2","3","3","2","2","2","2","2","2","2","2","3","2","3","3","2","2","2","2","2","3","4","4","4","5","4","4","2","4","1","0","1","0","0","0","0","1","1","1","1","0","0","0","0","3","4","4","4","3","1","2","3","2","3","3","657683860254883840","SY","686","","","","","","","","","","","","","","","","","","","","","","","","","","","","","","","","","","","","","","","","","",""
"495","<p style=""color:rgb(150, 250, 100); font-size: 35px;"">别人的</p>","i","categorize-html","30","122531","0.0-6.0-1.0-2.0-1.10","2","3","3","2","2","2","2","2","2","2","2","3","2","3","3","2","2","2","2","2","3","4","4","4","5","4","4","2","4","1","0","1","0","0","0","0","1","1","1","1","0","0","0","0","3","4","4","4","3","1","2","3","2","3","3","657683860254883840","SY","686","","","","","","","","","","","","","","","","","","","true","11","1","moral","495","other","别人的","","","","","","","","","","","","","","","","",""
"null","","null","html-keyboard-response","31","122784","0.0-6.0-1.0-2.0-0.11","2","3","3","2","2","2","2","2","2","2","2","3","2","3","3","2","2","2","2","2","3","4","4","4","5","4","4","2","4","1","0","1","0","0","0","0","1","1","1","1","0","0","0","0","3","4","4","4","3","1","2","3","2","3","3","657683860254883840","SY","686","","","","","","","","","","","","","","","","","","","","","","","","","","","","","","","","","","","","","","","","","",""
"610","<p style=""color:rgb(150, 250, 100); font-size: 35px;"">他人</p>","i","categorize-html","32","123399","0.0-6.0-1.0-2.0-1.11","2","3","3","2","2","2","2","2","2","2","2","3","2","3","3","2","2","2","2","2","3","4","4","4","5","4","4","2","4","1","0","1","0","0","0","0","1","1","1","1","0","0","0","0","3","4","4","4","3","1","2","3","2","3","3","657683860254883840","SY","686","","","","","","","","","","","","","","","","","","","true","11","1","moral","610","other","他人","","","","","","","","","","","","","","","","",""
"4859","
    <div class=""tag-bottom""><p>
    —— 任务2：对“消极”词和“积极”词分类 ——<p/>   
    <span style=""color:#78DCE8""><b>注意上方，类别标签和需要分类的词语都已经改变</b></span><p/>
    <span style=""color:#FFD866""><b>请根据上方标签的提示，尽可能正确并且快速地做出按键反应</b></span><p/>
    当按键错误时屏幕中会出现<span style=""color:red""> X </span>，需要按另一个键纠正才能继续<br/><p/>
    请把双手食指分别放在键盘的“E”键和“I”键上<p/>
    按<空格键>开始
    </p></div>"," ","html-keyboard-response","33","128259","0.0-6.0-1.0-3.0","2","3","3","2","2","2","2","2","2","2","2","3","2","3","3","2","2","2","2","2","3","4","4","4","5","4","4","2","4","1","0","1","0","0","0","0","1","1","1","1","0","0","0","0","3","4","4","4","3","1","2","3","2","3","3","657683860254883840","SY","686","","","","","","","","","","","","","","","","","","","","","","","","","","","","","","","","","","","","","","","","","",""
"null","","null","html-keyboard-response","34","128511","0.0-6.0-1.0-4.0-0.0","2","3","3","2","2","2","2","2","2","2","2","3","2","3","3","2","2","2","2","2","3","4","4","4","5","4","4","2","4","1","0","1","0","0","0","0","1","1","1","1","0","0","0","0","3","4","4","4","3","1","2","3","2","3","3","657683860254883840","SY","686","","","","","","","","","","","","","","","","","","","","","","","","","","","","","","","","","","","","","","","","","",""
"789","<p style=""color:white; font-size: 35px;"">缺德</p>","e","categorize-html","35","129306","0.0-6.0-1.0-4.0-1.0","2","3","3","2","2","2","2","2","2","2","2","3","2","3","3","2","2","2","2","2","3","4","4","4","5","4","4","2","4","1","0","1","0","0","0","0","1","1","1","1","0","0","0","0","3","4","4","4","3","1","2","3","2","3","3","657683860254883840","SY","686","","","","","","","","","","","","","","","","","","","true","12","2","moral","789","negative","缺德","","","","","","","","","","","","","","","","",""
"null","","null","html-keyboard-response","36","129557","0.0-6.0-1.0-4.0-0.1","2","3","3","2","2","2","2","2","2","2","2","3","2","3","3","2","2","2","2","2","3","4","4","4","5","4","4","2","4","1","0","1","0","0","0","0","1","1","1","1","0","0","0","0","3","4","4","4","3","1","2","3","2","3","3","657683860254883840","SY","686","","","","","","","","","","","","","","","","","","","","","","","","","","","","","","","","","","","","","","","","","",""
"579","<p style=""color:white; font-size: 35px;"">小人</p>","e","categorize-html","37","130142","0.0-6.0-1.0-4.0-1.1","2","3","3","2","2","2","2","2","2","2","2","3","2","3","3","2","2","2","2","2","3","4","4","4","5","4","4","2","4","1","0","1","0","0","0","0","1","1","1","1","0","0","0","0","3","4","4","4","3","1","2","3","2","3","3","657683860254883840","SY","686","","","","","","","","","","","","","","","","","","","true","12","2","moral","579","negative","小人","","","","","","","","","","","","","","","","",""
"null","","null","html-keyboard-response","38","130394","0.0-6.0-1.0-4.0-0.2","2","3","3","2","2","2","2","2","2","2","2","3","2","3","3","2","2","2","2","2","3","4","4","4","5","4","4","2","4","1","0","1","0","0","0","0","1","1","1","1","0","0","0","0","3","4","4","4","3","1","2","3","2","3","3","657683860254883840","SY","686","","","","","","","","","","","","","","","","","","","","","","","","","","","","","","","","","","","","","","","","","",""
"494","<p style=""color:white; font-size: 35px;"">黑心</p>","e","categorize-html","39","130891","0.0-6.0-1.0-4.0-1.2","2","3","3","2","2","2","2","2","2","2","2","3","2","3","3","2","2","2","2","2","3","4","4","4","5","4","4","2","4","1","0","1","0","0","0","0","1","1","1","1","0","0","0","0","3","4","4","4","3","1","2","3","2","3","3","657683860254883840","SY","686","","","","","","","","","","","","","","","","","","","true","12","2","moral","494","negative","黑心","","","","","","","","","","","","","","","","",""
"null","","null","html-keyboard-response","40","131143","0.0-6.0-1.0-4.0-0.3","2","3","3","2","2","2","2","2","2","2","2","3","2","3","3","2","2","2","2","2","3","4","4","4","5","4","4","2","4","1","0","1","0","0","0","0","1","1","1","1","0","0","0","0","3","4","4","4","3","1","2","3","2","3","3","657683860254883840","SY","686","","","","","","","","","","","","","","","","","","","","","","","","","","","","","","","","","","","","","","","","","",""
"656","<p style=""color:white; font-size: 35px;"">正直</p>","i","categorize-html","41","131805","0.0-6.0-1.0-4.0-1.3","2","3","3","2","2","2","2","2","2","2","2","3","2","3","3","2","2","2","2","2","3","4","4","4","5","4","4","2","4","1","0","1","0","0","0","0","1","1","1","1","0","0","0","0","3","4","4","4","3","1","2","3","2","3","3","657683860254883840","SY","686","","","","","","","","","","","","","","","","","","","true","12","2","moral","656","positive","正直","","","","","","","","","","","","","","","","",""
"null","","null","html-keyboard-response","42","132058","0.0-6.0-1.0-4.0-0.4","2","3","3","2","2","2","2","2","2","2","2","3","2","3","3","2","2","2","2","2","3","4","4","4","5","4","4","2","4","1","0","1","0","0","0","0","1","1","1","1","0","0","0","0","3","4","4","4","3","1","2","3","2","3","3","657683860254883840","SY","686","","","","","","","","","","","","","","","","","","","","","","","","","","","","","","","","","","","","","","","","","",""
"579","<p style=""color:white; font-size: 35px;"">善良</p>","i","categorize-html","43","132642","0.0-6.0-1.0-4.0-1.4","2","3","3","2","2","2","2","2","2","2","2","3","2","3","3","2","2","2","2","2","3","4","4","4","5","4","4","2","4","1","0","1","0","0","0","0","1","1","1","1","0","0","0","0","3","4","4","4","3","1","2","3","2","3","3","657683860254883840","SY","686","","","","","","","","","","","","","","","","","","","true","12","2","moral","579","positive","善良","","","","","","","","","","","","","","","","",""
"null","","null","html-keyboard-response","44","132895","0.0-6.0-1.0-4.0-0.5","2","3","3","2","2","2","2","2","2","2","2","3","2","3","3","2","2","2","2","2","3","4","4","4","5","4","4","2","4","1","0","1","0","0","0","0","1","1","1","1","0","0","0","0","3","4","4","4","3","1","2","3","2","3","3","657683860254883840","SY","686","","","","","","","","","","","","","","","","","","","","","","","","","","","","","","","","","","","","","","","","","",""
"514","<p style=""color:white; font-size: 35px;"">高尚</p>","i","categorize-html","45","133411","0.0-6.0-1.0-4.0-1.5","2","3","3","2","2","2","2","2","2","2","2","3","2","3","3","2","2","2","2","2","3","4","4","4","5","4","4","2","4","1","0","1","0","0","0","0","1","1","1","1","0","0","0","0","3","4","4","4","3","1","2","3","2","3","3","657683860254883840","SY","686","","","","","","","","","","","","","","","","","","","true","12","2","moral","514","positive","高尚","","","","","","","","","","","","","","","","",""
"null","","null","html-keyboard-response","46","133662","0.0-6.0-1.0-4.0-0.6","2","3","3","2","2","2","2","2","2","2","2","3","2","3","3","2","2","2","2","2","3","4","4","4","5","4","4","2","4","1","0","1","0","0","0","0","1","1","1","1","0","0","0","0","3","4","4","4","3","1","2","3","2","3","3","657683860254883840","SY","686","","","","","","","","","","","","","","","","","","","","","","","","","","","","","","","","","","","","","","","","","",""
"720","<p style=""color:white; font-size: 35px;"">君子</p>","i","categorize-html","47","134386","0.0-6.0-1.0-4.0-1.6","2","3","3","2","2","2","2","2","2","2","2","3","2","3","3","2","2","2","2","2","3","4","4","4","5","4","4","2","4","1","0","1","0","0","0","0","1","1","1","1","0","0","0","0","3","4","4","4","3","1","2","3","2","3","3","657683860254883840","SY","686","","","","","","","","","","","","","","","","","","","true","12","2","moral","720","positive","君子","","","","","","","","","","","","","","","","",""
"null","","null","html-keyboard-response","48","134637","0.0-6.0-1.0-4.0-0.7","2","3","3","2","2","2","2","2","2","2","2","3","2","3","3","2","2","2","2","2","3","4","4","4","5","4","4","2","4","1","0","1","0","0","0","0","1","1","1","1","0","0","0","0","3","4","4","4","3","1","2","3","2","3","3","657683860254883840","SY","686","","","","","","","","","","","","","","","","","","","","","","","","","","","","","","","","","","","","","","","","","",""
"867","<p style=""color:white; font-size: 35px;"">不孝</p>","e","categorize-html","49","135509","0.0-6.0-1.0-4.0-1.7","2","3","3","2","2","2","2","2","2","2","2","3","2","3","3","2","2","2","2","2","3","4","4","4","5","4","4","2","4","1","0","1","0","0","0","0","1","1","1","1","0","0","0","0","3","4","4","4","3","1","2","3","2","3","3","657683860254883840","SY","686","","","","","","","","","","","","","","","","","","","true","12","2","moral","867","negative","不孝","","","","","","","","","","","","","","","","",""
"null","","null","html-keyboard-response","50","135762","0.0-6.0-1.0-4.0-0.8","2","3","3","2","2","2","2","2","2","2","2","3","2","3","3","2","2","2","2","2","3","4","4","4","5","4","4","2","4","1","0","1","0","0","0","0","1","1","1","1","0","0","0","0","3","4","4","4","3","1","2","3","2","3","3","657683860254883840","SY","686","","","","","","","","","","","","","","","","","","","","","","","","","","","","","","","","","","","","","","","","","",""
"1569","<p style=""color:white; font-size: 35px;"">廉正</p>","i","categorize-html","51","137337","0.0-6.0-1.0-4.0-1.8","2","3","3","2","2","2","2","2","2","2","2","3","2","3","3","2","2","2","2","2","3","4","4","4","5","4","4","2","4","1","0","1","0","0","0","0","1","1","1","1","0","0","0","0","3","4","4","4","3","1","2","3","2","3","3","657683860254883840","SY","686","","","","","","","","","","","","","","","","","","","true","12","2","moral","1569","positive","廉正","","","","","","","","","","","","","","","","",""
"null","","null","html-keyboard-response","52","137588","0.0-6.0-1.0-4.0-0.9","2","3","3","2","2","2","2","2","2","2","2","3","2","3","3","2","2","2","2","2","3","4","4","4","5","4","4","2","4","1","0","1","0","0","0","0","1","1","1","1","0","0","0","0","3","4","4","4","3","1","2","3","2","3","3","657683860254883840","SY","686","","","","","","","","","","","","","","","","","","","","","","","","","","","","","","","","","","","","","","","","","",""
"551","<p style=""color:white; font-size: 35px;"">诚信</p>","i","categorize-html","53","138145","0.0-6.0-1.0-4.0-1.9","2","3","3","2","2","2","2","2","2","2","2","3","2","3","3","2","2","2","2","2","3","4","4","4","5","4","4","2","4","1","0","1","0","0","0","0","1","1","1","1","0","0","0","0","3","4","4","4","3","1","2","3","2","3","3","657683860254883840","SY","686","","","","","","","","","","","","","","","","","","","true","12","2","moral","551","positive","诚信","","","","","","","","","","","","","","","","",""
"null","","null","html-keyboard-response","54","138397","0.0-6.0-1.0-4.0-0.10","2","3","3","2","2","2","2","2","2","2","2","3","2","3","3","2","2","2","2","2","3","4","4","4","5","4","4","2","4","1","0","1","0","0","0","0","1","1","1","1","0","0","0","0","3","4","4","4","3","1","2","3","2","3","3","657683860254883840","SY","686","","","","","","","","","","","","","","","","","","","","","","","","","","","","","","","","","","","","","","","","","",""
"1302","<p style=""color:white; font-size: 35px;"">卑鄙</p>","e","categorize-html","55","139705","0.0-6.0-1.0-4.0-1.10","2","3","3","2","2","2","2","2","2","2","2","3","2","3","3","2","2","2","2","2","3","4","4","4","5","4","4","2","4","1","0","1","0","0","0","0","1","1","1","1","0","0","0","0","3","4","4","4","3","1","2","3","2","3","3","657683860254883840","SY","686","","","","","","","","","","","","","","","","","","","true","12","2","moral","1302","negative","卑鄙","","","","","","","","","","","","","","","","",""
"null","","null","html-keyboard-response","56","139957","0.0-6.0-1.0-4.0-0.11","2","3","3","2","2","2","2","2","2","2","2","3","2","3","3","2","2","2","2","2","3","4","4","4","5","4","4","2","4","1","0","1","0","0","0","0","1","1","1","1","0","0","0","0","3","4","4","4","3","1","2","3","2","3","3","657683860254883840","SY","686","","","","","","","","","","","","","","","","","","","","","","","","","","","","","","","","","","","","","","","","","",""
"2010","<p style=""color:white; font-size: 35px;"">不仁</p>","e","categorize-html","57","141972","0.0-6.0-1.0-4.0-1.11","2","3","3","2","2","2","2","2","2","2","2","3","2","3","3","2","2","2","2","2","3","4","4","4","5","4","4","2","4","1","0","1","0","0","0","0","1","1","1","1","0","0","0","0","3","4","4","4","3","1","2","3","2","3","3","657683860254883840","SY","686","","","","","","","","","","","","","","","","","","","true","12","2","moral","2010","negative","不仁","","","","","","","","","","","","","","","","",""
"6333","
    <div class=""tag-bottom""><p>
    —— 任务3：对“自我/消极”词和“他人/积极”词分类 ——<p/>
    <span style=""color:#78DCE8""><b>注意上方，之前的四类词语将混合在一起交替呈现</b></span><p/>
    <span style=""color:#FFD866""><b>请根据上方标签的提示，尽可能正确并且快速地做出按键反应</b></span><p/>
    当按键错误时屏幕中会出现<span style=""color:red""> X </span>，需要按另一个键纠正才能继续<br/><p/>
    请把双手食指分别放在键盘的“E”键和“I”键上<p/>
    按<空格键>开始
    </p></div>"," ","html-keyboard-response","58","148306","0.0-6.0-1.0-5.0","2","3","3","2","2","2","2","2","2","2","2","3","2","3","3","2","2","2","2","2","3","4","4","4","5","4","4","2","4","1","0","1","0","0","0","0","1","1","1","1","0","0","0","0","3","4","4","4","3","1","2","3","2","3","3","657683860254883840","SY","686","","","","","","","","","","","","","","","","","","","","","","","","","","","","","","","","","","","","","","","","","",""
"null","","null","html-keyboard-response","59","148558","0.0-6.0-1.0-6.0-0.0","2","3","3","2","2","2","2","2","2","2","2","3","2","3","3","2","2","2","2","2","3","4","4","4","5","4","4","2","4","1","0","1","0","0","0","0","1","1","1","1","0","0","0","0","3","4","4","4","3","1","2","3","2","3","3","657683860254883840","SY","686","","","","","","","","","","","","","","","","","","","","","","","","","","","","","","","","","","","","","","","","","",""
"802","<p style=""color:rgb(150, 250, 100); font-size: 35px;"">自己</p>","e","categorize-html","60","149364","0.0-6.0-1.0-6.0-1.0","2","3","3","2","2","2","2","2","2","2","2","3","2","3","3","2","2","2","2","2","3","4","4","4","5","4","4","2","4","1","0","1","0","0","0","0","1","1","1","1","0","0","0","0","3","4","4","4","3","1","2","3","2","3","3","657683860254883840","SY","686","","","","","","","","","","","","","","","","","","","true","13","3","moral","802","self","自己","","","","","","","","","","","","","","","","",""
"null","","null","html-keyboard-response","61","149617","0.0-6.0-1.0-6.0-0.1","2","3","3","2","2","2","2","2","2","2","2","3","2","3","3","2","2","2","2","2","3","4","4","4","5","4","4","2","4","1","0","1","0","0","0","0","1","1","1","1","0","0","0","0","3","4","4","4","3","1","2","3","2","3","3","657683860254883840","SY","686","","","","","","","","","","","","","","","","","","","","","","","","","","","","","","","","","","","","","","","","","",""
"1472","<p style=""color:white; font-size: 35px;"">缺德</p>","e","categorize-html","62","151094","0.0-6.0-1.0-6.0-1.1","2","3","3","2","2","2","2","2","2","2","2","3","2","3","3","2","2","2","2","2","3","4","4","4","5","4","4","2","4","1","0","1","0","0","0","0","1","1","1","1","0","0","0","0","3","4","4","4","3","1","2","3","2","3","3","657683860254883840","SY","686","","","","","","","","","","","","","","","","","","","true","13","3","moral","1472","negative","缺德","","","","","","","","","","","","","","","","",""
"null","","null","html-keyboard-response","63","151347","0.0-6.0-1.0-6.0-0.2","2","3","3","2","2","2","2","2","2","2","2","3","2","3","3","2","2","2","2","2","3","4","4","4","5","4","4","2","4","1","0","1","0","0","0","0","1","1","1","1","0","0","0","0","3","4","4","4","3","1","2","3","2","3","3","657683860254883840","SY","686","","","","","","","","","","","","","","","","","","","","","","","","","","","","","","","","","","","","","","","","","",""
"753","<p style=""color:rgb(150, 250, 100); font-size: 35px;"">他人</p>","i","categorize-html","64","152105","0.0-6.0-1.0-6.0-1.2","2","3","3","2","2","2","2","2","2","2","2","3","2","3","3","2","2","2","2","2","3","4","4","4","5","4","4","2","4","1","0","1","0","0","0","0","1","1","1","1","0","0","0","0","3","4","4","4","3","1","2","3","2","3","3","657683860254883840","SY","686","","","","","","","","","","","","","","","","","","","true","13","3","moral","753","other","他人","","","","","","","","","","","","","","","","",""
"null","","null","html-keyboard-response","65","152357","0.0-6.0-1.0-6.0-0.3","2","3","3","2","2","2","2","2","2","2","2","3","2","3","3","2","2","2","2","2","3","4","4","4","5","4","4","2","4","1","0","1","0","0","0","0","1","1","1","1","0","0","0","0","3","4","4","4","3","1","2","3","2","3","3","657683860254883840","SY","686","","","","","","","","","","","","","","","","","","","","","","","","","","","","","","","","","","","","","","","","","",""
"1379","<p style=""color:white; font-size: 35px;"">君子</p>","i","categorize-html","66","153742","0.0-6.0-1.0-6.0-1.3","2","3","3","2","2","2","2","2","2","2","2","3","2","3","3","2","2","2","2","2","3","4","4","4","5","4","4","2","4","1","0","1","0","0","0","0","1","1","1","1","0","0","0","0","3","4","4","4","3","1","2","3","2","3","3","657683860254883840","SY","686","","","","","","","","","","","","","","","","","","","true","13","3","moral","1379","positive","君子","","","","","","","","","","","","","","","","",""
"null","","null","html-keyboard-response","67","153996","0.0-6.0-1.0-6.0-0.4","2","3","3","2","2","2","2","2","2","2","2","3","2","3","3","2","2","2","2","2","3","4","4","4","5","4","4","2","4","1","0","1","0","0","0","0","1","1","1","1","0","0","0","0","3","4","4","4","3","1","2","3","2","3","3","657683860254883840","SY","686","","","","","","","","","","","","","","","","","","","","","","","","","","","","","","","","","","","","","","","","","",""
"746","<p style=""color:rgb(150, 250, 100); font-size: 35px;"">他的</p>","i","categorize-html","68","154746","0.0-6.0-1.0-6.0-1.4","2","3","3","2","2","2","2","2","2","2","2","3","2","3","3","2","2","2","2","2","3","4","4","4","5","4","4","2","4","1","0","1","0","0","0","0","1","1","1","1","0","0","0","0","3","4","4","4","3","1","2","3","2","3","3","657683860254883840","SY","686","","","","","","","","","","","","","","","","","","","true","13","3","moral","746","other","他的","","","","","","","","","","","","","","","","",""
"null","","null","html-keyboard-response","69","155007","0.0-6.0-1.0-6.0-0.5","2","3","3","2","2","2","2","2","2","2","2","3","2","3","3","2","2","2","2","2","3","4","4","4","5","4","4","2","4","1","0","1","0","0","0","0","1","1","1","1","0","0","0","0","3","4","4","4","3","1","2","3","2","3","3","657683860254883840","SY","686","","","","","","","","","","","","","","","","","","","","","","","","","","","","","","","","","","","","","","","","","",""
"673","<p style=""color:white; font-size: 35px;"">诚信</p>","i","categorize-html","70","155684","0.0-6.0-1.0-6.0-1.5","2","3","3","2","2","2","2","2","2","2","2","3","2","3","3","2","2","2","2","2","3","4","4","4","5","4","4","2","4","1","0","1","0","0","0","0","1","1","1","1","0","0","0","0","3","4","4","4","3","1","2","3","2","3","3","657683860254883840","SY","686","","","","","","","","","","","","","","","","","","","true","13","3","moral","673","positive","诚信","","","","","","","","","","","","","","","","",""
"null","","null","html-keyboard-response","71","155936","0.0-6.0-1.0-6.0-0.6","2","3","3","2","2","2","2","2","2","2","2","3","2","3","3","2","2","2","2","2","3","4","4","4","5","4","4","2","4","1","0","1","0","0","0","0","1","1","1","1","0","0","0","0","3","4","4","4","3","1","2","3","2","3","3","657683860254883840","SY","686","","","","","","","","","","","","","","","","","","","","","","","","","","","","","","","","","","","","","","","","","",""
"606","<p style=""color:rgb(150, 250, 100); font-size: 35px;"">自己的</p>","e","categorize-html","72","156547","0.0-6.0-1.0-6.0-1.6","2","3","3","2","2","2","2","2","2","2","2","3","2","3","3","2","2","2","2","2","3","4","4","4","5","4","4","2","4","1","0","1","0","0","0","0","1","1","1","1","0","0","0","0","3","4","4","4","3","1","2","3","2","3","3","657683860254883840","SY","686","","","","","","","","","","","","","","","","","","","true","13","3","moral","606","self","自己的","","","","","","","","","","","","","","","","",""
"null","","null","html-keyboard-response","73","156798","0.0-6.0-1.0-6.0-0.7","2","3","3","2","2","2","2","2","2","2","2","3","2","3","3","2","2","2","2","2","3","4","4","4","5","4","4","2","4","1","0","1","0","0","0","0","1","1","1","1","0","0","0","0","3","4","4","4","3","1","2","3","2","3","3","657683860254883840","SY","686","","","","","","","","","","","","","","","","","","","","","","","","","","","","","","","","","","","","","","","","","",""
"1639","<p style=""color:white; font-size: 35px;"">不仁</p>","e","categorize-html","74","158442","0.0-6.0-1.0-6.0-1.7","2","3","3","2","2","2","2","2","2","2","2","3","2","3","3","2","2","2","2","2","3","4","4","4","5","4","4","2","4","1","0","1","0","0","0","0","1","1","1","1","0","0","0","0","3","4","4","4","3","1","2","3","2","3","3","657683860254883840","SY","686","","","","","","","","","","","","","","","","","","","true","13","3","moral","1639","negative","不仁","","","","","","","","","","","","","","","","",""
"null","","null","html-keyboard-response","75","158695","0.0-6.0-1.0-6.0-0.8","2","3","3","2","2","2","2","2","2","2","2","3","2","3","3","2","2","2","2","2","3","4","4","4","5","4","4","2","4","1","0","1","0","0","0","0","1","1","1","1","0","0","0","0","3","4","4","4","3","1","2","3","2","3","3","657683860254883840","SY","686","","","","","","","","","","","","","","","","","","","","","","","","","","","","","","","","","","","","","","","","","",""
"821","<p style=""color:rgb(150, 250, 100); font-size: 35px;"">本人的</p>","e","categorize-html","76","159521","0.0-6.0-1.0-6.0-1.8","2","3","3","2","2","2","2","2","2","2","2","3","2","3","3","2","2","2","2","2","3","4","4","4","5","4","4","2","4","1","0","1","0","0","0","0","1","1","1","1","0","0","0","0","3","4","4","4","3","1","2","3","2","3","3","657683860254883840","SY","686","","","","","","","","","","","","","","","","","","","true","13","3","moral","821","self","本人的","","","","","","","","","","","","","","","","",""
"null","","null","html-keyboard-response","77","159776","0.0-6.0-1.0-6.0-0.9","2","3","3","2","2","2","2","2","2","2","2","3","2","3","3","2","2","2","2","2","3","4","4","4","5","4","4","2","4","1","0","1","0","0","0","0","1","1","1","1","0","0","0","0","3","4","4","4","3","1","2","3","2","3","3","657683860254883840","SY","686","","","","","","","","","","","","","","","","","","","","","","","","","","","","","","","","","","","","","","","","","",""
"718","<p style=""color:white; font-size: 35px;"">正直</p>","i","categorize-html","78","160500","0.0-6.0-1.0-6.0-1.9","2","3","3","2","2","2","2","2","2","2","2","3","2","3","3","2","2","2","2","2","3","4","4","4","5","4","4","2","4","1","0","1","0","0","0","0","1","1","1","1","0","0","0","0","3","4","4","4","3","1","2","3","2","3","3","657683860254883840","SY","686","","","","","","","","","","","","","","","","","","","true","13","3","moral","718","positive","正直","","","","","","","","","","","","","","","","",""
"null","","null","html-keyboard-response","79","160752","0.0-6.0-1.0-6.0-0.10","2","3","3","2","2","2","2","2","2","2","2","3","2","3","3","2","2","2","2","2","3","4","4","4","5","4","4","2","4","1","0","1","0","0","0","0","1","1","1","1","0","0","0","0","3","4","4","4","3","1","2","3","2","3","3","657683860254883840","SY","686","","","","","","","","","","","","","","","","","","","","","","","","","","","","","","","","","","","","","","","","","",""
"779","<p style=""color:rgb(150, 250, 100); font-size: 35px;"">他</p>","i","categorize-html","80","161536","0.0-6.0-1.0-6.0-1.10","2","3","3","2","2","2","2","2","2","2","2","3","2","3","3","2","2","2","2","2","3","4","4","4","5","4","4","2","4","1","0","1","0","0","0","0","1","1","1","1","0","0","0","0","3","4","4","4","3","1","2","3","2","3","3","657683860254883840","SY","686","","","","","","","","","","","","","","","","","","","true","13","3","moral","779","other","他","","","","","","","","","","","","","","","","",""
"null","","null","html-keyboard-response","81","161787","0.0-6.0-1.0-6.0-0.11","2","3","3","2","2","2","2","2","2","2","2","3","2","3","3","2","2","2","2","2","3","4","4","4","5","4","4","2","4","1","0","1","0","0","0","0","1","1","1","1","0","0","0","0","3","4","4","4","3","1","2","3","2","3","3","657683860254883840","SY","686","","","","","","","","","","","","","","","","","","","","","","","","","","","","","","","","","","","","","","","","","",""
"950","<p style=""color:white; font-size: 35px;"">黑心</p>","e","categorize-html","82","162744","0.0-6.0-1.0-6.0-1.11","2","3","3","2","2","2","2","2","2","2","2","3","2","3","3","2","2","2","2","2","3","4","4","4","5","4","4","2","4","1","0","1","0","0","0","0","1","1","1","1","0","0","0","0","3","4","4","4","3","1","2","3","2","3","3","657683860254883840","SY","686","","","","","","","","","","","","","","","","","","","true","13","3","moral","950","negative","黑心","","","","","","","","","","","","","","","","",""
"null","","null","html-keyboard-response","83","162996","0.0-6.0-1.0-6.0-0.12","2","3","3","2","2","2","2","2","2","2","2","3","2","3","3","2","2","2","2","2","3","4","4","4","5","4","4","2","4","1","0","1","0","0","0","0","1","1","1","1","0","0","0","0","3","4","4","4","3","1","2","3","2","3","3","657683860254883840","SY","686","","","","","","","","","","","","","","","","","","","","","","","","","","","","","","","","","","","","","","","","","",""
"969","<p style=""color:rgb(150, 250, 100); font-size: 35px;"">本人</p>","e","categorize-html","84","163970","0.0-6.0-1.0-6.0-1.12","2","3","3","2","2","2","2","2","2","2","2","3","2","3","3","2","2","2","2","2","3","4","4","4","5","4","4","2","4","1","0","1","0","0","0","0","1","1","1","1","0","0","0","0","3","4","4","4","3","1","2","3","2","3","3","657683860254883840","SY","686","","","","","","","","","","","","","","","","","","","true","13","3","moral","969","self","本人","","","","","","","","","","","","","","","","",""
"null","","null","html-keyboard-response","85","164225","0.0-6.0-1.0-6.0-0.13","2","3","3","2","2","2","2","2","2","2","2","3","2","3","3","2","2","2","2","2","3","4","4","4","5","4","4","2","4","1","0","1","0","0","0","0","1","1","1","1","0","0","0","0","3","4","4","4","3","1","2","3","2","3","3","657683860254883840","SY","686","","","","","","","","","","","","","","","","","","","","","","","","","","","","","","","","","","","","","","","","","",""
"1007","<p style=""color:white; font-size: 35px;"">卑鄙</p>","e","categorize-html","86","165238","0.0-6.0-1.0-6.0-1.13","2","3","3","2","2","2","2","2","2","2","2","3","2","3","3","2","2","2","2","2","3","4","4","4","5","4","4","2","4","1","0","1","0","0","0","0","1","1","1","1","0","0","0","0","3","4","4","4","3","1","2","3","2","3","3","657683860254883840","SY","686","","","","","","","","","","","","","","","","","","","true","13","3","moral","1007","negative","卑鄙","","","","","","","","","","","","","","","","",""
"null","","null","html-keyboard-response","87","165490","0.0-6.0-1.0-6.0-0.14","2","3","3","2","2","2","2","2","2","2","2","3","2","3","3","2","2","2","2","2","3","4","4","4","5","4","4","2","4","1","0","1","0","0","0","0","1","1","1","1","0","0","0","0","3","4","4","4","3","1","2","3","2","3","3","657683860254883840","SY","686","","","","","","","","","","","","","","","","","","","","","","","","","","","","","","","","","","","","","","","","","",""
"585","<p style=""color:rgb(150, 250, 100); font-size: 35px;"">别人</p>","i","categorize-html","88","166080","0.0-6.0-1.0-6.0-1.14","2","3","3","2","2","2","2","2","2","2","2","3","2","3","3","2","2","2","2","2","3","4","4","4","5","4","4","2","4","1","0","1","0","0","0","0","1","1","1","1","0","0","0","0","3","4","4","4","3","1","2","3","2","3","3","657683860254883840","SY","686","","","","","","","","","","","","","","","","","","","true","13","3","moral","585","other","别人","","","","","","","","","","","","","","","","",""
"null","","null","html-keyboard-response","89","166331","0.0-6.0-1.0-6.0-0.15","2","3","3","2","2","2","2","2","2","2","2","3","2","3","3","2","2","2","2","2","3","4","4","4","5","4","4","2","4","1","0","1","0","0","0","0","1","1","1","1","0","0","0","0","3","4","4","4","3","1","2","3","2","3","3","657683860254883840","SY","686","","","","","","","","","","","","","","","","","","","","","","","","","","","","","","","","","","","","","","","","","",""
"936","<p style=""color:white; font-size: 35px;"">善良</p>","i","categorize-html","90","167272","0.0-6.0-1.0-6.0-1.15","2","3","3","2","2","2","2","2","2","2","2","3","2","3","3","2","2","2","2","2","3","4","4","4","5","4","4","2","4","1","0","1","0","0","0","0","1","1","1","1","0","0","0","0","3","4","4","4","3","1","2","3","2","3","3","657683860254883840","SY","686","","","","","","","","","","","","","","","","","","","true","13","3","moral","936","positive","善良","","","","","","","","","","","","","","","","",""
"null","","null","html-keyboard-response","91","167523","0.0-6.0-1.0-6.0-0.16","2","3","3","2","2","2","2","2","2","2","2","3","2","3","3","2","2","2","2","2","3","4","4","4","5","4","4","2","4","1","0","1","0","0","0","0","1","1","1","1","0","0","0","0","3","4","4","4","3","1","2","3","2","3","3","657683860254883840","SY","686","","","","","","","","","","","","","","","","","","","","","","","","","","","","","","","","","","","","","","","","","",""
"682","<p style=""color:rgb(150, 250, 100); font-size: 35px;"">别人的</p>","i","categorize-html","92","168210","0.0-6.0-1.0-6.0-1.16","2","3","3","2","2","2","2","2","2","2","2","3","2","3","3","2","2","2","2","2","3","4","4","4","5","4","4","2","4","1","0","1","0","0","0","0","1","1","1","1","0","0","0","0","3","4","4","4","3","1","2","3","2","3","3","657683860254883840","SY","686","","","","","","","","","","","","","","","","","","","true","13","3","moral","682","other","别人的","","","","","","","","","","","","","","","","",""
"null","","null","html-keyboard-response","93","168463","0.0-6.0-1.0-6.0-0.17","2","3","3","2","2","2","2","2","2","2","2","3","2","3","3","2","2","2","2","2","3","4","4","4","5","4","4","2","4","1","0","1","0","0","0","0","1","1","1","1","0","0","0","0","3","4","4","4","3","1","2","3","2","3","3","657683860254883840","SY","686","","","","","","","","","","","","","","","","","","","","","","","","","","","","","","","","","","","","","","","","","",""
"854","<p style=""color:white; font-size: 35px;"">小人</p>","e","categorize-html","94","169324","0.0-6.0-1.0-6.0-1.17","2","3","3","2","2","2","2","2","2","2","2","3","2","3","3","2","2","2","2","2","3","4","4","4","5","4","4","2","4","1","0","1","0","0","0","0","1","1","1","1","0","0","0","0","3","4","4","4","3","1","2","3","2","3","3","657683860254883840","SY","686","","","","","","","","","","","","","","","","","","","true","13","3","moral","854","negative","小人","","","","","","","","","","","","","","","","",""
"null","","null","html-keyboard-response","95","169575","0.0-6.0-1.0-6.0-0.18","2","3","3","2","2","2","2","2","2","2","2","3","2","3","3","2","2","2","2","2","3","4","4","4","5","4","4","2","4","1","0","1","0","0","0","0","1","1","1","1","0","0","0","0","3","4","4","4","3","1","2","3","2","3","3","657683860254883840","SY","686","","","","","","","","","","","","","","","","","","","","","","","","","","","","","","","","","","","","","","","","","",""
"1377","<p style=""color:rgb(150, 250, 100); font-size: 35px;"">我的</p>","e","categorize-html","96","170957","0.0-6.0-1.0-6.0-1.18","2","3","3","2","2","2","2","2","2","2","2","3","2","3","3","2","2","2","2","2","3","4","4","4","5","4","4","2","4","1","0","1","0","0","0","0","1","1","1","1","0","0","0","0","3","4","4","4","3","1","2","3","2","3","3","657683860254883840","SY","686","","","","","","","","","","","","","","","","","","","true","13","3","moral","1377","self","我的","","","","","","","","","","","","","","","","",""
"null","","null","html-keyboard-response","97","171209","0.0-6.0-1.0-6.0-0.19","2","3","3","2","2","2","2","2","2","2","2","3","2","3","3","2","2","2","2","2","3","4","4","4","5","4","4","2","4","1","0","1","0","0","0","0","1","1","1","1","0","0","0","0","3","4","4","4","3","1","2","3","2","3","3","657683860254883840","SY","686","","","","","","","","","","","","","","","","","","","","","","","","","","","","","","","","","","","","","","","","","",""
"698","<p style=""color:white; font-size: 35px;"">高尚</p>","i","categorize-html","98","171913","0.0-6.0-1.0-6.0-1.19","2","3","3","2","2","2","2","2","2","2","2","3","2","3","3","2","2","2","2","2","3","4","4","4","5","4","4","2","4","1","0","1","0","0","0","0","1","1","1","1","0","0","0","0","3","4","4","4","3","1","2","3","2","3","3","657683860254883840","SY","686","","","","","","","","","","","","","","","","","","","true","13","3","moral","698","positive","高尚","","","","","","","","","","","","","","","","",""
"null","","null","html-keyboard-response","99","172165","0.0-6.0-1.0-6.0-0.20","2","3","3","2","2","2","2","2","2","2","2","3","2","3","3","2","2","2","2","2","3","4","4","4","5","4","4","2","4","1","0","1","0","0","0","0","1","1","1","1","0","0","0","0","3","4","4","4","3","1","2","3","2","3","3","657683860254883840","SY","686","","","","","","","","","","","","","","","","","","","","","","","","","","","","","","","","","","","","","","","","","",""
"645","<p style=""color:rgb(150, 250, 100); font-size: 35px;"">他人的</p>","i","categorize-html","100","172815","0.0-6.0-1.0-6.0-1.20","2","3","3","2","2","2","2","2","2","2","2","3","2","3","3","2","2","2","2","2","3","4","4","4","5","4","4","2","4","1","0","1","0","0","0","0","1","1","1","1","0","0","0","0","3","4","4","4","3","1","2","3","2","3","3","657683860254883840","SY","686","","","","","","","","","","","","","","","","","","","true","13","3","moral","645","other","他人的","","","","","","","","","","","","","","","","",""
"null","","null","html-keyboard-response","101","173066","0.0-6.0-1.0-6.0-0.21","2","3","3","2","2","2","2","2","2","2","2","3","2","3","3","2","2","2","2","2","3","4","4","4","5","4","4","2","4","1","0","1","0","0","0","0","1","1","1","1","0","0","0","0","3","4","4","4","3","1","2","3","2","3","3","657683860254883840","SY","686","","","","","","","","","","","","","","","","","","","","","","","","","","","","","","","","","","","","","","","","","",""
"1512","<p style=""color:white; font-size: 35px;"">不孝</p>","e","categorize-html","102","174586","0.0-6.0-1.0-6.0-1.21","2","3","3","2","2","2","2","2","2","2","2","3","2","3","3","2","2","2","2","2","3","4","4","4","5","4","4","2","4","1","0","1","0","0","0","0","1","1","1","1","0","0","0","0","3","4","4","4","3","1","2","3","2","3","3","657683860254883840","SY","686","","","","","","","","","","","","","","","","","","","true","13","3","moral","1512","negative","不孝","","","","","","","","","","","","","","","","",""
"null","","null","html-keyboard-response","103","174839","0.0-6.0-1.0-6.0-0.22","2","3","3","2","2","2","2","2","2","2","2","3","2","3","3","2","2","2","2","2","3","4","4","4","5","4","4","2","4","1","0","1","0","0","0","0","1","1","1","1","0","0","0","0","3","4","4","4","3","1","2","3","2","3","3","657683860254883840","SY","686","","","","","","","","","","","","","","","","","","","","","","","","","","","","","","","","","","","","","","","","","",""
"558","<p style=""color:rgb(150, 250, 100); font-size: 35px;"">我</p>","e","categorize-html","104","175403","0.0-6.0-1.0-6.0-1.22","2","3","3","2","2","2","2","2","2","2","2","3","2","3","3","2","2","2","2","2","3","4","4","4","5","4","4","2","4","1","0","1","0","0","0","0","1","1","1","1","0","0","0","0","3","4","4","4","3","1","2","3","2","3","3","657683860254883840","SY","686","","","","","","","","","","","","","","","","","","","true","13","3","moral","558","self","我","","","","","","","","","","","","","","","","",""
"null","","null","html-keyboard-response","105","175654","0.0-6.0-1.0-6.0-0.23","2","3","3","2","2","2","2","2","2","2","2","3","2","3","3","2","2","2","2","2","3","4","4","4","5","4","4","2","4","1","0","1","0","0","0","0","1","1","1","1","0","0","0","0","3","4","4","4","3","1","2","3","2","3","3","657683860254883840","SY","686","","","","","","","","","","","","","","","","","","","","","","","","","","","","","","","","","","","","","","","","","",""
"895","<p style=""color:white; font-size: 35px;"">廉正</p>","i","categorize-html","106","176554","0.0-6.0-1.0-6.0-1.23","2","3","3","2","2","2","2","2","2","2","2","3","2","3","3","2","2","2","2","2","3","4","4","4","5","4","4","2","4","1","0","1","0","0","0","0","1","1","1","1","0","0","0","0","3","4","4","4","3","1","2","3","2","3","3","657683860254883840","SY","686","","","","","","","","","","","","","","","","","","","true","13","3","moral","895","positive","廉正","","","","","","","","","","","","","","","","",""
"8202","
    <div class=""tag-bottom""><p>
    —— 任务4：对“自我/消极”词和“他人/积极”词分类 ——<p/>
    <span style=""color:#78DCE8""><b>与刚才的任务完全相同，请再次对这四类词语分类</b></span><p/>
    <span style=""color:#FFD866""><b>请根据上方标签的提示，尽可能正确并且快速地做出按键反应</b></span><p/>
    当按键错误时屏幕中会出现<span style=""color:red""> X </span>，需要按另一个键纠正才能继续<br/><p/>
    请把双手食指分别放在键盘的“E”键和“I”键上<p/>
    按<空格键>开始
    </p></div>"," ","html-keyboard-response","107","184757","0.0-6.0-1.0-7.0","2","3","3","2","2","2","2","2","2","2","2","3","2","3","3","2","2","2","2","2","3","4","4","4","5","4","4","2","4","1","0","1","0","0","0","0","1","1","1","1","0","0","0","0","3","4","4","4","3","1","2","3","2","3","3","657683860254883840","SY","686","","","","","","","","","","","","","","","","","","","","","","","","","","","","","","","","","","","","","","","","","",""
"null","","null","html-keyboard-response","108","185009","0.0-6.0-1.0-8.0-0.0","2","3","3","2","2","2","2","2","2","2","2","3","2","3","3","2","2","2","2","2","3","4","4","4","5","4","4","2","4","1","0","1","0","0","0","0","1","1","1","1","0","0","0","0","3","4","4","4","3","1","2","3","2","3","3","657683860254883840","SY","686","","","","","","","","","","","","","","","","","","","","","","","","","","","","","","","","","","","","","","","","","",""
"642","<p style=""color:rgb(150, 250, 100); font-size: 35px;"">我</p>","e","categorize-html","109","185657","0.0-6.0-1.0-8.0-1.0","2","3","3","2","2","2","2","2","2","2","2","3","2","3","3","2","2","2","2","2","3","4","4","4","5","4","4","2","4","1","0","1","0","0","0","0","1","1","1","1","0","0","0","0","3","4","4","4","3","1","2","3","2","3","3","657683860254883840","SY","686","","","","","","","","","","","","","","","","","","","true","14","4","moral","642","self","我","","","","","","","","","","","","","","","","",""
"null","","null","html-keyboard-response","110","185916","0.0-6.0-1.0-8.0-0.1","2","3","3","2","2","2","2","2","2","2","2","3","2","3","3","2","2","2","2","2","3","4","4","4","5","4","4","2","4","1","0","1","0","0","0","0","1","1","1","1","0","0","0","0","3","4","4","4","3","1","2","3","2","3","3","657683860254883840","SY","686","","","","","","","","","","","","","","","","","","","","","","","","","","","","","","","","","","","","","","","","","",""
"722","<p style=""color:white; font-size: 35px;"">正直</p>","i","categorize-html","111","186643","0.0-6.0-1.0-8.0-1.1","2","3","3","2","2","2","2","2","2","2","2","3","2","3","3","2","2","2","2","2","3","4","4","4","5","4","4","2","4","1","0","1","0","0","0","0","1","1","1","1","0","0","0","0","3","4","4","4","3","1","2","3","2","3","3","657683860254883840","SY","686","","","","","","","","","","","","","","","","","","","true","14","4","moral","722","positive","正直","","","","","","","","","","","","","","","","",""
"null","","null","html-keyboard-response","112","186895","0.0-6.0-1.0-8.0-0.2","2","3","3","2","2","2","2","2","2","2","2","3","2","3","3","2","2","2","2","2","3","4","4","4","5","4","4","2","4","1","0","1","0","0","0","0","1","1","1","1","0","0","0","0","3","4","4","4","3","1","2","3","2","3","3","657683860254883840","SY","686","","","","","","","","","","","","","","","","","","","","","","","","","","","","","","","","","","","","","","","","","",""
"634","<p style=""color:rgb(150, 250, 100); font-size: 35px;"">别人的</p>","i","categorize-html","113","187534","0.0-6.0-1.0-8.0-1.2","2","3","3","2","2","2","2","2","2","2","2","3","2","3","3","2","2","2","2","2","3","4","4","4","5","4","4","2","4","1","0","1","0","0","0","0","1","1","1","1","0","0","0","0","3","4","4","4","3","1","2","3","2","3","3","657683860254883840","SY","686","","","","","","","","","","","","","","","","","","","true","14","4","moral","634","other","别人的","","","","","","","","","","","","","","","","",""
"null","","null","html-keyboard-response","114","187785","0.0-6.0-1.0-8.0-0.3","2","3","3","2","2","2","2","2","2","2","2","3","2","3","3","2","2","2","2","2","3","4","4","4","5","4","4","2","4","1","0","1","0","0","0","0","1","1","1","1","0","0","0","0","3","4","4","4","3","1","2","3","2","3","3","657683860254883840","SY","686","","","","","","","","","","","","","","","","","","","","","","","","","","","","","","","","","","","","","","","","","",""
"847","<p style=""color:white; font-size: 35px;"">不孝</p>","e","categorize-html","115","188639","0.0-6.0-1.0-8.0-1.3","2","3","3","2","2","2","2","2","2","2","2","3","2","3","3","2","2","2","2","2","3","4","4","4","5","4","4","2","4","1","0","1","0","0","0","0","1","1","1","1","0","0","0","0","3","4","4","4","3","1","2","3","2","3","3","657683860254883840","SY","686","","","","","","","","","","","","","","","","","","","true","14","4","moral","847","negative","不孝","","","","","","","","","","","","","","","","",""
"null","","null","html-keyboard-response","116","188890","0.0-6.0-1.0-8.0-0.4","2","3","3","2","2","2","2","2","2","2","2","3","2","3","3","2","2","2","2","2","3","4","4","4","5","4","4","2","4","1","0","1","0","0","0","0","1","1","1","1","0","0","0","0","3","4","4","4","3","1","2","3","2","3","3","657683860254883840","SY","686","","","","","","","","","","","","","","","","","","","","","","","","","","","","","","","","","","","","","","","","","",""
"597","<p style=""color:rgb(150, 250, 100); font-size: 35px;"">本人的</p>","e","categorize-html","117","189490","0.0-6.0-1.0-8.0-1.4","2","3","3","2","2","2","2","2","2","2","2","3","2","3","3","2","2","2","2","2","3","4","4","4","5","4","4","2","4","1","0","1","0","0","0","0","1","1","1","1","0","0","0","0","3","4","4","4","3","1","2","3","2","3","3","657683860254883840","SY","686","","","","","","","","","","","","","","","","","","","true","14","4","moral","597","self","本人的","","","","","","","","","","","","","","","","",""
"null","","null","html-keyboard-response","118","189755","0.0-6.0-1.0-8.0-0.5","2","3","3","2","2","2","2","2","2","2","2","3","2","3","3","2","2","2","2","2","3","4","4","4","5","4","4","2","4","1","0","1","0","0","0","0","1","1","1","1","0","0","0","0","3","4","4","4","3","1","2","3","2","3","3","657683860254883840","SY","686","","","","","","","","","","","","","","","","","","","","","","","","","","","","","","","","","","","","","","","","","",""
"782","<p style=""color:white; font-size: 35px;"">卑鄙</p>","e","categorize-html","119","190542","0.0-6.0-1.0-8.0-1.5","2","3","3","2","2","2","2","2","2","2","2","3","2","3","3","2","2","2","2","2","3","4","4","4","5","4","4","2","4","1","0","1","0","0","0","0","1","1","1","1","0","0","0","0","3","4","4","4","3","1","2","3","2","3","3","657683860254883840","SY","686","","","","","","","","","","","","","","","","","","","true","14","4","moral","782","negative","卑鄙","","","","","","","","","","","","","","","","",""
"null","","null","html-keyboard-response","120","190793","0.0-6.0-1.0-8.0-0.6","2","3","3","2","2","2","2","2","2","2","2","3","2","3","3","2","2","2","2","2","3","4","4","4","5","4","4","2","4","1","0","1","0","0","0","0","1","1","1","1","0","0","0","0","3","4","4","4","3","1","2","3","2","3","3","657683860254883840","SY","686","","","","","","","","","","","","","","","","","","","","","","","","","","","","","","","","","","","","","","","","","",""
"591","<p style=""color:rgb(150, 250, 100); font-size: 35px;"">他的</p>","i","categorize-html","121","191388","0.0-6.0-1.0-8.0-1.6","2","3","3","2","2","2","2","2","2","2","2","3","2","3","3","2","2","2","2","2","3","4","4","4","5","4","4","2","4","1","0","1","0","0","0","0","1","1","1","1","0","0","0","0","3","4","4","4","3","1","2","3","2","3","3","657683860254883840","SY","686","","","","","","","","","","","","","","","","","","","true","14","4","moral","591","other","他的","","","","","","","","","","","","","","","","",""
"null","","null","html-keyboard-response","122","191640","0.0-6.0-1.0-8.0-0.7","2","3","3","2","2","2","2","2","2","2","2","3","2","3","3","2","2","2","2","2","3","4","4","4","5","4","4","2","4","1","0","1","0","0","0","0","1","1","1","1","0","0","0","0","3","4","4","4","3","1","2","3","2","3","3","657683860254883840","SY","686","","","","","","","","","","","","","","","","","","","","","","","","","","","","","","","","","","","","","","","","","",""
"825","<p style=""color:white; font-size: 35px;"">君子</p>","i","categorize-html","123","192470","0.0-6.0-1.0-8.0-1.7","2","3","3","2","2","2","2","2","2","2","2","3","2","3","3","2","2","2","2","2","3","4","4","4","5","4","4","2","4","1","0","1","0","0","0","0","1","1","1","1","0","0","0","0","3","4","4","4","3","1","2","3","2","3","3","657683860254883840","SY","686","","","","","","","","","","","","","","","","","","","true","14","4","moral","825","positive","君子","","","","","","","","","","","","","","","","",""
"null","","null","html-keyboard-response","124","192722","0.0-6.0-1.0-8.0-0.8","2","3","3","2","2","2","2","2","2","2","2","3","2","3","3","2","2","2","2","2","3","4","4","4","5","4","4","2","4","1","0","1","0","0","0","0","1","1","1","1","0","0","0","0","3","4","4","4","3","1","2","3","2","3","3","657683860254883840","SY","686","","","","","","","","","","","","","","","","","","","","","","","","","","","","","","","","","","","","","","","","","",""
"697","<p style=""color:rgb(150, 250, 100); font-size: 35px;"">我的</p>","e","categorize-html","125","193421","0.0-6.0-1.0-8.0-1.8","2","3","3","2","2","2","2","2","2","2","2","3","2","3","3","2","2","2","2","2","3","4","4","4","5","4","4","2","4","1","0","1","0","0","0","0","1","1","1","1","0","0","0","0","3","4","4","4","3","1","2","3","2","3","3","657683860254883840","SY","686","","","","","","","","","","","","","","","","","","","true","14","4","moral","697","self","我的","","","","","","","","","","","","","","","","",""
"null","","null","html-keyboard-response","126","193673","0.0-6.0-1.0-8.0-0.9","2","3","3","2","2","2","2","2","2","2","2","3","2","3","3","2","2","2","2","2","3","4","4","4","5","4","4","2","4","1","0","1","0","0","0","0","1","1","1","1","0","0","0","0","3","4","4","4","3","1","2","3","2","3","3","657683860254883840","SY","686","","","","","","","","","","","","","","","","","","","","","","","","","","","","","","","","","","","","","","","","","",""
"737","<p style=""color:white; font-size: 35px;"">诚信</p>","i","categorize-html","127","194416","0.0-6.0-1.0-8.0-1.9","2","3","3","2","2","2","2","2","2","2","2","3","2","3","3","2","2","2","2","2","3","4","4","4","5","4","4","2","4","1","0","1","0","0","0","0","1","1","1","1","0","0","0","0","3","4","4","4","3","1","2","3","2","3","3","657683860254883840","SY","686","","","","","","","","","","","","","","","","","","","true","14","4","moral","737","positive","诚信","","","","","","","","","","","","","","","","",""
"null","","null","html-keyboard-response","128","194667","0.0-6.0-1.0-8.0-0.10","2","3","3","2","2","2","2","2","2","2","2","3","2","3","3","2","2","2","2","2","3","4","4","4","5","4","4","2","4","1","0","1","0","0","0","0","1","1","1","1","0","0","0","0","3","4","4","4","3","1","2","3","2","3","3","657683860254883840","SY","686","","","","","","","","","","","","","","","","","","","","","","","","","","","","","","","","","","","","","","","","","",""
"528","<p style=""color:rgb(150, 250, 100); font-size: 35px;"">他人的</p>","i","categorize-html","129","195200","0.0-6.0-1.0-8.0-1.10","2","3","3","2","2","2","2","2","2","2","2","3","2","3","3","2","2","2","2","2","3","4","4","4","5","4","4","2","4","1","0","1","0","0","0","0","1","1","1","1","0","0","0","0","3","4","4","4","3","1","2","3","2","3","3","657683860254883840","SY","686","","","","","","","","","","","","","","","","","","","true","14","4","moral","528","other","他人的","","","","","","","","","","","","","","","","",""
"null","","null","html-keyboard-response","130","195452","0.0-6.0-1.0-8.0-0.11","2","3","3","2","2","2","2","2","2","2","2","3","2","3","3","2","2","2","2","2","3","4","4","4","5","4","4","2","4","1","0","1","0","0","0","0","1","1","1","1","0","0","0","0","3","4","4","4","3","1","2","3","2","3","3","657683860254883840","SY","686","","","","","","","","","","","","","","","","","","","","","","","","","","","","","","","","","","","","","","","","","",""
"768","<p style=""color:white; font-size: 35px;"">小人</p>","e","categorize-html","131","196225","0.0-6.0-1.0-8.0-1.11","2","3","3","2","2","2","2","2","2","2","2","3","2","3","3","2","2","2","2","2","3","4","4","4","5","4","4","2","4","1","0","1","0","0","0","0","1","1","1","1","0","0","0","0","3","4","4","4","3","1","2","3","2","3","3","657683860254883840","SY","686","","","","","","","","","","","","","","","","","","","true","14","4","moral","768","negative","小人","","","","","","","","","","","","","","","","",""
"null","","null","html-keyboard-response","132","196477","0.0-6.0-1.0-8.0-0.12","2","3","3","2","2","2","2","2","2","2","2","3","2","3","3","2","2","2","2","2","3","4","4","4","5","4","4","2","4","1","0","1","0","0","0","0","1","1","1","1","0","0","0","0","3","4","4","4","3","1","2","3","2","3","3","657683860254883840","SY","686","","","","","","","","","","","","","","","","","","","","","","","","","","","","","","","","","","","","","","","","","",""
"645","<p style=""color:rgb(150, 250, 100); font-size: 35px;"">他的</p>","i","categorize-html","133","197127","0.0-6.0-1.0-8.0-1.12","2","3","3","2","2","2","2","2","2","2","2","3","2","3","3","2","2","2","2","2","3","4","4","4","5","4","4","2","4","1","0","1","0","0","0","0","1","1","1","1","0","0","0","0","3","4","4","4","3","1","2","3","2","3","3","657683860254883840","SY","686","","","","","","","","","","","","","","","","","","","true","14","4","moral","645","other","他的","","","","","","","","","","","","","","","","",""
"null","","null","html-keyboard-response","134","197379","0.0-6.0-1.0-8.0-0.13","2","3","3","2","2","2","2","2","2","2","2","3","2","3","3","2","2","2","2","2","3","4","4","4","5","4","4","2","4","1","0","1","0","0","0","0","1","1","1","1","0","0","0","0","3","4","4","4","3","1","2","3","2","3","3","657683860254883840","SY","686","","","","","","","","","","","","","","","","","","","","","","","","","","","","","","","","","","","","","","","","","",""
"652","<p style=""color:white; font-size: 35px;"">黑心</p>","e","categorize-html","135","198035","0.0-6.0-1.0-8.0-1.13","2","3","3","2","2","2","2","2","2","2","2","3","2","3","3","2","2","2","2","2","3","4","4","4","5","4","4","2","4","1","0","1","0","0","0","0","1","1","1","1","0","0","0","0","3","4","4","4","3","1","2","3","2","3","3","657683860254883840","SY","686","","","","","","","","","","","","","","","","","","","true","14","4","moral","652","negative","黑心","","","","","","","","","","","","","","","","",""
"null","","null","html-keyboard-response","136","198286","0.0-6.0-1.0-8.0-0.14","2","3","3","2","2","2","2","2","2","2","2","3","2","3","3","2","2","2","2","2","3","4","4","4","5","4","4","2","4","1","0","1","0","0","0","0","1","1","1","1","0","0","0","0","3","4","4","4","3","1","2","3","2","3","3","657683860254883840","SY","686","","","","","","","","","","","","","","","","","","","","","","","","","","","","","","","","","","","","","","","","","",""
"867","<p style=""color:rgb(150, 250, 100); font-size: 35px;"">自己的</p>","e","categorize-html","137","199157","0.0-6.0-1.0-8.0-1.14","2","3","3","2","2","2","2","2","2","2","2","3","2","3","3","2","2","2","2","2","3","4","4","4","5","4","4","2","4","1","0","1","0","0","0","0","1","1","1","1","0","0","0","0","3","4","4","4","3","1","2","3","2","3","3","657683860254883840","SY","686","","","","","","","","","","","","","","","","","","","true","14","4","moral","867","self","自己的","","","","","","","","","","","","","","","","",""
"null","","null","html-keyboard-response","138","199409","0.0-6.0-1.0-8.0-0.15","2","3","3","2","2","2","2","2","2","2","2","3","2","3","3","2","2","2","2","2","3","4","4","4","5","4","4","2","4","1","0","1","0","0","0","0","1","1","1","1","0","0","0","0","3","4","4","4","3","1","2","3","2","3","3","657683860254883840","SY","686","","","","","","","","","","","","","","","","","","","","","","","","","","","","","","","","","","","","","","","","","",""
"708","<p style=""color:white; font-size: 35px;"">高尚</p>","i","categorize-html","139","200122","0.0-6.0-1.0-8.0-1.15","2","3","3","2","2","2","2","2","2","2","2","3","2","3","3","2","2","2","2","2","3","4","4","4","5","4","4","2","4","1","0","1","0","0","0","0","1","1","1","1","0","0","0","0","3","4","4","4","3","1","2","3","2","3","3","657683860254883840","SY","686","","","","","","","","","","","","","","","","","","","true","14","4","moral","708","positive","高尚","","","","","","","","","","","","","","","","",""
"null","","null","html-keyboard-response","140","200374","0.0-6.0-1.0-8.0-0.16","2","3","3","2","2","2","2","2","2","2","2","3","2","3","3","2","2","2","2","2","3","4","4","4","5","4","4","2","4","1","0","1","0","0","0","0","1","1","1","1","0","0","0","0","3","4","4","4","3","1","2","3","2","3","3","657683860254883840","SY","686","","","","","","","","","","","","","","","","","","","","","","","","","","","","","","","","","","","","","","","","","",""
"930","<p style=""color:rgb(150, 250, 100); font-size: 35px;"">别人</p>","i","categorize-html","141","201310","0.0-6.0-1.0-8.0-1.16","2","3","3","2","2","2","2","2","2","2","2","3","2","3","3","2","2","2","2","2","3","4","4","4","5","4","4","2","4","1","0","1","0","0","0","0","1","1","1","1","0","0","0","0","3","4","4","4","3","1","2","3","2","3","3","657683860254883840","SY","686","","","","","","","","","","","","","","","","","","","true","14","4","moral","930","other","别人","","","","","","","","","","","","","","","","",""
"null","","null","html-keyboard-response","142","201563","0.0-6.0-1.0-8.0-0.17","2","3","3","2","2","2","2","2","2","2","2","3","2","3","3","2","2","2","2","2","3","4","4","4","5","4","4","2","4","1","0","1","0","0","0","0","1","1","1","1","0","0","0","0","3","4","4","4","3","1","2","3","2","3","3","657683860254883840","SY","686","","","","","","","","","","","","","","","","","","","","","","","","","","","","","","","","","","","","","","","","","",""
"586","<p style=""color:white; font-size: 35px;"">不孝</p>","e","categorize-html","143","202154","0.0-6.0-1.0-8.0-1.17","2","3","3","2","2","2","2","2","2","2","2","3","2","3","3","2","2","2","2","2","3","4","4","4","5","4","4","2","4","1","0","1","0","0","0","0","1","1","1","1","0","0","0","0","3","4","4","4","3","1","2","3","2","3","3","657683860254883840","SY","686","","","","","","","","","","","","","","","","","","","true","14","4","moral","586","negative","不孝","","","","","","","","","","","","","","","","",""
"null","","null","html-keyboard-response","144","202405","0.0-6.0-1.0-8.0-0.18","2","3","3","2","2","2","2","2","2","2","2","3","2","3","3","2","2","2","2","2","3","4","4","4","5","4","4","2","4","1","0","1","0","0","0","0","1","1","1","1","0","0","0","0","3","4","4","4","3","1","2","3","2","3","3","657683860254883840","SY","686","","","","","","","","","","","","","","","","","","","","","","","","","","","","","","","","","","","","","","","","","",""
"507","<p style=""color:rgb(150, 250, 100); font-size: 35px;"">本人</p>","e","categorize-html","145","202915","0.0-6.0-1.0-8.0-1.18","2","3","3","2","2","2","2","2","2","2","2","3","2","3","3","2","2","2","2","2","3","4","4","4","5","4","4","2","4","1","0","1","0","0","0","0","1","1","1","1","0","0","0","0","3","4","4","4","3","1","2","3","2","3","3","657683860254883840","SY","686","","","","","","","","","","","","","","","","","","","true","14","4","moral","507","self","本人","","","","","","","","","","","","","","","","",""
"null","","null","html-keyboard-response","146","203167","0.0-6.0-1.0-8.0-0.19","2","3","3","2","2","2","2","2","2","2","2","3","2","3","3","2","2","2","2","2","3","4","4","4","5","4","4","2","4","1","0","1","0","0","0","0","1","1","1","1","0","0","0","0","3","4","4","4","3","1","2","3","2","3","3","657683860254883840","SY","686","","","","","","","","","","","","","","","","","","","","","","","","","","","","","","","","","","","","","","","","","",""
"596","<p style=""color:white; font-size: 35px;"">诚信</p>","i","categorize-html","147","203768","0.0-6.0-1.0-8.0-1.19","2","3","3","2","2","2","2","2","2","2","2","3","2","3","3","2","2","2","2","2","3","4","4","4","5","4","4","2","4","1","0","1","0","0","0","0","1","1","1","1","0","0","0","0","3","4","4","4","3","1","2","3","2","3","3","657683860254883840","SY","686","","","","","","","","","","","","","","","","","","","true","14","4","moral","596","positive","诚信","","","","","","","","","","","","","","","","",""
"null","","null","html-keyboard-response","148","204019","0.0-6.0-1.0-8.0-0.20","2","3","3","2","2","2","2","2","2","2","2","3","2","3","3","2","2","2","2","2","3","4","4","4","5","4","4","2","4","1","0","1","0","0","0","0","1","1","1","1","0","0","0","0","3","4","4","4","3","1","2","3","2","3","3","657683860254883840","SY","686","","","","","","","","","","","","","","","","","","","","","","","","","","","","","","","","","","","","","","","","","",""
"515","<p style=""color:rgb(150, 250, 100); font-size: 35px;"">别人</p>","i","categorize-html","149","204538","0.0-6.0-1.0-8.0-1.20","2","3","3","2","2","2","2","2","2","2","2","3","2","3","3","2","2","2","2","2","3","4","4","4","5","4","4","2","4","1","0","1","0","0","0","0","1","1","1","1","0","0","0","0","3","4","4","4","3","1","2","3","2","3","3","657683860254883840","SY","686","","","","","","","","","","","","","","","","","","","true","14","4","moral","515","other","别人","","","","","","","","","","","","","","","","",""
"null","","null","html-keyboard-response","150","204790","0.0-6.0-1.0-8.0-0.21","2","3","3","2","2","2","2","2","2","2","2","3","2","3","3","2","2","2","2","2","3","4","4","4","5","4","4","2","4","1","0","1","0","0","0","0","1","1","1","1","0","0","0","0","3","4","4","4","3","1","2","3","2","3","3","657683860254883840","SY","686","","","","","","","","","","","","","","","","","","","","","","","","","","","","","","","","","","","","","","","","","",""
"728","<p style=""color:white; font-size: 35px;"">不仁</p>","e","categorize-html","151","205523","0.0-6.0-1.0-8.0-1.21","2","3","3","2","2","2","2","2","2","2","2","3","2","3","3","2","2","2","2","2","3","4","4","4","5","4","4","2","4","1","0","1","0","0","0","0","1","1","1","1","0","0","0","0","3","4","4","4","3","1","2","3","2","3","3","657683860254883840","SY","686","","","","","","","","","","","","","","","","","","","true","14","4","moral","728","negative","不仁","","","","","","","","","","","","","","","","",""
"null","","null","html-keyboard-response","152","205776","0.0-6.0-1.0-8.0-0.22","2","3","3","2","2","2","2","2","2","2","2","3","2","3","3","2","2","2","2","2","3","4","4","4","5","4","4","2","4","1","0","1","0","0","0","0","1","1","1","1","0","0","0","0","3","4","4","4","3","1","2","3","2","3","3","657683860254883840","SY","686","","","","","","","","","","","","","","","","","","","","","","","","","","","","","","","","","","","","","","","","","",""
"620","<p style=""color:rgb(150, 250, 100); font-size: 35px;"">本人的</p>","e","categorize-html","153","206401","0.0-6.0-1.0-8.0-1.22","2","3","3","2","2","2","2","2","2","2","2","3","2","3","3","2","2","2","2","2","3","4","4","4","5","4","4","2","4","1","0","1","0","0","0","0","1","1","1","1","0","0","0","0","3","4","4","4","3","1","2","3","2","3","3","657683860254883840","SY","686","","","","","","","","","","","","","","","","","","","true","14","4","moral","620","self","本人的","","","","","","","","","","","","","","","","",""
"null","","null","html-keyboard-response","154","206652","0.0-6.0-1.0-8.0-0.23","2","3","3","2","2","2","2","2","2","2","2","3","2","3","3","2","2","2","2","2","3","4","4","4","5","4","4","2","4","1","0","1","0","0","0","0","1","1","1","1","0","0","0","0","3","4","4","4","3","1","2","3","2","3","3","657683860254883840","SY","686","","","","","","","","","","","","","","","","","","","","","","","","","","","","","","","","","","","","","","","","","",""
"608","<p style=""color:white; font-size: 35px;"">正直</p>","i","categorize-html","155","207265","0.0-6.0-1.0-8.0-1.23","2","3","3","2","2","2","2","2","2","2","2","3","2","3","3","2","2","2","2","2","3","4","4","4","5","4","4","2","4","1","0","1","0","0","0","0","1","1","1","1","0","0","0","0","3","4","4","4","3","1","2","3","2","3","3","657683860254883840","SY","686","","","","","","","","","","","","","","","","","","","true","14","4","moral","608","positive","正直","","","","","","","","","","","","","","","","",""
"null","","null","html-keyboard-response","156","207516","0.0-6.0-1.0-8.0-0.24","2","3","3","2","2","2","2","2","2","2","2","3","2","3","3","2","2","2","2","2","3","4","4","4","5","4","4","2","4","1","0","1","0","0","0","0","1","1","1","1","0","0","0","0","3","4","4","4","3","1","2","3","2","3","3","657683860254883840","SY","686","","","","","","","","","","","","","","","","","","","","","","","","","","","","","","","","","","","","","","","","","",""
"614","<p style=""color:rgb(150, 250, 100); font-size: 35px;"">他人</p>","i","categorize-html","157","208136","0.0-6.0-1.0-8.0-1.24","2","3","3","2","2","2","2","2","2","2","2","3","2","3","3","2","2","2","2","2","3","4","4","4","5","4","4","2","4","1","0","1","0","0","0","0","1","1","1","1","0","0","0","0","3","4","4","4","3","1","2","3","2","3","3","657683860254883840","SY","686","","","","","","","","","","","","","","","","","","","true","14","4","moral","614","other","他人","","","","","","","","","","","","","","","","",""
"null","","null","html-keyboard-response","158","208388","0.0-6.0-1.0-8.0-0.25","2","3","3","2","2","2","2","2","2","2","2","3","2","3","3","2","2","2","2","2","3","4","4","4","5","4","4","2","4","1","0","1","0","0","0","0","1","1","1","1","0","0","0","0","3","4","4","4","3","1","2","3","2","3","3","657683860254883840","SY","686","","","","","","","","","","","","","","","","","","","","","","","","","","","","","","","","","","","","","","","","","",""
"867","<p style=""color:white; font-size: 35px;"">小人</p>","e","categorize-html","159","209258","0.0-6.0-1.0-8.0-1.25","2","3","3","2","2","2","2","2","2","2","2","3","2","3","3","2","2","2","2","2","3","4","4","4","5","4","4","2","4","1","0","1","0","0","0","0","1","1","1","1","0","0","0","0","3","4","4","4","3","1","2","3","2","3","3","657683860254883840","SY","686","","","","","","","","","","","","","","","","","","","true","14","4","moral","867","negative","小人","","","","","","","","","","","","","","","","",""
"null","","null","html-keyboard-response","160","209510","0.0-6.0-1.0-8.0-0.26","2","3","3","2","2","2","2","2","2","2","2","3","2","3","3","2","2","2","2","2","3","4","4","4","5","4","4","2","4","1","0","1","0","0","0","0","1","1","1","1","0","0","0","0","3","4","4","4","3","1","2","3","2","3","3","657683860254883840","SY","686","","","","","","","","","","","","","","","","","","","","","","","","","","","","","","","","","","","","","","","","","",""
"490","<p style=""color:rgb(150, 250, 100); font-size: 35px;"">自己</p>","e","categorize-html","161","210005","0.0-6.0-1.0-8.0-1.26","2","3","3","2","2","2","2","2","2","2","2","3","2","3","3","2","2","2","2","2","3","4","4","4","5","4","4","2","4","1","0","1","0","0","0","0","1","1","1","1","0","0","0","0","3","4","4","4","3","1","2","3","2","3","3","657683860254883840","SY","686","","","","","","","","","","","","","","","","","","","true","14","4","moral","490","self","自己","","","","","","","","","","","","","","","","",""
"null","","null","html-keyboard-response","162","210257","0.0-6.0-1.0-8.0-0.27","2","3","3","2","2","2","2","2","2","2","2","3","2","3","3","2","2","2","2","2","3","4","4","4","5","4","4","2","4","1","0","1","0","0","0","0","1","1","1","1","0","0","0","0","3","4","4","4","3","1","2","3","2","3","3","657683860254883840","SY","686","","","","","","","","","","","","","","","","","","","","","","","","","","","","","","","","","","","","","","","","","",""
"702","<p style=""color:white; font-size: 35px;"">廉正</p>","i","categorize-html","163","210966","0.0-6.0-1.0-8.0-1.27","2","3","3","2","2","2","2","2","2","2","2","3","2","3","3","2","2","2","2","2","3","4","4","4","5","4","4","2","4","1","0","1","0","0","0","0","1","1","1","1","0","0","0","0","3","4","4","4","3","1","2","3","2","3","3","657683860254883840","SY","686","","","","","","","","","","","","","","","","","","","true","14","4","moral","702","positive","廉正","","","","","","","","","","","","","","","","",""
"null","","null","html-keyboard-response","164","211217","0.0-6.0-1.0-8.0-0.28","2","3","3","2","2","2","2","2","2","2","2","3","2","3","3","2","2","2","2","2","3","4","4","4","5","4","4","2","4","1","0","1","0","0","0","0","1","1","1","1","0","0","0","0","3","4","4","4","3","1","2","3","2","3","3","657683860254883840","SY","686","","","","","","","","","","","","","","","","","","","","","","","","","","","","","","","","","","","","","","","","","",""
"561","<p style=""color:rgb(150, 250, 100); font-size: 35px;"">别人的</p>","i","categorize-html","165","211785","0.0-6.0-1.0-8.0-1.28","2","3","3","2","2","2","2","2","2","2","2","3","2","3","3","2","2","2","2","2","3","4","4","4","5","4","4","2","4","1","0","1","0","0","0","0","1","1","1","1","0","0","0","0","3","4","4","4","3","1","2","3","2","3","3","657683860254883840","SY","686","","","","","","","","","","","","","","","","","","","true","14","4","moral","561","other","别人的","","","","","","","","","","","","","","","","",""
"null","","null","html-keyboard-response","166","212036","0.0-6.0-1.0-8.0-0.29","2","3","3","2","2","2","2","2","2","2","2","3","2","3","3","2","2","2","2","2","3","4","4","4","5","4","4","2","4","1","0","1","0","0","0","0","1","1","1","1","0","0","0","0","3","4","4","4","3","1","2","3","2","3","3","657683860254883840","SY","686","","","","","","","","","","","","","","","","","","","","","","","","","","","","","","","","","","","","","","","","","",""
"768","<p style=""color:white; font-size: 35px;"">高尚</p>","i","categorize-html","167","212810","0.0-6.0-1.0-8.0-1.29","2","3","3","2","2","2","2","2","2","2","2","3","2","3","3","2","2","2","2","2","3","4","4","4","5","4","4","2","4","1","0","1","0","0","0","0","1","1","1","1","0","0","0","0","3","4","4","4","3","1","2","3","2","3","3","657683860254883840","SY","686","","","","","","","","","","","","","","","","","","","true","14","4","moral","768","positive","高尚","","","","","","","","","","","","","","","","",""
"null","","null","html-keyboard-response","168","213062","0.0-6.0-1.0-8.0-0.30","2","3","3","2","2","2","2","2","2","2","2","3","2","3","3","2","2","2","2","2","3","4","4","4","5","4","4","2","4","1","0","1","0","0","0","0","1","1","1","1","0","0","0","0","3","4","4","4","3","1","2","3","2","3","3","657683860254883840","SY","686","","","","","","","","","","","","","","","","","","","","","","","","","","","","","","","","","","","","","","","","","",""
"609","<p style=""color:rgb(150, 250, 100); font-size: 35px;"">自己</p>","e","categorize-html","169","213675","0.0-6.0-1.0-8.0-1.30","2","3","3","2","2","2","2","2","2","2","2","3","2","3","3","2","2","2","2","2","3","4","4","4","5","4","4","2","4","1","0","1","0","0","0","0","1","1","1","1","0","0","0","0","3","4","4","4","3","1","2","3","2","3","3","657683860254883840","SY","686","","","","","","","","","","","","","","","","","","","true","14","4","moral","609","self","自己","","","","","","","","","","","","","","","","",""
"null","","null","html-keyboard-response","170","213926","0.0-6.0-1.0-8.0-0.31","2","3","3","2","2","2","2","2","2","2","2","3","2","3","3","2","2","2","2","2","3","4","4","4","5","4","4","2","4","1","0","1","0","0","0","0","1","1","1","1","0","0","0","0","3","4","4","4","3","1","2","3","2","3","3","657683860254883840","SY","686","","","","","","","","","","","","","","","","","","","","","","","","","","","","","","","","","","","","","","","","","",""
"608","<p style=""color:white; font-size: 35px;"">缺德</p>","e","categorize-html","171","214539","0.0-6.0-1.0-8.0-1.31","2","3","3","2","2","2","2","2","2","2","2","3","2","3","3","2","2","2","2","2","3","4","4","4","5","4","4","2","4","1","0","1","0","0","0","0","1","1","1","1","0","0","0","0","3","4","4","4","3","1","2","3","2","3","3","657683860254883840","SY","686","","","","","","","","","","","","","","","","","","","true","14","4","moral","608","negative","缺德","","","","","","","","","","","","","","","","",""
"null","","null","html-keyboard-response","172","214792","0.0-6.0-1.0-8.0-0.32","2","3","3","2","2","2","2","2","2","2","2","3","2","3","3","2","2","2","2","2","3","4","4","4","5","4","4","2","4","1","0","1","0","0","0","0","1","1","1","1","0","0","0","0","3","4","4","4","3","1","2","3","2","3","3","657683860254883840","SY","686","","","","","","","","","","","","","","","","","","","","","","","","","","","","","","","","","","","","","","","","","",""
"531","<p style=""color:rgb(150, 250, 100); font-size: 35px;"">本人</p>","e","categorize-html","173","215329","0.0-6.0-1.0-8.0-1.32","2","3","3","2","2","2","2","2","2","2","2","3","2","3","3","2","2","2","2","2","3","4","4","4","5","4","4","2","4","1","0","1","0","0","0","0","1","1","1","1","0","0","0","0","3","4","4","4","3","1","2","3","2","3","3","657683860254883840","SY","686","","","","","","","","","","","","","","","","","","","true","14","4","moral","531","self","本人","","","","","","","","","","","","","","","","",""
"null","","null","html-keyboard-response","174","215584","0.0-6.0-1.0-8.0-0.33","2","3","3","2","2","2","2","2","2","2","2","3","2","3","3","2","2","2","2","2","3","4","4","4","5","4","4","2","4","1","0","1","0","0","0","0","1","1","1","1","0","0","0","0","3","4","4","4","3","1","2","3","2","3","3","657683860254883840","SY","686","","","","","","","","","","","","","","","","","","","","","","","","","","","","","","","","","","","","","","","","","",""
"873","<p style=""color:white; font-size: 35px;"">缺德</p>","e","categorize-html","175","216461","0.0-6.0-1.0-8.0-1.33","2","3","3","2","2","2","2","2","2","2","2","3","2","3","3","2","2","2","2","2","3","4","4","4","5","4","4","2","4","1","0","1","0","0","0","0","1","1","1","1","0","0","0","0","3","4","4","4","3","1","2","3","2","3","3","657683860254883840","SY","686","","","","","","","","","","","","","","","","","","","true","14","4","moral","873","negative","缺德","","","","","","","","","","","","","","","","",""
"null","","null","html-keyboard-response","176","216715","0.0-6.0-1.0-8.0-0.34","2","3","3","2","2","2","2","2","2","2","2","3","2","3","3","2","2","2","2","2","3","4","4","4","5","4","4","2","4","1","0","1","0","0","0","0","1","1","1","1","0","0","0","0","3","4","4","4","3","1","2","3","2","3","3","657683860254883840","SY","686","","","","","","","","","","","","","","","","","","","","","","","","","","","","","","","","","","","","","","","","","",""
"694","<p style=""color:rgb(150, 250, 100); font-size: 35px;"">他人</p>","i","categorize-html","177","217416","0.0-6.0-1.0-8.0-1.34","2","3","3","2","2","2","2","2","2","2","2","3","2","3","3","2","2","2","2","2","3","4","4","4","5","4","4","2","4","1","0","1","0","0","0","0","1","1","1","1","0","0","0","0","3","4","4","4","3","1","2","3","2","3","3","657683860254883840","SY","686","","","","","","","","","","","","","","","","","","","true","14","4","moral","694","other","他人","","","","","","","","","","","","","","","","",""
"null","","null","html-keyboard-response","178","217667","0.0-6.0-1.0-8.0-0.35","2","3","3","2","2","2","2","2","2","2","2","3","2","3","3","2","2","2","2","2","3","4","4","4","5","4","4","2","4","1","0","1","0","0","0","0","1","1","1","1","0","0","0","0","3","4","4","4","3","1","2","3","2","3","3","657683860254883840","SY","686","","","","","","","","","","","","","","","","","","","","","","","","","","","","","","","","","","","","","","","","","",""
"743","<p style=""color:white; font-size: 35px;"">善良</p>","i","categorize-html","179","218416","0.0-6.0-1.0-8.0-1.35","2","3","3","2","2","2","2","2","2","2","2","3","2","3","3","2","2","2","2","2","3","4","4","4","5","4","4","2","4","1","0","1","0","0","0","0","1","1","1","1","0","0","0","0","3","4","4","4","3","1","2","3","2","3","3","657683860254883840","SY","686","","","","","","","","","","","","","","","","","","","true","14","4","moral","743","positive","善良","","","","","","","","","","","","","","","","",""
"null","","null","html-keyboard-response","180","218668","0.0-6.0-1.0-8.0-0.36","2","3","3","2","2","2","2","2","2","2","2","3","2","3","3","2","2","2","2","2","3","4","4","4","5","4","4","2","4","1","0","1","0","0","0","0","1","1","1","1","0","0","0","0","3","4","4","4","3","1","2","3","2","3","3","657683860254883840","SY","686","","","","","","","","","","","","","","","","","","","","","","","","","","","","","","","","","","","","","","","","","",""
"712","<p style=""color:rgb(150, 250, 100); font-size: 35px;"">我</p>","e","categorize-html","181","219385","0.0-6.0-1.0-8.0-1.36","2","3","3","2","2","2","2","2","2","2","2","3","2","3","3","2","2","2","2","2","3","4","4","4","5","4","4","2","4","1","0","1","0","0","0","0","1","1","1","1","0","0","0","0","3","4","4","4","3","1","2","3","2","3","3","657683860254883840","SY","686","","","","","","","","","","","","","","","","","","","true","14","4","moral","712","self","我","","","","","","","","","","","","","","","","",""
"null","","null","html-keyboard-response","182","219637","0.0-6.0-1.0-8.0-0.37","2","3","3","2","2","2","2","2","2","2","2","3","2","3","3","2","2","2","2","2","3","4","4","4","5","4","4","2","4","1","0","1","0","0","0","0","1","1","1","1","0","0","0","0","3","4","4","4","3","1","2","3","2","3","3","657683860254883840","SY","686","","","","","","","","","","","","","","","","","","","","","","","","","","","","","","","","","","","","","","","","","",""
"652","<p style=""color:white; font-size: 35px;"">黑心</p>","e","categorize-html","183","220295","0.0-6.0-1.0-8.0-1.37","2","3","3","2","2","2","2","2","2","2","2","3","2","3","3","2","2","2","2","2","3","4","4","4","5","4","4","2","4","1","0","1","0","0","0","0","1","1","1","1","0","0","0","0","3","4","4","4","3","1","2","3","2","3","3","657683860254883840","SY","686","","","","","","","","","","","","","","","","","","","true","14","4","moral","652","negative","黑心","","","","","","","","","","","","","","","","",""
"null","","null","html-keyboard-response","184","220546","0.0-6.0-1.0-8.0-0.38","2","3","3","2","2","2","2","2","2","2","2","3","2","3","3","2","2","2","2","2","3","4","4","4","5","4","4","2","4","1","0","1","0","0","0","0","1","1","1","1","0","0","0","0","3","4","4","4","3","1","2","3","2","3","3","657683860254883840","SY","686","","","","","","","","","","","","","","","","","","","","","","","","","","","","","","","","","","","","","","","","","",""
"657","<p style=""color:rgb(150, 250, 100); font-size: 35px;"">他</p>","i","categorize-html","185","221207","0.0-6.0-1.0-8.0-1.38","2","3","3","2","2","2","2","2","2","2","2","3","2","3","3","2","2","2","2","2","3","4","4","4","5","4","4","2","4","1","0","1","0","0","0","0","1","1","1","1","0","0","0","0","3","4","4","4","3","1","2","3","2","3","3","657683860254883840","SY","686","","","","","","","","","","","","","","","","","","","true","14","4","moral","657","other","他","","","","","","","","","","","","","","","","",""
"null","","null","html-keyboard-response","186","221459","0.0-6.0-1.0-8.0-0.39","2","3","3","2","2","2","2","2","2","2","2","3","2","3","3","2","2","2","2","2","3","4","4","4","5","4","4","2","4","1","0","1","0","0","0","0","1","1","1","1","0","0","0","0","3","4","4","4","3","1","2","3","2","3","3","657683860254883840","SY","686","","","","","","","","","","","","","","","","","","","","","","","","","","","","","","","","","","","","","","","","","",""
"852","<p style=""color:white; font-size: 35px;"">廉正</p>","i","categorize-html","187","222316","0.0-6.0-1.0-8.0-1.39","2","3","3","2","2","2","2","2","2","2","2","3","2","3","3","2","2","2","2","2","3","4","4","4","5","4","4","2","4","1","0","1","0","0","0","0","1","1","1","1","0","0","0","0","3","4","4","4","3","1","2","3","2","3","3","657683860254883840","SY","686","","","","","","","","","","","","","","","","","","","true","14","4","moral","852","positive","廉正","","","","","","","","","","","","","","","","",""
"null","","null","html-keyboard-response","188","222569","0.0-6.0-1.0-8.0-0.40","2","3","3","2","2","2","2","2","2","2","2","3","2","3","3","2","2","2","2","2","3","4","4","4","5","4","4","2","4","1","0","1","0","0","0","0","1","1","1","1","0","0","0","0","3","4","4","4","3","1","2","3","2","3","3","657683860254883840","SY","686","","","","","","","","","","","","","","","","","","","","","","","","","","","","","","","","","","","","","","","","","",""
"550","<p style=""color:rgb(150, 250, 100); font-size: 35px;"">自己的</p>","e","categorize-html","189","223124","0.0-6.0-1.0-8.0-1.40","2","3","3","2","2","2","2","2","2","2","2","3","2","3","3","2","2","2","2","2","3","4","4","4","5","4","4","2","4","1","0","1","0","0","0","0","1","1","1","1","0","0","0","0","3","4","4","4","3","1","2","3","2","3","3","657683860254883840","SY","686","","","","","","","","","","","","","","","","","","","true","14","4","moral","550","self","自己的","","","","","","","","","","","","","","","","",""
"null","","null","html-keyboard-response","190","223376","0.0-6.0-1.0-8.0-0.41","2","3","3","2","2","2","2","2","2","2","2","3","2","3","3","2","2","2","2","2","3","4","4","4","5","4","4","2","4","1","0","1","0","0","0","0","1","1","1","1","0","0","0","0","3","4","4","4","3","1","2","3","2","3","3","657683860254883840","SY","686","","","","","","","","","","","","","","","","","","","","","","","","","","","","","","","","","","","","","","","","","",""
"724","<p style=""color:white; font-size: 35px;"">善良</p>","i","categorize-html","191","224105","0.0-6.0-1.0-8.0-1.41","2","3","3","2","2","2","2","2","2","2","2","3","2","3","3","2","2","2","2","2","3","4","4","4","5","4","4","2","4","1","0","1","0","0","0","0","1","1","1","1","0","0","0","0","3","4","4","4","3","1","2","3","2","3","3","657683860254883840","SY","686","","","","","","","","","","","","","","","","","","","true","14","4","moral","724","positive","善良","","","","","","","","","","","","","","","","",""
"null","","null","html-keyboard-response","192","224357","0.0-6.0-1.0-8.0-0.42","2","3","3","2","2","2","2","2","2","2","2","3","2","3","3","2","2","2","2","2","3","4","4","4","5","4","4","2","4","1","0","1","0","0","0","0","1","1","1","1","0","0","0","0","3","4","4","4","3","1","2","3","2","3","3","657683860254883840","SY","686","","","","","","","","","","","","","","","","","","","","","","","","","","","","","","","","","","","","","","","","","",""
