"rt","stimulus","response","trial_type","trial_index","time_elapsed","internal_node_id","ses_1","ses_2","ses_3","ses_4","ses_5","ses_6","ses_7","ses_8","ses_9","ses_10","coreself_1","coreself_2","coreself_3","coreself_4","coreself_5","coreself_6","coreself_7","coreself_8","coreself_9","coreself_10","SGPS_1","SGPS_2","SGPS_3","SGPS_4","SGPS_5","SGPS_6","SGPS_7","SGPS_8","SGPS_9","NPI1","NPI2","NPI3","NPI4","NPI5","NPI6","NPI7","NPI8","NPI9","NPI10","NPI11","NPI12","NPI13","NPI14","NPI15","hsns_1","hsns_2","hsns_3","hsns_4","hsns_5","trap1","hsns_6","hsns_7","hsns_8","hsns_9","hsns_10","subj_idx","friend_name","ParticipantID","value","success","user_agent","responses","item_order","radio_event_ids","radio_event_times","key_event_times","mouse_event_times","straightlining","zigzagging","honeypot","timeout","failed_images","failed_audio","failed_video","version_attrib2","version_target2","correct","IAT","screen_id","task_id","RT","condition","word","varname","summary","version_attrib","version_target","time_stamp","view_history","response_type","key_press","avg_frame_time","center_x","center_y","correct_response","identity","Image","question_order","correct_answer","trap1_item"
"8775","
   <p><div style = ""color: white;font-size:25px;"">您好，欢迎参加本次实验。</div> </p>
   <p><div style = ""color: white;font-size:25px;"">为充分保障您的权利，请确保您已经知晓并同意《参与实验同意书》以及《数据公开知情同意书》。</div></p>
   <p><div style = ""color: white;font-size:25px;"">如果您未见过上述内容，请咨询实验员。</div></p>
   <p><div style = ""color: white;font-size:25px;"">如果您选择继续实验，则表示您已经清楚两份知情同意书的内容并同意。</div></p>
   <p><div style = ""color: pink;font-size:30px;"">请确保您记得day0的实验编号，您将在本次实验输入该编号，若您忘记，请咨询实验员后作答。</div></p>
   <p><div style = ""color: lightblue;font-size:25px;"">请您尽可能认真地作答，我们将依据您在各问卷和按键任务中的作答质量发放报酬。</div></p>
   <p> <div style = ""color: green;font-size:25px;""><按空格键至下页></div> </p>
   "," ","html-keyboard-response","0","8782","0.0-0.0","3","4","4","4","4","3","4","2","4","4","4","5","5","4","4","5","4","5","5","4","2","2","2","2","2","2","3","2","3","1","0","1","1","0","1","1","1","1","0","0","0","1","0","1","4","2","3","2","2","1","2","4","4","3","3","775504684868964354","黄","416","","","","","","","","","","","","","","","","","","","","","","","","","","","","","","","","","","","","","","","","","",""
"","","","call-function","1","8788","0.0-1.0-0.0","3","4","4","4","4","3","4","2","4","4","4","5","5","4","4","5","4","5","5","4","2","2","2","2","2","2","3","2","3","1","0","1","1","0","1","1","1","1","0","0","0","1","0","1","4","2","3","2","2","1","2","4","4","3","3","775504684868964354","黄","416","","","","","","","","","","","","","","","","","","","","","","","","","","","","","","","","","","","","","","","","","",""
"17347","","{""friend_name"":""黄"",""ParticipantID"":""416""}","survey-html-form","2","26137","0.0-1.0-1.0","3","4","4","4","4","3","4","2","4","4","4","5","5","4","4","5","4","5","5","4","2","2","2","2","2","2","3","2","3","1","0","1","1","0","1","1","1","1","0","0","0","1","0","1","4","2","3","2","2","1","2","4","4","3","3","775504684868964354","黄","416","","","","","","","","","","","","","","","","","","","","","","","","","","","","","","","","","","","","","","","","","",""
"","","","fullscreen","3","49186","0.0-2.0","3","4","4","4","4","3","4","2","4","4","4","5","5","4","4","5","4","5","5","4","2","2","2","2","2","2","3","2","3","1","0","1","1","0","1","1","1","1","0","0","0","1","0","1","4","2","3","2","2","1","2","4","4","3","3","775504684868964354","黄","416","","true","{}","","","","","","","","","","","","","","","","","","","","","","","","","","","","","","","","","","","","","","",""
"21938.899999976158","","{""Q01"":""3"",""Q02"":""4"",""Q03"":""4"",""Q04"":""4"",""Q05"":""4"",""Q06"":""3"",""Q07"":""4"",""Q08"":""2"",""Q09"":""4"",""Q10"":""4""}","survey-template","4","71132","0.0-3.0","3","4","4","4","4","3","4","2","4","4","4","5","5","4","4","5","4","5","5","4","2","2","2","2","2","2","3","2","3","1","0","1","1","0","1","1","1","1","0","0","0","1","0","1","4","2","3","2","2","1","2","4","4","3","3","775504684868964354","黄","416","","","","{""Q01"":""3"",""Q02"":""4"",""Q03"":""4"",""Q04"":""4"",""Q05"":""4"",""Q06"":""3"",""Q07"":""4"",""Q08"":""2"",""Q09"":""4"",""Q10"":""4""}","[0,1,2,3,4,5,6,7,8,9]","[""Q01"",""Q02"",""Q03"",""Q04"",""Q05"",""Q06"",""Q07"",""Q08"",""Q08"",""Q08"",""Q09"",""Q10""]","[5655.699999988079,6663.5999999940395,8096.699999988079,9633.199999988079,11567.59999999404,12680.5,14096.199999988079,15464.299999982119,17889.09999999404,19296.09999999404,20497.19999998808,21079.399999976158]","[]","[5655.699999988079,6663.5999999940395,8096.699999988079,9633.199999988079,11567.59999999404,12680.5,14096.199999988079,15464.299999982119,17889.09999999404,19296.09999999404,20497.19999998808,21079.399999976158,21936.29999998212]","0.4","0.6666666666666666","0","","","","","","","","","","","","","","","","","","","","","","","","","","","","","",""
"18913.79999998212","","{""Q01"":""4"",""Q02"":""5"",""Q03"":""5"",""Q04"":""4"",""Q05"":""4"",""Q06"":""5"",""Q07"":""4"",""Q08"":""5"",""Q09"":""5"",""Q10"":""4""}","survey-template","5","90060","0.0-4.0","3","4","4","4","4","3","4","2","4","4","4","5","5","4","4","5","4","5","5","4","2","2","2","2","2","2","3","2","3","1","0","1","1","0","1","1","1","1","0","0","0","1","0","1","4","2","3","2","2","1","2","4","4","3","3","775504684868964354","黄","416","","","","{""Q01"":""4"",""Q02"":""5"",""Q03"":""5"",""Q04"":""4"",""Q05"":""4"",""Q06"":""5"",""Q07"":""4"",""Q08"":""5"",""Q09"":""5"",""Q10"":""4""}","[0,1,2,3,4,5,6,7,8,9]","[""Q01"",""Q02"",""Q03"",""Q04"",""Q05"",""Q06"",""Q07"",""Q09"",""Q10"",""Q08""]","[2006.699999988079,3480.0999999940395,4422.5,5864.0999999940395,7550.9000000059605,9024.199999988079,10383,13632,14519.199999988079,17766.79999998212]","[]","[2006.699999988079,3480.0999999940395,4422.5,5864.0999999940395,7550.9000000059605,9024.199999988079,10383,12055.40000000596,13632,14519.199999988079,15151.199999988079,17766.79999998212,18911.19999998808]","0.3","0.2222222222222222","0","","","","","","","","","","","","","","","","","","","","","","","","","","","","","",""
"","","","preload","6","90686","0.0-5.0","3","4","4","4","4","3","4","2","4","4","4","5","5","4","4","5","4","5","5","4","2","2","2","2","2","2","3","2","3","1","0","1","1","0","1","1","1","1","0","0","0","1","0","1","4","2","3","2","2","1","2","4","4","3","3","775504684868964354","黄","416","","true","","","","","","","","","","","false","[]","[]","[]","","","","","","","","","","","","","","","","","","","","","","","","","",""
"10942","
    <h3>词语分类任务</h3>
    <p>在接下来的任务中，你需要对一系列词语进行分类。<p/>
    请先熟悉这些词语，这有利于你完成接下来的任务。</p>
    <table align=""center"" border=1 cellpadding=3 cellspacing=0>
    <tr> <th>类别</th> <th>词语</th> </tr>
    <tr> <td>&emsp;积极&emsp;</td> <td>&emsp;高尚、诚信、善良、君子、廉正、正直&emsp;</td> </tr>
    <tr> <td>&emsp;消极&emsp;</td> <td>&emsp;缺德、卑鄙、不孝、不仁、小人、黑心&emsp;</td> </tr>
    <tr> <td>&emsp;自我&emsp;</td> <td>&emsp;我、我的、自己、自己的、本人、本人的&emsp;</td> </tr>
    <tr> <td>&emsp;他人&emsp;</td> <td>&emsp;他、他的、别人、别人的、他人、他人的&emsp;</td> </tr>
    </table><br/>","0","html-button-response","7","101634","0.0-6.0-1.0-0.0","3","4","4","4","4","3","4","2","4","4","4","5","5","4","4","5","4","5","5","4","2","2","2","2","2","2","3","2","3","1","0","1","1","0","1","1","1","1","0","0","0","1","0","1","4","2","3","2","2","1","2","4","4","3","3","775504684868964354","黄","416","","","","","","","","","","","","","","","","","2","1","","","","","","","","","","","","","","","","","","","","","","","",""
"14391","
    <div class=""tag-bottom""><p>
    —— 任务1：对“自我”词和“他人”词分类 ——<p/>
    不同词语会出现在屏幕中央，类别标签将始终显示在屏幕上方<p/>   
    <span style=""color:#FFD866""><b>请根据上方标签的提示，尽可能正确并且快速地做出按键反应</b></span><p/>
    当按键错误时屏幕中会出现<span style=""color:red""> X </span>，需要按另一个键纠正才能继续<br/><p/>
    请把双手食指分别放在键盘的“E”键和“I”键上<p/>
    按<空格键>开始
    </p></div>"," ","html-keyboard-response","8","116033","0.0-6.0-1.0-1.0","3","4","4","4","4","3","4","2","4","4","4","5","5","4","4","5","4","5","5","4","2","2","2","2","2","2","3","2","3","1","0","1","1","0","1","1","1","1","0","0","0","1","0","1","4","2","3","2","2","1","2","4","4","3","3","775504684868964354","黄","416","","","","","","","","","","","","","","","","","","","","","","","","","","","","","","","","","","","","","","","","","",""
"null","","null","html-keyboard-response","9","116293","0.0-6.0-1.0-2.0-0.0","3","4","4","4","4","3","4","2","4","4","4","5","5","4","4","5","4","5","5","4","2","2","2","2","2","2","3","2","3","1","0","1","1","0","1","1","1","1","0","0","0","1","0","1","4","2","3","2","2","1","2","4","4","3","3","775504684868964354","黄","416","","","","","","","","","","","","","","","","","","","","","","","","","","","","","","","","","","","","","","","","","",""
"830","<p style=""color:rgb(150, 250, 100); font-size: 35px;"">自己</p>","e","categorize-html","10","117133","0.0-6.0-1.0-2.0-1.0","3","4","4","4","4","3","4","2","4","4","4","5","5","4","4","5","4","5","5","4","2","2","2","2","2","2","3","2","3","1","0","1","1","0","1","1","1","1","0","0","0","1","0","1","4","2","3","2","2","1","2","4","4","3","3","775504684868964354","黄","416","","","","","","","","","","","","","","","","","","","true","11","1","moral","830","self","自己","","","","","","","","","","","","","","","","",""
"null","","null","html-keyboard-response","11","117401","0.0-6.0-1.0-2.0-0.1","3","4","4","4","4","3","4","2","4","4","4","5","5","4","4","5","4","5","5","4","2","2","2","2","2","2","3","2","3","1","0","1","1","0","1","1","1","1","0","0","0","1","0","1","4","2","3","2","2","1","2","4","4","3","3","775504684868964354","黄","416","","","","","","","","","","","","","","","","","","","","","","","","","","","","","","","","","","","","","","","","","",""
"3549","<p style=""color:rgb(150, 250, 100); font-size: 35px;"">他的</p>","i","categorize-html","12","120956","0.0-6.0-1.0-2.0-1.1","3","4","4","4","4","3","4","2","4","4","4","5","5","4","4","5","4","5","5","4","2","2","2","2","2","2","3","2","3","1","0","1","1","0","1","1","1","1","0","0","0","1","0","1","4","2","3","2","2","1","2","4","4","3","3","775504684868964354","黄","416","","","","","","","","","","","","","","","","","","","true","11","1","moral","3549","other","他的","","","","","","","","","","","","","","","","",""
"null","","null","html-keyboard-response","13","121221","0.0-6.0-1.0-2.0-0.2","3","4","4","4","4","3","4","2","4","4","4","5","5","4","4","5","4","5","5","4","2","2","2","2","2","2","3","2","3","1","0","1","1","0","1","1","1","1","0","0","0","1","0","1","4","2","3","2","2","1","2","4","4","3","3","775504684868964354","黄","416","","","","","","","","","","","","","","","","","","","","","","","","","","","","","","","","","","","","","","","","","",""
"978","<p style=""color:rgb(150, 250, 100); font-size: 35px;"">我</p>","e","categorize-html","14","122204","0.0-6.0-1.0-2.0-1.2","3","4","4","4","4","3","4","2","4","4","4","5","5","4","4","5","4","5","5","4","2","2","2","2","2","2","3","2","3","1","0","1","1","0","1","1","1","1","0","0","0","1","0","1","4","2","3","2","2","1","2","4","4","3","3","775504684868964354","黄","416","","","","","","","","","","","","","","","","","","","true","11","1","moral","978","self","我","","","","","","","","","","","","","","","","",""
"null","","null","html-keyboard-response","15","122464","0.0-6.0-1.0-2.0-0.3","3","4","4","4","4","3","4","2","4","4","4","5","5","4","4","5","4","5","5","4","2","2","2","2","2","2","3","2","3","1","0","1","1","0","1","1","1","1","0","0","0","1","0","1","4","2","3","2","2","1","2","4","4","3","3","775504684868964354","黄","416","","","","","","","","","","","","","","","","","","","","","","","","","","","","","","","","","","","","","","","","","",""
"760","<p style=""color:rgb(150, 250, 100); font-size: 35px;"">自己的</p>","e","categorize-html","16","123231","0.0-6.0-1.0-2.0-1.3","3","4","4","4","4","3","4","2","4","4","4","5","5","4","4","5","4","5","5","4","2","2","2","2","2","2","3","2","3","1","0","1","1","0","1","1","1","1","0","0","0","1","0","1","4","2","3","2","2","1","2","4","4","3","3","775504684868964354","黄","416","","","","","","","","","","","","","","","","","","","true","11","1","moral","760","self","自己的","","","","","","","","","","","","","","","","",""
"null","","null","html-keyboard-response","17","123496","0.0-6.0-1.0-2.0-0.4","3","4","4","4","4","3","4","2","4","4","4","5","5","4","4","5","4","5","5","4","2","2","2","2","2","2","3","2","3","1","0","1","1","0","1","1","1","1","0","0","0","1","0","1","4","2","3","2","2","1","2","4","4","3","3","775504684868964354","黄","416","","","","","","","","","","","","","","","","","","","","","","","","","","","","","","","","","","","","","","","","","",""
"672","<p style=""color:rgb(150, 250, 100); font-size: 35px;"">本人</p>","e","categorize-html","18","124174","0.0-6.0-1.0-2.0-1.4","3","4","4","4","4","3","4","2","4","4","4","5","5","4","4","5","4","5","5","4","2","2","2","2","2","2","3","2","3","1","0","1","1","0","1","1","1","1","0","0","0","1","0","1","4","2","3","2","2","1","2","4","4","3","3","775504684868964354","黄","416","","","","","","","","","","","","","","","","","","","true","11","1","moral","672","self","本人","","","","","","","","","","","","","","","","",""
"null","","null","html-keyboard-response","19","124444","0.0-6.0-1.0-2.0-0.5","3","4","4","4","4","3","4","2","4","4","4","5","5","4","4","5","4","5","5","4","2","2","2","2","2","2","3","2","3","1","0","1","1","0","1","1","1","1","0","0","0","1","0","1","4","2","3","2","2","1","2","4","4","3","3","775504684868964354","黄","416","","","","","","","","","","","","","","","","","","","","","","","","","","","","","","","","","","","","","","","","","",""
"513","<p style=""color:rgb(150, 250, 100); font-size: 35px;"">他</p>","i","categorize-html","20","124962","0.0-6.0-1.0-2.0-1.5","3","4","4","4","4","3","4","2","4","4","4","5","5","4","4","5","4","5","5","4","2","2","2","2","2","2","3","2","3","1","0","1","1","0","1","1","1","1","0","0","0","1","0","1","4","2","3","2","2","1","2","4","4","3","3","775504684868964354","黄","416","","","","","","","","","","","","","","","","","","","true","11","1","moral","513","other","他","","","","","","","","","","","","","","","","",""
"null","","null","html-keyboard-response","21","125225","0.0-6.0-1.0-2.0-0.6","3","4","4","4","4","3","4","2","4","4","4","5","5","4","4","5","4","5","5","4","2","2","2","2","2","2","3","2","3","1","0","1","1","0","1","1","1","1","0","0","0","1","0","1","4","2","3","2","2","1","2","4","4","3","3","775504684868964354","黄","416","","","","","","","","","","","","","","","","","","","","","","","","","","","","","","","","","","","","","","","","","",""
"877","<p style=""color:rgb(150, 250, 100); font-size: 35px;"">别人的</p>","i","categorize-html","22","126108","0.0-6.0-1.0-2.0-1.6","3","4","4","4","4","3","4","2","4","4","4","5","5","4","4","5","4","5","5","4","2","2","2","2","2","2","3","2","3","1","0","1","1","0","1","1","1","1","0","0","0","1","0","1","4","2","3","2","2","1","2","4","4","3","3","775504684868964354","黄","416","","","","","","","","","","","","","","","","","","","true","11","1","moral","877","other","别人的","","","","","","","","","","","","","","","","",""
"null","","null","html-keyboard-response","23","126366","0.0-6.0-1.0-2.0-0.7","3","4","4","4","4","3","4","2","4","4","4","5","5","4","4","5","4","5","5","4","2","2","2","2","2","2","3","2","3","1","0","1","1","0","1","1","1","1","0","0","0","1","0","1","4","2","3","2","2","1","2","4","4","3","3","775504684868964354","黄","416","","","","","","","","","","","","","","","","","","","","","","","","","","","","","","","","","","","","","","","","","",""
"503","<p style=""color:rgb(150, 250, 100); font-size: 35px;"">我的</p>","e","categorize-html","24","126875","0.0-6.0-1.0-2.0-1.7","3","4","4","4","4","3","4","2","4","4","4","5","5","4","4","5","4","5","5","4","2","2","2","2","2","2","3","2","3","1","0","1","1","0","1","1","1","1","0","0","0","1","0","1","4","2","3","2","2","1","2","4","4","3","3","775504684868964354","黄","416","","","","","","","","","","","","","","","","","","","true","11","1","moral","503","self","我的","","","","","","","","","","","","","","","","",""
"null","","null","html-keyboard-response","25","127138","0.0-6.0-1.0-2.0-0.8","3","4","4","4","4","3","4","2","4","4","4","5","5","4","4","5","4","5","5","4","2","2","2","2","2","2","3","2","3","1","0","1","1","0","1","1","1","1","0","0","0","1","0","1","4","2","3","2","2","1","2","4","4","3","3","775504684868964354","黄","416","","","","","","","","","","","","","","","","","","","","","","","","","","","","","","","","","","","","","","","","","",""
"542","<p style=""color:rgb(150, 250, 100); font-size: 35px;"">别人</p>","i","categorize-html","26","127687","0.0-6.0-1.0-2.0-1.8","3","4","4","4","4","3","4","2","4","4","4","5","5","4","4","5","4","5","5","4","2","2","2","2","2","2","3","2","3","1","0","1","1","0","1","1","1","1","0","0","0","1","0","1","4","2","3","2","2","1","2","4","4","3","3","775504684868964354","黄","416","","","","","","","","","","","","","","","","","","","true","11","1","moral","542","other","别人","","","","","","","","","","","","","","","","",""
"null","","null","html-keyboard-response","27","127944","0.0-6.0-1.0-2.0-0.9","3","4","4","4","4","3","4","2","4","4","4","5","5","4","4","5","4","5","5","4","2","2","2","2","2","2","3","2","3","1","0","1","1","0","1","1","1","1","0","0","0","1","0","1","4","2","3","2","2","1","2","4","4","3","3","775504684868964354","黄","416","","","","","","","","","","","","","","","","","","","","","","","","","","","","","","","","","","","","","","","","","",""
"583","<p style=""color:rgb(150, 250, 100); font-size: 35px;"">本人的</p>","e","categorize-html","28","128533","0.0-6.0-1.0-2.0-1.9","3","4","4","4","4","3","4","2","4","4","4","5","5","4","4","5","4","5","5","4","2","2","2","2","2","2","3","2","3","1","0","1","1","0","1","1","1","1","0","0","0","1","0","1","4","2","3","2","2","1","2","4","4","3","3","775504684868964354","黄","416","","","","","","","","","","","","","","","","","","","true","11","1","moral","583","self","本人的","","","","","","","","","","","","","","","","",""
"null","","null","html-keyboard-response","29","128788","0.0-6.0-1.0-2.0-0.10","3","4","4","4","4","3","4","2","4","4","4","5","5","4","4","5","4","5","5","4","2","2","2","2","2","2","3","2","3","1","0","1","1","0","1","1","1","1","0","0","0","1","0","1","4","2","3","2","2","1","2","4","4","3","3","775504684868964354","黄","416","","","","","","","","","","","","","","","","","","","","","","","","","","","","","","","","","","","","","","","","","",""
"483","<p style=""color:rgb(150, 250, 100); font-size: 35px;"">他人的</p>","i","categorize-html","30","129277","0.0-6.0-1.0-2.0-1.10","3","4","4","4","4","3","4","2","4","4","4","5","5","4","4","5","4","5","5","4","2","2","2","2","2","2","3","2","3","1","0","1","1","0","1","1","1","1","0","0","0","1","0","1","4","2","3","2","2","1","2","4","4","3","3","775504684868964354","黄","416","","","","","","","","","","","","","","","","","","","true","11","1","moral","483","other","他人的","","","","","","","","","","","","","","","","",""
"null","","null","html-keyboard-response","31","129536","0.0-6.0-1.0-2.0-0.11","3","4","4","4","4","3","4","2","4","4","4","5","5","4","4","5","4","5","5","4","2","2","2","2","2","2","3","2","3","1","0","1","1","0","1","1","1","1","0","0","0","1","0","1","4","2","3","2","2","1","2","4","4","3","3","775504684868964354","黄","416","","","","","","","","","","","","","","","","","","","","","","","","","","","","","","","","","","","","","","","","","",""
"520","<p style=""color:rgb(150, 250, 100); font-size: 35px;"">他人</p>","i","categorize-html","32","130062","0.0-6.0-1.0-2.0-1.11","3","4","4","4","4","3","4","2","4","4","4","5","5","4","4","5","4","5","5","4","2","2","2","2","2","2","3","2","3","1","0","1","1","0","1","1","1","1","0","0","0","1","0","1","4","2","3","2","2","1","2","4","4","3","3","775504684868964354","黄","416","","","","","","","","","","","","","","","","","","","true","11","1","moral","520","other","他人","","","","","","","","","","","","","","","","",""
"2740","
    <div class=""tag-bottom""><p>
    —— 任务2：对“消极”词和“积极”词分类 ——<p/>   
    <span style=""color:#78DCE8""><b>注意上方，类别标签和需要分类的词语都已经改变</b></span><p/>
    <span style=""color:#FFD866""><b>请根据上方标签的提示，尽可能正确并且快速地做出按键反应</b></span><p/>
    当按键错误时屏幕中会出现<span style=""color:red""> X </span>，需要按另一个键纠正才能继续<br/><p/>
    请把双手食指分别放在键盘的“E”键和“I”键上<p/>
    按<空格键>开始
    </p></div>"," ","html-keyboard-response","33","132803","0.0-6.0-1.0-3.0","3","4","4","4","4","3","4","2","4","4","4","5","5","4","4","5","4","5","5","4","2","2","2","2","2","2","3","2","3","1","0","1","1","0","1","1","1","1","0","0","0","1","0","1","4","2","3","2","2","1","2","4","4","3","3","775504684868964354","黄","416","","","","","","","","","","","","","","","","","","","","","","","","","","","","","","","","","","","","","","","","","",""
"null","","null","html-keyboard-response","34","133061","0.0-6.0-1.0-4.0-0.0","3","4","4","4","4","3","4","2","4","4","4","5","5","4","4","5","4","5","5","4","2","2","2","2","2","2","3","2","3","1","0","1","1","0","1","1","1","1","0","0","0","1","0","1","4","2","3","2","2","1","2","4","4","3","3","775504684868964354","黄","416","","","","","","","","","","","","","","","","","","","","","","","","","","","","","","","","","","","","","","","","","",""
"827","<p style=""color:white; font-size: 35px;"">善良</p>","e","categorize-html","35","134677","0.0-6.0-1.0-4.0-1.0","3","4","4","4","4","3","4","2","4","4","4","5","5","4","4","5","4","5","5","4","2","2","2","2","2","2","3","2","3","1","0","1","1","0","1","1","1","1","0","0","0","1","0","1","4","2","3","2","2","1","2","4","4","3","3","775504684868964354","黄","416","","","","","","","","","","","","","","","","","","","false","12","2","moral","827","positive","善良","","","","","","","","","","","","","","","","",""
"null","","null","html-keyboard-response","36","134941","0.0-6.0-1.0-4.0-0.1","3","4","4","4","4","3","4","2","4","4","4","5","5","4","4","5","4","5","5","4","2","2","2","2","2","2","3","2","3","1","0","1","1","0","1","1","1","1","0","0","0","1","0","1","4","2","3","2","2","1","2","4","4","3","3","775504684868964354","黄","416","","","","","","","","","","","","","","","","","","","","","","","","","","","","","","","","","","","","","","","","","",""
"1217","<p style=""color:white; font-size: 35px;"">君子</p>","i","categorize-html","37","136164","0.0-6.0-1.0-4.0-1.1","3","4","4","4","4","3","4","2","4","4","4","5","5","4","4","5","4","5","5","4","2","2","2","2","2","2","3","2","3","1","0","1","1","0","1","1","1","1","0","0","0","1","0","1","4","2","3","2","2","1","2","4","4","3","3","775504684868964354","黄","416","","","","","","","","","","","","","","","","","","","true","12","2","moral","1217","positive","君子","","","","","","","","","","","","","","","","",""
"null","","null","html-keyboard-response","38","136431","0.0-6.0-1.0-4.0-0.2","3","4","4","4","4","3","4","2","4","4","4","5","5","4","4","5","4","5","5","4","2","2","2","2","2","2","3","2","3","1","0","1","1","0","1","1","1","1","0","0","0","1","0","1","4","2","3","2","2","1","2","4","4","3","3","775504684868964354","黄","416","","","","","","","","","","","","","","","","","","","","","","","","","","","","","","","","","","","","","","","","","",""
"625","<p style=""color:white; font-size: 35px;"">正直</p>","i","categorize-html","39","137062","0.0-6.0-1.0-4.0-1.2","3","4","4","4","4","3","4","2","4","4","4","5","5","4","4","5","4","5","5","4","2","2","2","2","2","2","3","2","3","1","0","1","1","0","1","1","1","1","0","0","0","1","0","1","4","2","3","2","2","1","2","4","4","3","3","775504684868964354","黄","416","","","","","","","","","","","","","","","","","","","true","12","2","moral","625","positive","正直","","","","","","","","","","","","","","","","",""
"null","","null","html-keyboard-response","40","137319","0.0-6.0-1.0-4.0-0.3","3","4","4","4","4","3","4","2","4","4","4","5","5","4","4","5","4","5","5","4","2","2","2","2","2","2","3","2","3","1","0","1","1","0","1","1","1","1","0","0","0","1","0","1","4","2","3","2","2","1","2","4","4","3","3","775504684868964354","黄","416","","","","","","","","","","","","","","","","","","","","","","","","","","","","","","","","","","","","","","","","","",""
"654","<p style=""color:white; font-size: 35px;"">小人</p>","e","categorize-html","41","137979","0.0-6.0-1.0-4.0-1.3","3","4","4","4","4","3","4","2","4","4","4","5","5","4","4","5","4","5","5","4","2","2","2","2","2","2","3","2","3","1","0","1","1","0","1","1","1","1","0","0","0","1","0","1","4","2","3","2","2","1","2","4","4","3","3","775504684868964354","黄","416","","","","","","","","","","","","","","","","","","","true","12","2","moral","654","negative","小人","","","","","","","","","","","","","","","","",""
"null","","null","html-keyboard-response","42","138232","0.0-6.0-1.0-4.0-0.4","3","4","4","4","4","3","4","2","4","4","4","5","5","4","4","5","4","5","5","4","2","2","2","2","2","2","3","2","3","1","0","1","1","0","1","1","1","1","0","0","0","1","0","1","4","2","3","2","2","1","2","4","4","3","3","775504684868964354","黄","416","","","","","","","","","","","","","","","","","","","","","","","","","","","","","","","","","","","","","","","","","",""
"704","<p style=""color:white; font-size: 35px;"">不仁</p>","e","categorize-html","43","138942","0.0-6.0-1.0-4.0-1.4","3","4","4","4","4","3","4","2","4","4","4","5","5","4","4","5","4","5","5","4","2","2","2","2","2","2","3","2","3","1","0","1","1","0","1","1","1","1","0","0","0","1","0","1","4","2","3","2","2","1","2","4","4","3","3","775504684868964354","黄","416","","","","","","","","","","","","","","","","","","","true","12","2","moral","704","negative","不仁","","","","","","","","","","","","","","","","",""
"null","","null","html-keyboard-response","44","139212","0.0-6.0-1.0-4.0-0.5","3","4","4","4","4","3","4","2","4","4","4","5","5","4","4","5","4","5","5","4","2","2","2","2","2","2","3","2","3","1","0","1","1","0","1","1","1","1","0","0","0","1","0","1","4","2","3","2","2","1","2","4","4","3","3","775504684868964354","黄","416","","","","","","","","","","","","","","","","","","","","","","","","","","","","","","","","","","","","","","","","","",""
"636","<p style=""color:white; font-size: 35px;"">不孝</p>","e","categorize-html","45","139854","0.0-6.0-1.0-4.0-1.5","3","4","4","4","4","3","4","2","4","4","4","5","5","4","4","5","4","5","5","4","2","2","2","2","2","2","3","2","3","1","0","1","1","0","1","1","1","1","0","0","0","1","0","1","4","2","3","2","2","1","2","4","4","3","3","775504684868964354","黄","416","","","","","","","","","","","","","","","","","","","true","12","2","moral","636","negative","不孝","","","","","","","","","","","","","","","","",""
"null","","null","html-keyboard-response","46","140112","0.0-6.0-1.0-4.0-0.6","3","4","4","4","4","3","4","2","4","4","4","5","5","4","4","5","4","5","5","4","2","2","2","2","2","2","3","2","3","1","0","1","1","0","1","1","1","1","0","0","0","1","0","1","4","2","3","2","2","1","2","4","4","3","3","775504684868964354","黄","416","","","","","","","","","","","","","","","","","","","","","","","","","","","","","","","","","","","","","","","","","",""
"501","<p style=""color:white; font-size: 35px;"">诚信</p>","i","categorize-html","47","140619","0.0-6.0-1.0-4.0-1.6","3","4","4","4","4","3","4","2","4","4","4","5","5","4","4","5","4","5","5","4","2","2","2","2","2","2","3","2","3","1","0","1","1","0","1","1","1","1","0","0","0","1","0","1","4","2","3","2","2","1","2","4","4","3","3","775504684868964354","黄","416","","","","","","","","","","","","","","","","","","","true","12","2","moral","501","positive","诚信","","","","","","","","","","","","","","","","",""
"null","","null","html-keyboard-response","48","140881","0.0-6.0-1.0-4.0-0.7","3","4","4","4","4","3","4","2","4","4","4","5","5","4","4","5","4","5","5","4","2","2","2","2","2","2","3","2","3","1","0","1","1","0","1","1","1","1","0","0","0","1","0","1","4","2","3","2","2","1","2","4","4","3","3","775504684868964354","黄","416","","","","","","","","","","","","","","","","","","","","","","","","","","","","","","","","","","","","","","","","","",""
"599","<p style=""color:white; font-size: 35px;"">黑心</p>","e","categorize-html","49","141486","0.0-6.0-1.0-4.0-1.7","3","4","4","4","4","3","4","2","4","4","4","5","5","4","4","5","4","5","5","4","2","2","2","2","2","2","3","2","3","1","0","1","1","0","1","1","1","1","0","0","0","1","0","1","4","2","3","2","2","1","2","4","4","3","3","775504684868964354","黄","416","","","","","","","","","","","","","","","","","","","true","12","2","moral","599","negative","黑心","","","","","","","","","","","","","","","","",""
"null","","null","html-keyboard-response","50","141753","0.0-6.0-1.0-4.0-0.8","3","4","4","4","4","3","4","2","4","4","4","5","5","4","4","5","4","5","5","4","2","2","2","2","2","2","3","2","3","1","0","1","1","0","1","1","1","1","0","0","0","1","0","1","4","2","3","2","2","1","2","4","4","3","3","775504684868964354","黄","416","","","","","","","","","","","","","","","","","","","","","","","","","","","","","","","","","","","","","","","","","",""
"575","<p style=""color:white; font-size: 35px;"">高尚</p>","i","categorize-html","51","142333","0.0-6.0-1.0-4.0-1.8","3","4","4","4","4","3","4","2","4","4","4","5","5","4","4","5","4","5","5","4","2","2","2","2","2","2","3","2","3","1","0","1","1","0","1","1","1","1","0","0","0","1","0","1","4","2","3","2","2","1","2","4","4","3","3","775504684868964354","黄","416","","","","","","","","","","","","","","","","","","","true","12","2","moral","575","positive","高尚","","","","","","","","","","","","","","","","",""
"null","","null","html-keyboard-response","52","142594","0.0-6.0-1.0-4.0-0.9","3","4","4","4","4","3","4","2","4","4","4","5","5","4","4","5","4","5","5","4","2","2","2","2","2","2","3","2","3","1","0","1","1","0","1","1","1","1","0","0","0","1","0","1","4","2","3","2","2","1","2","4","4","3","3","775504684868964354","黄","416","","","","","","","","","","","","","","","","","","","","","","","","","","","","","","","","","","","","","","","","","",""
"460","<p style=""color:white; font-size: 35px;"">廉正</p>","i","categorize-html","53","143059","0.0-6.0-1.0-4.0-1.9","3","4","4","4","4","3","4","2","4","4","4","5","5","4","4","5","4","5","5","4","2","2","2","2","2","2","3","2","3","1","0","1","1","0","1","1","1","1","0","0","0","1","0","1","4","2","3","2","2","1","2","4","4","3","3","775504684868964354","黄","416","","","","","","","","","","","","","","","","","","","true","12","2","moral","460","positive","廉正","","","","","","","","","","","","","","","","",""
"null","","null","html-keyboard-response","54","143317","0.0-6.0-1.0-4.0-0.10","3","4","4","4","4","3","4","2","4","4","4","5","5","4","4","5","4","5","5","4","2","2","2","2","2","2","3","2","3","1","0","1","1","0","1","1","1","1","0","0","0","1","0","1","4","2","3","2","2","1","2","4","4","3","3","775504684868964354","黄","416","","","","","","","","","","","","","","","","","","","","","","","","","","","","","","","","","","","","","","","","","",""
"664","<p style=""color:white; font-size: 35px;"">卑鄙</p>","e","categorize-html","55","143987","0.0-6.0-1.0-4.0-1.10","3","4","4","4","4","3","4","2","4","4","4","5","5","4","4","5","4","5","5","4","2","2","2","2","2","2","3","2","3","1","0","1","1","0","1","1","1","1","0","0","0","1","0","1","4","2","3","2","2","1","2","4","4","3","3","775504684868964354","黄","416","","","","","","","","","","","","","","","","","","","true","12","2","moral","664","negative","卑鄙","","","","","","","","","","","","","","","","",""
"null","","null","html-keyboard-response","56","144248","0.0-6.0-1.0-4.0-0.11","3","4","4","4","4","3","4","2","4","4","4","5","5","4","4","5","4","5","5","4","2","2","2","2","2","2","3","2","3","1","0","1","1","0","1","1","1","1","0","0","0","1","0","1","4","2","3","2","2","1","2","4","4","3","3","775504684868964354","黄","416","","","","","","","","","","","","","","","","","","","","","","","","","","","","","","","","","","","","","","","","","",""
"610","<p style=""color:white; font-size: 35px;"">缺德</p>","e","categorize-html","57","144864","0.0-6.0-1.0-4.0-1.11","3","4","4","4","4","3","4","2","4","4","4","5","5","4","4","5","4","5","5","4","2","2","2","2","2","2","3","2","3","1","0","1","1","0","1","1","1","1","0","0","0","1","0","1","4","2","3","2","2","1","2","4","4","3","3","775504684868964354","黄","416","","","","","","","","","","","","","","","","","","","true","12","2","moral","610","negative","缺德","","","","","","","","","","","","","","","","",""
"5146","
    <div class=""tag-bottom""><p>
    —— 任务3：对“自我/消极”词和“他人/积极”词分类 ——<p/>
    <span style=""color:#78DCE8""><b>注意上方，之前的四类词语将混合在一起交替呈现</b></span><p/>
    <span style=""color:#FFD866""><b>请根据上方标签的提示，尽可能正确并且快速地做出按键反应</b></span><p/>
    当按键错误时屏幕中会出现<span style=""color:red""> X </span>，需要按另一个键纠正才能继续<br/><p/>
    请把双手食指分别放在键盘的“E”键和“I”键上<p/>
    按<空格键>开始
    </p></div>"," ","html-keyboard-response","58","150011","0.0-6.0-1.0-5.0","3","4","4","4","4","3","4","2","4","4","4","5","5","4","4","5","4","5","5","4","2","2","2","2","2","2","3","2","3","1","0","1","1","0","1","1","1","1","0","0","0","1","0","1","4","2","3","2","2","1","2","4","4","3","3","775504684868964354","黄","416","","","","","","","","","","","","","","","","","","","","","","","","","","","","","","","","","","","","","","","","","",""
"null","","null","html-keyboard-response","59","150267","0.0-6.0-1.0-6.0-0.0","3","4","4","4","4","3","4","2","4","4","4","5","5","4","4","5","4","5","5","4","2","2","2","2","2","2","3","2","3","1","0","1","1","0","1","1","1","1","0","0","0","1","0","1","4","2","3","2","2","1","2","4","4","3","3","775504684868964354","黄","416","","","","","","","","","","","","","","","","","","","","","","","","","","","","","","","","","","","","","","","","","",""
"1383","<p style=""color:rgb(150, 250, 100); font-size: 35px;"">我的</p>","e","categorize-html","60","151658","0.0-6.0-1.0-6.0-1.0","3","4","4","4","4","3","4","2","4","4","4","5","5","4","4","5","4","5","5","4","2","2","2","2","2","2","3","2","3","1","0","1","1","0","1","1","1","1","0","0","0","1","0","1","4","2","3","2","2","1","2","4","4","3","3","775504684868964354","黄","416","","","","","","","","","","","","","","","","","","","true","13","3","moral","1383","self","我的","","","","","","","","","","","","","","","","",""
"null","","null","html-keyboard-response","61","151922","0.0-6.0-1.0-6.0-0.1","3","4","4","4","4","3","4","2","4","4","4","5","5","4","4","5","4","5","5","4","2","2","2","2","2","2","3","2","3","1","0","1","1","0","1","1","1","1","0","0","0","1","0","1","4","2","3","2","2","1","2","4","4","3","3","775504684868964354","黄","416","","","","","","","","","","","","","","","","","","","","","","","","","","","","","","","","","","","","","","","","","",""
"764","<p style=""color:white; font-size: 35px;"">不仁</p>","e","categorize-html","62","152693","0.0-6.0-1.0-6.0-1.1","3","4","4","4","4","3","4","2","4","4","4","5","5","4","4","5","4","5","5","4","2","2","2","2","2","2","3","2","3","1","0","1","1","0","1","1","1","1","0","0","0","1","0","1","4","2","3","2","2","1","2","4","4","3","3","775504684868964354","黄","416","","","","","","","","","","","","","","","","","","","true","13","3","moral","764","negative","不仁","","","","","","","","","","","","","","","","",""
"null","","null","html-keyboard-response","63","152953","0.0-6.0-1.0-6.0-0.2","3","4","4","4","4","3","4","2","4","4","4","5","5","4","4","5","4","5","5","4","2","2","2","2","2","2","3","2","3","1","0","1","1","0","1","1","1","1","0","0","0","1","0","1","4","2","3","2","2","1","2","4","4","3","3","775504684868964354","黄","416","","","","","","","","","","","","","","","","","","","","","","","","","","","","","","","","","","","","","","","","","",""
"671","<p style=""color:rgb(150, 250, 100); font-size: 35px;"">别人</p>","i","categorize-html","64","153630","0.0-6.0-1.0-6.0-1.2","3","4","4","4","4","3","4","2","4","4","4","5","5","4","4","5","4","5","5","4","2","2","2","2","2","2","3","2","3","1","0","1","1","0","1","1","1","1","0","0","0","1","0","1","4","2","3","2","2","1","2","4","4","3","3","775504684868964354","黄","416","","","","","","","","","","","","","","","","","","","true","13","3","moral","671","other","别人","","","","","","","","","","","","","","","","",""
"null","","null","html-keyboard-response","65","153890","0.0-6.0-1.0-6.0-0.3","3","4","4","4","4","3","4","2","4","4","4","5","5","4","4","5","4","5","5","4","2","2","2","2","2","2","3","2","3","1","0","1","1","0","1","1","1","1","0","0","0","1","0","1","4","2","3","2","2","1","2","4","4","3","3","775504684868964354","黄","416","","","","","","","","","","","","","","","","","","","","","","","","","","","","","","","","","","","","","","","","","",""
"894","<p style=""color:white; font-size: 35px;"">善良</p>","i","categorize-html","66","154791","0.0-6.0-1.0-6.0-1.3","3","4","4","4","4","3","4","2","4","4","4","5","5","4","4","5","4","5","5","4","2","2","2","2","2","2","3","2","3","1","0","1","1","0","1","1","1","1","0","0","0","1","0","1","4","2","3","2","2","1","2","4","4","3","3","775504684868964354","黄","416","","","","","","","","","","","","","","","","","","","true","13","3","moral","894","positive","善良","","","","","","","","","","","","","","","","",""
"null","","null","html-keyboard-response","67","155051","0.0-6.0-1.0-6.0-0.4","3","4","4","4","4","3","4","2","4","4","4","5","5","4","4","5","4","5","5","4","2","2","2","2","2","2","3","2","3","1","0","1","1","0","1","1","1","1","0","0","0","1","0","1","4","2","3","2","2","1","2","4","4","3","3","775504684868964354","黄","416","","","","","","","","","","","","","","","","","","","","","","","","","","","","","","","","","","","","","","","","","",""
"985","<p style=""color:rgb(150, 250, 100); font-size: 35px;"">自己</p>","e","categorize-html","68","156042","0.0-6.0-1.0-6.0-1.4","3","4","4","4","4","3","4","2","4","4","4","5","5","4","4","5","4","5","5","4","2","2","2","2","2","2","3","2","3","1","0","1","1","0","1","1","1","1","0","0","0","1","0","1","4","2","3","2","2","1","2","4","4","3","3","775504684868964354","黄","416","","","","","","","","","","","","","","","","","","","true","13","3","moral","985","self","自己","","","","","","","","","","","","","","","","",""
"null","","null","html-keyboard-response","69","156297","0.0-6.0-1.0-6.0-0.5","3","4","4","4","4","3","4","2","4","4","4","5","5","4","4","5","4","5","5","4","2","2","2","2","2","2","3","2","3","1","0","1","1","0","1","1","1","1","0","0","0","1","0","1","4","2","3","2","2","1","2","4","4","3","3","775504684868964354","黄","416","","","","","","","","","","","","","","","","","","","","","","","","","","","","","","","","","","","","","","","","","",""
"1082","<p style=""color:white; font-size: 35px;"">高尚</p>","i","categorize-html","70","157385","0.0-6.0-1.0-6.0-1.5","3","4","4","4","4","3","4","2","4","4","4","5","5","4","4","5","4","5","5","4","2","2","2","2","2","2","3","2","3","1","0","1","1","0","1","1","1","1","0","0","0","1","0","1","4","2","3","2","2","1","2","4","4","3","3","775504684868964354","黄","416","","","","","","","","","","","","","","","","","","","true","13","3","moral","1082","positive","高尚","","","","","","","","","","","","","","","","",""
"null","","null","html-keyboard-response","71","157644","0.0-6.0-1.0-6.0-0.6","3","4","4","4","4","3","4","2","4","4","4","5","5","4","4","5","4","5","5","4","2","2","2","2","2","2","3","2","3","1","0","1","1","0","1","1","1","1","0","0","0","1","0","1","4","2","3","2","2","1","2","4","4","3","3","775504684868964354","黄","416","","","","","","","","","","","","","","","","","","","","","","","","","","","","","","","","","","","","","","","","","",""
"1409","<p style=""color:rgb(150, 250, 100); font-size: 35px;"">他的</p>","i","categorize-html","72","159060","0.0-6.0-1.0-6.0-1.6","3","4","4","4","4","3","4","2","4","4","4","5","5","4","4","5","4","5","5","4","2","2","2","2","2","2","3","2","3","1","0","1","1","0","1","1","1","1","0","0","0","1","0","1","4","2","3","2","2","1","2","4","4","3","3","775504684868964354","黄","416","","","","","","","","","","","","","","","","","","","true","13","3","moral","1409","other","他的","","","","","","","","","","","","","","","","",""
"null","","null","html-keyboard-response","73","159318","0.0-6.0-1.0-6.0-0.7","3","4","4","4","4","3","4","2","4","4","4","5","5","4","4","5","4","5","5","4","2","2","2","2","2","2","3","2","3","1","0","1","1","0","1","1","1","1","0","0","0","1","0","1","4","2","3","2","2","1","2","4","4","3","3","775504684868964354","黄","416","","","","","","","","","","","","","","","","","","","","","","","","","","","","","","","","","","","","","","","","","",""
"1391","<p style=""color:white; font-size: 35px;"">卑鄙</p>","e","categorize-html","74","160715","0.0-6.0-1.0-6.0-1.7","3","4","4","4","4","3","4","2","4","4","4","5","5","4","4","5","4","5","5","4","2","2","2","2","2","2","3","2","3","1","0","1","1","0","1","1","1","1","0","0","0","1","0","1","4","2","3","2","2","1","2","4","4","3","3","775504684868964354","黄","416","","","","","","","","","","","","","","","","","","","true","13","3","moral","1391","negative","卑鄙","","","","","","","","","","","","","","","","",""
"null","","null","html-keyboard-response","75","160972","0.0-6.0-1.0-6.0-0.8","3","4","4","4","4","3","4","2","4","4","4","5","5","4","4","5","4","5","5","4","2","2","2","2","2","2","3","2","3","1","0","1","1","0","1","1","1","1","0","0","0","1","0","1","4","2","3","2","2","1","2","4","4","3","3","775504684868964354","黄","416","","","","","","","","","","","","","","","","","","","","","","","","","","","","","","","","","","","","","","","","","",""
"647","<p style=""color:rgb(150, 250, 100); font-size: 35px;"">他人</p>","i","categorize-html","76","161625","0.0-6.0-1.0-6.0-1.8","3","4","4","4","4","3","4","2","4","4","4","5","5","4","4","5","4","5","5","4","2","2","2","2","2","2","3","2","3","1","0","1","1","0","1","1","1","1","0","0","0","1","0","1","4","2","3","2","2","1","2","4","4","3","3","775504684868964354","黄","416","","","","","","","","","","","","","","","","","","","true","13","3","moral","647","other","他人","","","","","","","","","","","","","","","","",""
"null","","null","html-keyboard-response","77","161879","0.0-6.0-1.0-6.0-0.9","3","4","4","4","4","3","4","2","4","4","4","5","5","4","4","5","4","5","5","4","2","2","2","2","2","2","3","2","3","1","0","1","1","0","1","1","1","1","0","0","0","1","0","1","4","2","3","2","2","1","2","4","4","3","3","775504684868964354","黄","416","","","","","","","","","","","","","","","","","","","","","","","","","","","","","","","","","","","","","","","","","",""
"680","<p style=""color:white; font-size: 35px;"">不孝</p>","e","categorize-html","78","162566","0.0-6.0-1.0-6.0-1.9","3","4","4","4","4","3","4","2","4","4","4","5","5","4","4","5","4","5","5","4","2","2","2","2","2","2","3","2","3","1","0","1","1","0","1","1","1","1","0","0","0","1","0","1","4","2","3","2","2","1","2","4","4","3","3","775504684868964354","黄","416","","","","","","","","","","","","","","","","","","","true","13","3","moral","680","negative","不孝","","","","","","","","","","","","","","","","",""
"null","","null","html-keyboard-response","79","162818","0.0-6.0-1.0-6.0-0.10","3","4","4","4","4","3","4","2","4","4","4","5","5","4","4","5","4","5","5","4","2","2","2","2","2","2","3","2","3","1","0","1","1","0","1","1","1","1","0","0","0","1","0","1","4","2","3","2","2","1","2","4","4","3","3","775504684868964354","黄","416","","","","","","","","","","","","","","","","","","","","","","","","","","","","","","","","","","","","","","","","","",""
"1471","<p style=""color:rgb(150, 250, 100); font-size: 35px;"">本人的</p>","i","categorize-html","80","164983","0.0-6.0-1.0-6.0-1.10","3","4","4","4","4","3","4","2","4","4","4","5","5","4","4","5","4","5","5","4","2","2","2","2","2","2","3","2","3","1","0","1","1","0","1","1","1","1","0","0","0","1","0","1","4","2","3","2","2","1","2","4","4","3","3","775504684868964354","黄","416","","","","","","","","","","","","","","","","","","","false","13","3","moral","1676.9545454545455","self","本人的","","","","","","","","","","","","","","","","",""
"null","","null","html-keyboard-response","81","165237","0.0-6.0-1.0-6.0-0.11","3","4","4","4","4","3","4","2","4","4","4","5","5","4","4","5","4","5","5","4","2","2","2","2","2","2","3","2","3","1","0","1","1","0","1","1","1","1","0","0","0","1","0","1","4","2","3","2","2","1","2","4","4","3","3","775504684868964354","黄","416","","","","","","","","","","","","","","","","","","","","","","","","","","","","","","","","","","","","","","","","","",""
"3696","<p style=""color:white; font-size: 35px;"">君子</p>","i","categorize-html","82","168940","0.0-6.0-1.0-6.0-1.11","3","4","4","4","4","3","4","2","4","4","4","5","5","4","4","5","4","5","5","4","2","2","2","2","2","2","3","2","3","1","0","1","1","0","1","1","1","1","0","0","0","1","0","1","4","2","3","2","2","1","2","4","4","3","3","775504684868964354","黄","416","","","","","","","","","","","","","","","","","","","true","13","3","moral","3696","positive","君子","","","","","","","","","","","","","","","","",""
"null","","null","html-keyboard-response","83","169195","0.0-6.0-1.0-6.0-0.12","3","4","4","4","4","3","4","2","4","4","4","5","5","4","4","5","4","5","5","4","2","2","2","2","2","2","3","2","3","1","0","1","1","0","1","1","1","1","0","0","0","1","0","1","4","2","3","2","2","1","2","4","4","3","3","775504684868964354","黄","416","","","","","","","","","","","","","","","","","","","","","","","","","","","","","","","","","","","","","","","","","",""
"667","<p style=""color:rgb(150, 250, 100); font-size: 35px;"">他人的</p>","i","categorize-html","84","169868","0.0-6.0-1.0-6.0-1.12","3","4","4","4","4","3","4","2","4","4","4","5","5","4","4","5","4","5","5","4","2","2","2","2","2","2","3","2","3","1","0","1","1","0","1","1","1","1","0","0","0","1","0","1","4","2","3","2","2","1","2","4","4","3","3","775504684868964354","黄","416","","","","","","","","","","","","","","","","","","","true","13","3","moral","667","other","他人的","","","","","","","","","","","","","","","","",""
"null","","null","html-keyboard-response","85","170125","0.0-6.0-1.0-6.0-0.13","3","4","4","4","4","3","4","2","4","4","4","5","5","4","4","5","4","5","5","4","2","2","2","2","2","2","3","2","3","1","0","1","1","0","1","1","1","1","0","0","0","1","0","1","4","2","3","2","2","1","2","4","4","3","3","775504684868964354","黄","416","","","","","","","","","","","","","","","","","","","","","","","","","","","","","","","","","","","","","","","","","",""
"1219","<p style=""color:white; font-size: 35px;"">诚信</p>","i","categorize-html","86","171352","0.0-6.0-1.0-6.0-1.13","3","4","4","4","4","3","4","2","4","4","4","5","5","4","4","5","4","5","5","4","2","2","2","2","2","2","3","2","3","1","0","1","1","0","1","1","1","1","0","0","0","1","0","1","4","2","3","2","2","1","2","4","4","3","3","775504684868964354","黄","416","","","","","","","","","","","","","","","","","","","true","13","3","moral","1219","positive","诚信","","","","","","","","","","","","","","","","",""
"null","","null","html-keyboard-response","87","171614","0.0-6.0-1.0-6.0-0.14","3","4","4","4","4","3","4","2","4","4","4","5","5","4","4","5","4","5","5","4","2","2","2","2","2","2","3","2","3","1","0","1","1","0","1","1","1","1","0","0","0","1","0","1","4","2","3","2","2","1","2","4","4","3","3","775504684868964354","黄","416","","","","","","","","","","","","","","","","","","","","","","","","","","","","","","","","","","","","","","","","","",""
"811","<p style=""color:rgb(150, 250, 100); font-size: 35px;"">自己的</p>","e","categorize-html","88","172431","0.0-6.0-1.0-6.0-1.14","3","4","4","4","4","3","4","2","4","4","4","5","5","4","4","5","4","5","5","4","2","2","2","2","2","2","3","2","3","1","0","1","1","0","1","1","1","1","0","0","0","1","0","1","4","2","3","2","2","1","2","4","4","3","3","775504684868964354","黄","416","","","","","","","","","","","","","","","","","","","true","13","3","moral","811","self","自己的","","","","","","","","","","","","","","","","",""
"null","","null","html-keyboard-response","89","172687","0.0-6.0-1.0-6.0-0.15","3","4","4","4","4","3","4","2","4","4","4","5","5","4","4","5","4","5","5","4","2","2","2","2","2","2","3","2","3","1","0","1","1","0","1","1","1","1","0","0","0","1","0","1","4","2","3","2","2","1","2","4","4","3","3","775504684868964354","黄","416","","","","","","","","","","","","","","","","","","","","","","","","","","","","","","","","","","","","","","","","","",""
"634","<p style=""color:white; font-size: 35px;"">黑心</p>","e","categorize-html","90","173327","0.0-6.0-1.0-6.0-1.15","3","4","4","4","4","3","4","2","4","4","4","5","5","4","4","5","4","5","5","4","2","2","2","2","2","2","3","2","3","1","0","1","1","0","1","1","1","1","0","0","0","1","0","1","4","2","3","2","2","1","2","4","4","3","3","775504684868964354","黄","416","","","","","","","","","","","","","","","","","","","true","13","3","moral","634","negative","黑心","","","","","","","","","","","","","","","","",""
"null","","null","html-keyboard-response","91","173585","0.0-6.0-1.0-6.0-0.16","3","4","4","4","4","3","4","2","4","4","4","5","5","4","4","5","4","5","5","4","2","2","2","2","2","2","3","2","3","1","0","1","1","0","1","1","1","1","0","0","0","1","0","1","4","2","3","2","2","1","2","4","4","3","3","775504684868964354","黄","416","","","","","","","","","","","","","","","","","","","","","","","","","","","","","","","","","","","","","","","","","",""
"752","<p style=""color:rgb(150, 250, 100); font-size: 35px;"">本人</p>","e","categorize-html","92","174344","0.0-6.0-1.0-6.0-1.16","3","4","4","4","4","3","4","2","4","4","4","5","5","4","4","5","4","5","5","4","2","2","2","2","2","2","3","2","3","1","0","1","1","0","1","1","1","1","0","0","0","1","0","1","4","2","3","2","2","1","2","4","4","3","3","775504684868964354","黄","416","","","","","","","","","","","","","","","","","","","true","13","3","moral","752","self","本人","","","","","","","","","","","","","","","","",""
"null","","null","html-keyboard-response","93","174602","0.0-6.0-1.0-6.0-0.17","3","4","4","4","4","3","4","2","4","4","4","5","5","4","4","5","4","5","5","4","2","2","2","2","2","2","3","2","3","1","0","1","1","0","1","1","1","1","0","0","0","1","0","1","4","2","3","2","2","1","2","4","4","3","3","775504684868964354","黄","416","","","","","","","","","","","","","","","","","","","","","","","","","","","","","","","","","","","","","","","","","",""
"1310","<p style=""color:white; font-size: 35px;"">正直</p>","i","categorize-html","94","175918","0.0-6.0-1.0-6.0-1.17","3","4","4","4","4","3","4","2","4","4","4","5","5","4","4","5","4","5","5","4","2","2","2","2","2","2","3","2","3","1","0","1","1","0","1","1","1","1","0","0","0","1","0","1","4","2","3","2","2","1","2","4","4","3","3","775504684868964354","黄","416","","","","","","","","","","","","","","","","","","","true","13","3","moral","1310","positive","正直","","","","","","","","","","","","","","","","",""
"null","","null","html-keyboard-response","95","176179","0.0-6.0-1.0-6.0-0.18","3","4","4","4","4","3","4","2","4","4","4","5","5","4","4","5","4","5","5","4","2","2","2","2","2","2","3","2","3","1","0","1","1","0","1","1","1","1","0","0","0","1","0","1","4","2","3","2","2","1","2","4","4","3","3","775504684868964354","黄","416","","","","","","","","","","","","","","","","","","","","","","","","","","","","","","","","","","","","","","","","","",""
"672","<p style=""color:rgb(150, 250, 100); font-size: 35px;"">别人的</p>","i","categorize-html","96","176858","0.0-6.0-1.0-6.0-1.18","3","4","4","4","4","3","4","2","4","4","4","5","5","4","4","5","4","5","5","4","2","2","2","2","2","2","3","2","3","1","0","1","1","0","1","1","1","1","0","0","0","1","0","1","4","2","3","2","2","1","2","4","4","3","3","775504684868964354","黄","416","","","","","","","","","","","","","","","","","","","true","13","3","moral","672","other","别人的","","","","","","","","","","","","","","","","",""
"null","","null","html-keyboard-response","97","177119","0.0-6.0-1.0-6.0-0.19","3","4","4","4","4","3","4","2","4","4","4","5","5","4","4","5","4","5","5","4","2","2","2","2","2","2","3","2","3","1","0","1","1","0","1","1","1","1","0","0","0","1","0","1","4","2","3","2","2","1","2","4","4","3","3","775504684868964354","黄","416","","","","","","","","","","","","","","","","","","","","","","","","","","","","","","","","","","","","","","","","","",""
"706","<p style=""color:white; font-size: 35px;"">小人</p>","i","categorize-html","98","178310","0.0-6.0-1.0-6.0-1.19","3","4","4","4","4","3","4","2","4","4","4","5","5","4","4","5","4","5","5","4","2","2","2","2","2","2","3","2","3","1","0","1","1","0","1","1","1","1","0","0","0","1","0","1","4","2","3","2","2","1","2","4","4","3","3","775504684868964354","黄","416","","","","","","","","","","","","","","","","","","","false","13","3","moral","1676.9545454545455","negative","小人","","","","","","","","","","","","","","","","",""
"null","","null","html-keyboard-response","99","178562","0.0-6.0-1.0-6.0-0.20","3","4","4","4","4","3","4","2","4","4","4","5","5","4","4","5","4","5","5","4","2","2","2","2","2","2","3","2","3","1","0","1","1","0","1","1","1","1","0","0","0","1","0","1","4","2","3","2","2","1","2","4","4","3","3","775504684868964354","黄","416","","","","","","","","","","","","","","","","","","","","","","","","","","","","","","","","","","","","","","","","","",""
"1046","<p style=""color:rgb(150, 250, 100); font-size: 35px;"">他</p>","i","categorize-html","100","179614","0.0-6.0-1.0-6.0-1.20","3","4","4","4","4","3","4","2","4","4","4","5","5","4","4","5","4","5","5","4","2","2","2","2","2","2","3","2","3","1","0","1","1","0","1","1","1","1","0","0","0","1","0","1","4","2","3","2","2","1","2","4","4","3","3","775504684868964354","黄","416","","","","","","","","","","","","","","","","","","","true","13","3","moral","1046","other","他","","","","","","","","","","","","","","","","",""
"null","","null","html-keyboard-response","101","179874","0.0-6.0-1.0-6.0-0.21","3","4","4","4","4","3","4","2","4","4","4","5","5","4","4","5","4","5","5","4","2","2","2","2","2","2","3","2","3","1","0","1","1","0","1","1","1","1","0","0","0","1","0","1","4","2","3","2","2","1","2","4","4","3","3","775504684868964354","黄","416","","","","","","","","","","","","","","","","","","","","","","","","","","","","","","","","","","","","","","","","","",""
"1548","<p style=""color:white; font-size: 35px;"">缺德</p>","e","categorize-html","102","181429","0.0-6.0-1.0-6.0-1.21","3","4","4","4","4","3","4","2","4","4","4","5","5","4","4","5","4","5","5","4","2","2","2","2","2","2","3","2","3","1","0","1","1","0","1","1","1","1","0","0","0","1","0","1","4","2","3","2","2","1","2","4","4","3","3","775504684868964354","黄","416","","","","","","","","","","","","","","","","","","","true","13","3","moral","1548","negative","缺德","","","","","","","","","","","","","","","","",""
"null","","null","html-keyboard-response","103","181697","0.0-6.0-1.0-6.0-0.22","3","4","4","4","4","3","4","2","4","4","4","5","5","4","4","5","4","5","5","4","2","2","2","2","2","2","3","2","3","1","0","1","1","0","1","1","1","1","0","0","0","1","0","1","4","2","3","2","2","1","2","4","4","3","3","775504684868964354","黄","416","","","","","","","","","","","","","","","","","","","","","","","","","","","","","","","","","","","","","","","","","",""
"668","<p style=""color:rgb(150, 250, 100); font-size: 35px;"">我</p>","e","categorize-html","104","182371","0.0-6.0-1.0-6.0-1.22","3","4","4","4","4","3","4","2","4","4","4","5","5","4","4","5","4","5","5","4","2","2","2","2","2","2","3","2","3","1","0","1","1","0","1","1","1","1","0","0","0","1","0","1","4","2","3","2","2","1","2","4","4","3","3","775504684868964354","黄","416","","","","","","","","","","","","","","","","","","","true","13","3","moral","668","self","我","","","","","","","","","","","","","","","","",""
"null","","null","html-keyboard-response","105","182627","0.0-6.0-1.0-6.0-0.23","3","4","4","4","4","3","4","2","4","4","4","5","5","4","4","5","4","5","5","4","2","2","2","2","2","2","3","2","3","1","0","1","1","0","1","1","1","1","0","0","0","1","0","1","4","2","3","2","2","1","2","4","4","3","3","775504684868964354","黄","416","","","","","","","","","","","","","","","","","","","","","","","","","","","","","","","","","","","","","","","","","",""
"764","<p style=""color:white; font-size: 35px;"">廉正</p>","i","categorize-html","106","183398","0.0-6.0-1.0-6.0-1.23","3","4","4","4","4","3","4","2","4","4","4","5","5","4","4","5","4","5","5","4","2","2","2","2","2","2","3","2","3","1","0","1","1","0","1","1","1","1","0","0","0","1","0","1","4","2","3","2","2","1","2","4","4","3","3","775504684868964354","黄","416","","","","","","","","","","","","","","","","","","","true","13","3","moral","764","positive","廉正","","","","","","","","","","","","","","","","",""
"7923","
    <div class=""tag-bottom""><p>
    —— 任务4：对“自我/消极”词和“他人/积极”词分类 ——<p/>
    <span style=""color:#78DCE8""><b>与刚才的任务完全相同，请再次对这四类词语分类</b></span><p/>
    <span style=""color:#FFD866""><b>请根据上方标签的提示，尽可能正确并且快速地做出按键反应</b></span><p/>
    当按键错误时屏幕中会出现<span style=""color:red""> X </span>，需要按另一个键纠正才能继续<br/><p/>
    请把双手食指分别放在键盘的“E”键和“I”键上<p/>
    按<空格键>开始
    </p></div>"," ","html-keyboard-response","107","191323","0.0-6.0-1.0-7.0","3","4","4","4","4","3","4","2","4","4","4","5","5","4","4","5","4","5","5","4","2","2","2","2","2","2","3","2","3","1","0","1","1","0","1","1","1","1","0","0","0","1","0","1","4","2","3","2","2","1","2","4","4","3","3","775504684868964354","黄","416","","","","","","","","","","","","","","","","","","","","","","","","","","","","","","","","","","","","","","","","","",""
"null","","null","html-keyboard-response","108","191579","0.0-6.0-1.0-8.0-0.0","3","4","4","4","4","3","4","2","4","4","4","5","5","4","4","5","4","5","5","4","2","2","2","2","2","2","3","2","3","1","0","1","1","0","1","1","1","1","0","0","0","1","0","1","4","2","3","2","2","1","2","4","4","3","3","775504684868964354","黄","416","","","","","","","","","","","","","","","","","","","","","","","","","","","","","","","","","","","","","","","","","",""
"877","<p style=""color:rgb(150, 250, 100); font-size: 35px;"">我</p>","e","categorize-html","109","192464","0.0-6.0-1.0-8.0-1.0","3","4","4","4","4","3","4","2","4","4","4","5","5","4","4","5","4","5","5","4","2","2","2","2","2","2","3","2","3","1","0","1","1","0","1","1","1","1","0","0","0","1","0","1","4","2","3","2","2","1","2","4","4","3","3","775504684868964354","黄","416","","","","","","","","","","","","","","","","","","","true","14","4","moral","877","self","我","","","","","","","","","","","","","","","","",""
"null","","null","html-keyboard-response","110","192718","0.0-6.0-1.0-8.0-0.1","3","4","4","4","4","3","4","2","4","4","4","5","5","4","4","5","4","5","5","4","2","2","2","2","2","2","3","2","3","1","0","1","1","0","1","1","1","1","0","0","0","1","0","1","4","2","3","2","2","1","2","4","4","3","3","775504684868964354","黄","416","","","","","","","","","","","","","","","","","","","","","","","","","","","","","","","","","","","","","","","","","",""
"700","<p style=""color:white; font-size: 35px;"">缺德</p>","e","categorize-html","111","193424","0.0-6.0-1.0-8.0-1.1","3","4","4","4","4","3","4","2","4","4","4","5","5","4","4","5","4","5","5","4","2","2","2","2","2","2","3","2","3","1","0","1","1","0","1","1","1","1","0","0","0","1","0","1","4","2","3","2","2","1","2","4","4","3","3","775504684868964354","黄","416","","","","","","","","","","","","","","","","","","","true","14","4","moral","700","negative","缺德","","","","","","","","","","","","","","","","",""
"null","","null","html-keyboard-response","112","193691","0.0-6.0-1.0-8.0-0.2","3","4","4","4","4","3","4","2","4","4","4","5","5","4","4","5","4","5","5","4","2","2","2","2","2","2","3","2","3","1","0","1","1","0","1","1","1","1","0","0","0","1","0","1","4","2","3","2","2","1","2","4","4","3","3","775504684868964354","黄","416","","","","","","","","","","","","","","","","","","","","","","","","","","","","","","","","","","","","","","","","","",""
"709","<p style=""color:rgb(150, 250, 100); font-size: 35px;"">别人</p>","i","categorize-html","113","194407","0.0-6.0-1.0-8.0-1.2","3","4","4","4","4","3","4","2","4","4","4","5","5","4","4","5","4","5","5","4","2","2","2","2","2","2","3","2","3","1","0","1","1","0","1","1","1","1","0","0","0","1","0","1","4","2","3","2","2","1","2","4","4","3","3","775504684868964354","黄","416","","","","","","","","","","","","","","","","","","","true","14","4","moral","709","other","别人","","","","","","","","","","","","","","","","",""
"null","","null","html-keyboard-response","114","194669","0.0-6.0-1.0-8.0-0.3","3","4","4","4","4","3","4","2","4","4","4","5","5","4","4","5","4","5","5","4","2","2","2","2","2","2","3","2","3","1","0","1","1","0","1","1","1","1","0","0","0","1","0","1","4","2","3","2","2","1","2","4","4","3","3","775504684868964354","黄","416","","","","","","","","","","","","","","","","","","","","","","","","","","","","","","","","","","","","","","","","","",""
"853","<p style=""color:white; font-size: 35px;"">正直</p>","i","categorize-html","115","195529","0.0-6.0-1.0-8.0-1.3","3","4","4","4","4","3","4","2","4","4","4","5","5","4","4","5","4","5","5","4","2","2","2","2","2","2","3","2","3","1","0","1","1","0","1","1","1","1","0","0","0","1","0","1","4","2","3","2","2","1","2","4","4","3","3","775504684868964354","黄","416","","","","","","","","","","","","","","","","","","","true","14","4","moral","853","positive","正直","","","","","","","","","","","","","","","","",""
"null","","null","html-keyboard-response","116","195784","0.0-6.0-1.0-8.0-0.4","3","4","4","4","4","3","4","2","4","4","4","5","5","4","4","5","4","5","5","4","2","2","2","2","2","2","3","2","3","1","0","1","1","0","1","1","1","1","0","0","0","1","0","1","4","2","3","2","2","1","2","4","4","3","3","775504684868964354","黄","416","","","","","","","","","","","","","","","","","","","","","","","","","","","","","","","","","","","","","","","","","",""
"667","<p style=""color:rgb(150, 250, 100); font-size: 35px;"">我的</p>","e","categorize-html","117","196458","0.0-6.0-1.0-8.0-1.4","3","4","4","4","4","3","4","2","4","4","4","5","5","4","4","5","4","5","5","4","2","2","2","2","2","2","3","2","3","1","0","1","1","0","1","1","1","1","0","0","0","1","0","1","4","2","3","2","2","1","2","4","4","3","3","775504684868964354","黄","416","","","","","","","","","","","","","","","","","","","true","14","4","moral","667","self","我的","","","","","","","","","","","","","","","","",""
"null","","null","html-keyboard-response","118","196712","0.0-6.0-1.0-8.0-0.5","3","4","4","4","4","3","4","2","4","4","4","5","5","4","4","5","4","5","5","4","2","2","2","2","2","2","3","2","3","1","0","1","1","0","1","1","1","1","0","0","0","1","0","1","4","2","3","2","2","1","2","4","4","3","3","775504684868964354","黄","416","","","","","","","","","","","","","","","","","","","","","","","","","","","","","","","","","","","","","","","","","",""
"808","<p style=""color:white; font-size: 35px;"">廉正</p>","i","categorize-html","119","197527","0.0-6.0-1.0-8.0-1.5","3","4","4","4","4","3","4","2","4","4","4","5","5","4","4","5","4","5","5","4","2","2","2","2","2","2","3","2","3","1","0","1","1","0","1","1","1","1","0","0","0","1","0","1","4","2","3","2","2","1","2","4","4","3","3","775504684868964354","黄","416","","","","","","","","","","","","","","","","","","","true","14","4","moral","808","positive","廉正","","","","","","","","","","","","","","","","",""
"null","","null","html-keyboard-response","120","197784","0.0-6.0-1.0-8.0-0.6","3","4","4","4","4","3","4","2","4","4","4","5","5","4","4","5","4","5","5","4","2","2","2","2","2","2","3","2","3","1","0","1","1","0","1","1","1","1","0","0","0","1","0","1","4","2","3","2","2","1","2","4","4","3","3","775504684868964354","黄","416","","","","","","","","","","","","","","","","","","","","","","","","","","","","","","","","","","","","","","","","","",""
"716","<p style=""color:rgb(150, 250, 100); font-size: 35px;"">他人的</p>","i","categorize-html","121","198506","0.0-6.0-1.0-8.0-1.6","3","4","4","4","4","3","4","2","4","4","4","5","5","4","4","5","4","5","5","4","2","2","2","2","2","2","3","2","3","1","0","1","1","0","1","1","1","1","0","0","0","1","0","1","4","2","3","2","2","1","2","4","4","3","3","775504684868964354","黄","416","","","","","","","","","","","","","","","","","","","true","14","4","moral","716","other","他人的","","","","","","","","","","","","","","","","",""
"null","","null","html-keyboard-response","122","198764","0.0-6.0-1.0-8.0-0.7","3","4","4","4","4","3","4","2","4","4","4","5","5","4","4","5","4","5","5","4","2","2","2","2","2","2","3","2","3","1","0","1","1","0","1","1","1","1","0","0","0","1","0","1","4","2","3","2","2","1","2","4","4","3","3","775504684868964354","黄","416","","","","","","","","","","","","","","","","","","","","","","","","","","","","","","","","","","","","","","","","","",""
"1017","<p style=""color:white; font-size: 35px;"">不仁</p>","e","categorize-html","123","199788","0.0-6.0-1.0-8.0-1.7","3","4","4","4","4","3","4","2","4","4","4","5","5","4","4","5","4","5","5","4","2","2","2","2","2","2","3","2","3","1","0","1","1","0","1","1","1","1","0","0","0","1","0","1","4","2","3","2","2","1","2","4","4","3","3","775504684868964354","黄","416","","","","","","","","","","","","","","","","","","","true","14","4","moral","1017","negative","不仁","","","","","","","","","","","","","","","","",""
"null","","null","html-keyboard-response","124","200048","0.0-6.0-1.0-8.0-0.8","3","4","4","4","4","3","4","2","4","4","4","5","5","4","4","5","4","5","5","4","2","2","2","2","2","2","3","2","3","1","0","1","1","0","1","1","1","1","0","0","0","1","0","1","4","2","3","2","2","1","2","4","4","3","3","775504684868964354","黄","416","","","","","","","","","","","","","","","","","","","","","","","","","","","","","","","","","","","","","","","","","",""
"694","<p style=""color:rgb(150, 250, 100); font-size: 35px;"">他</p>","i","categorize-html","125","200748","0.0-6.0-1.0-8.0-1.8","3","4","4","4","4","3","4","2","4","4","4","5","5","4","4","5","4","5","5","4","2","2","2","2","2","2","3","2","3","1","0","1","1","0","1","1","1","1","0","0","0","1","0","1","4","2","3","2","2","1","2","4","4","3","3","775504684868964354","黄","416","","","","","","","","","","","","","","","","","","","true","14","4","moral","694","other","他","","","","","","","","","","","","","","","","",""
"null","","null","html-keyboard-response","126","201012","0.0-6.0-1.0-8.0-0.9","3","4","4","4","4","3","4","2","4","4","4","5","5","4","4","5","4","5","5","4","2","2","2","2","2","2","3","2","3","1","0","1","1","0","1","1","1","1","0","0","0","1","0","1","4","2","3","2","2","1","2","4","4","3","3","775504684868964354","黄","416","","","","","","","","","","","","","","","","","","","","","","","","","","","","","","","","","","","","","","","","","",""
"655","<p style=""color:white; font-size: 35px;"">不仁</p>","e","categorize-html","127","201674","0.0-6.0-1.0-8.0-1.9","3","4","4","4","4","3","4","2","4","4","4","5","5","4","4","5","4","5","5","4","2","2","2","2","2","2","3","2","3","1","0","1","1","0","1","1","1","1","0","0","0","1","0","1","4","2","3","2","2","1","2","4","4","3","3","775504684868964354","黄","416","","","","","","","","","","","","","","","","","","","true","14","4","moral","655","negative","不仁","","","","","","","","","","","","","","","","",""
"null","","null","html-keyboard-response","128","201935","0.0-6.0-1.0-8.0-0.10","3","4","4","4","4","3","4","2","4","4","4","5","5","4","4","5","4","5","5","4","2","2","2","2","2","2","3","2","3","1","0","1","1","0","1","1","1","1","0","0","0","1","0","1","4","2","3","2","2","1","2","4","4","3","3","775504684868964354","黄","416","","","","","","","","","","","","","","","","","","","","","","","","","","","","","","","","","","","","","","","","","",""
"712","<p style=""color:rgb(150, 250, 100); font-size: 35px;"">本人的</p>","e","categorize-html","129","202652","0.0-6.0-1.0-8.0-1.10","3","4","4","4","4","3","4","2","4","4","4","5","5","4","4","5","4","5","5","4","2","2","2","2","2","2","3","2","3","1","0","1","1","0","1","1","1","1","0","0","0","1","0","1","4","2","3","2","2","1","2","4","4","3","3","775504684868964354","黄","416","","","","","","","","","","","","","","","","","","","true","14","4","moral","712","self","本人的","","","","","","","","","","","","","","","","",""
"null","","null","html-keyboard-response","130","202904","0.0-6.0-1.0-8.0-0.11","3","4","4","4","4","3","4","2","4","4","4","5","5","4","4","5","4","5","5","4","2","2","2","2","2","2","3","2","3","1","0","1","1","0","1","1","1","1","0","0","0","1","0","1","4","2","3","2","2","1","2","4","4","3","3","775504684868964354","黄","416","","","","","","","","","","","","","","","","","","","","","","","","","","","","","","","","","","","","","","","","","",""
"614","<p style=""color:white; font-size: 35px;"">诚信</p>","i","categorize-html","131","203525","0.0-6.0-1.0-8.0-1.11","3","4","4","4","4","3","4","2","4","4","4","5","5","4","4","5","4","5","5","4","2","2","2","2","2","2","3","2","3","1","0","1","1","0","1","1","1","1","0","0","0","1","0","1","4","2","3","2","2","1","2","4","4","3","3","775504684868964354","黄","416","","","","","","","","","","","","","","","","","","","true","14","4","moral","614","positive","诚信","","","","","","","","","","","","","","","","",""
"null","","null","html-keyboard-response","132","203779","0.0-6.0-1.0-8.0-0.12","3","4","4","4","4","3","4","2","4","4","4","5","5","4","4","5","4","5","5","4","2","2","2","2","2","2","3","2","3","1","0","1","1","0","1","1","1","1","0","0","0","1","0","1","4","2","3","2","2","1","2","4","4","3","3","775504684868964354","黄","416","","","","","","","","","","","","","","","","","","","","","","","","","","","","","","","","","","","","","","","","","",""
"789","<p style=""color:rgb(150, 250, 100); font-size: 35px;"">别人的</p>","i","categorize-html","133","204574","0.0-6.0-1.0-8.0-1.12","3","4","4","4","4","3","4","2","4","4","4","5","5","4","4","5","4","5","5","4","2","2","2","2","2","2","3","2","3","1","0","1","1","0","1","1","1","1","0","0","0","1","0","1","4","2","3","2","2","1","2","4","4","3","3","775504684868964354","黄","416","","","","","","","","","","","","","","","","","","","true","14","4","moral","789","other","别人的","","","","","","","","","","","","","","","","",""
"null","","null","html-keyboard-response","134","204825","0.0-6.0-1.0-8.0-0.13","3","4","4","4","4","3","4","2","4","4","4","5","5","4","4","5","4","5","5","4","2","2","2","2","2","2","3","2","3","1","0","1","1","0","1","1","1","1","0","0","0","1","0","1","4","2","3","2","2","1","2","4","4","3","3","775504684868964354","黄","416","","","","","","","","","","","","","","","","","","","","","","","","","","","","","","","","","","","","","","","","","",""
"1435","<p style=""color:white; font-size: 35px;"">高尚</p>","i","categorize-html","135","206267","0.0-6.0-1.0-8.0-1.13","3","4","4","4","4","3","4","2","4","4","4","5","5","4","4","5","4","5","5","4","2","2","2","2","2","2","3","2","3","1","0","1","1","0","1","1","1","1","0","0","0","1","0","1","4","2","3","2","2","1","2","4","4","3","3","775504684868964354","黄","416","","","","","","","","","","","","","","","","","","","true","14","4","moral","1435","positive","高尚","","","","","","","","","","","","","","","","",""
"null","","null","html-keyboard-response","136","206522","0.0-6.0-1.0-8.0-0.14","3","4","4","4","4","3","4","2","4","4","4","5","5","4","4","5","4","5","5","4","2","2","2","2","2","2","3","2","3","1","0","1","1","0","1","1","1","1","0","0","0","1","0","1","4","2","3","2","2","1","2","4","4","3","3","775504684868964354","黄","416","","","","","","","","","","","","","","","","","","","","","","","","","","","","","","","","","","","","","","","","","",""
"655","<p style=""color:rgb(150, 250, 100); font-size: 35px;"">本人</p>","e","categorize-html","137","207183","0.0-6.0-1.0-8.0-1.14","3","4","4","4","4","3","4","2","4","4","4","5","5","4","4","5","4","5","5","4","2","2","2","2","2","2","3","2","3","1","0","1","1","0","1","1","1","1","0","0","0","1","0","1","4","2","3","2","2","1","2","4","4","3","3","775504684868964354","黄","416","","","","","","","","","","","","","","","","","","","true","14","4","moral","655","self","本人","","","","","","","","","","","","","","","","",""
"null","","null","html-keyboard-response","138","207436","0.0-6.0-1.0-8.0-0.15","3","4","4","4","4","3","4","2","4","4","4","5","5","4","4","5","4","5","5","4","2","2","2","2","2","2","3","2","3","1","0","1","1","0","1","1","1","1","0","0","0","1","0","1","4","2","3","2","2","1","2","4","4","3","3","775504684868964354","黄","416","","","","","","","","","","","","","","","","","","","","","","","","","","","","","","","","","","","","","","","","","",""
"1153","<p style=""color:white; font-size: 35px;"">小人</p>","e","categorize-html","139","208595","0.0-6.0-1.0-8.0-1.15","3","4","4","4","4","3","4","2","4","4","4","5","5","4","4","5","4","5","5","4","2","2","2","2","2","2","3","2","3","1","0","1","1","0","1","1","1","1","0","0","0","1","0","1","4","2","3","2","2","1","2","4","4","3","3","775504684868964354","黄","416","","","","","","","","","","","","","","","","","","","true","14","4","moral","1153","negative","小人","","","","","","","","","","","","","","","","",""
"null","","null","html-keyboard-response","140","208852","0.0-6.0-1.0-8.0-0.16","3","4","4","4","4","3","4","2","4","4","4","5","5","4","4","5","4","5","5","4","2","2","2","2","2","2","3","2","3","1","0","1","1","0","1","1","1","1","0","0","0","1","0","1","4","2","3","2","2","1","2","4","4","3","3","775504684868964354","黄","416","","","","","","","","","","","","","","","","","","","","","","","","","","","","","","","","","","","","","","","","","",""
"625","<p style=""color:rgb(150, 250, 100); font-size: 35px;"">他人</p>","i","categorize-html","141","209484","0.0-6.0-1.0-8.0-1.16","3","4","4","4","4","3","4","2","4","4","4","5","5","4","4","5","4","5","5","4","2","2","2","2","2","2","3","2","3","1","0","1","1","0","1","1","1","1","0","0","0","1","0","1","4","2","3","2","2","1","2","4","4","3","3","775504684868964354","黄","416","","","","","","","","","","","","","","","","","","","true","14","4","moral","625","other","他人","","","","","","","","","","","","","","","","",""
"null","","null","html-keyboard-response","142","209743","0.0-6.0-1.0-8.0-0.17","3","4","4","4","4","3","4","2","4","4","4","5","5","4","4","5","4","5","5","4","2","2","2","2","2","2","3","2","3","1","0","1","1","0","1","1","1","1","0","0","0","1","0","1","4","2","3","2","2","1","2","4","4","3","3","775504684868964354","黄","416","","","","","","","","","","","","","","","","","","","","","","","","","","","","","","","","","","","","","","","","","",""
"558","<p style=""color:white; font-size: 35px;"">黑心</p>","e","categorize-html","143","210307","0.0-6.0-1.0-8.0-1.17","3","4","4","4","4","3","4","2","4","4","4","5","5","4","4","5","4","5","5","4","2","2","2","2","2","2","3","2","3","1","0","1","1","0","1","1","1","1","0","0","0","1","0","1","4","2","3","2","2","1","2","4","4","3","3","775504684868964354","黄","416","","","","","","","","","","","","","","","","","","","true","14","4","moral","558","negative","黑心","","","","","","","","","","","","","","","","",""
"null","","null","html-keyboard-response","144","210563","0.0-6.0-1.0-8.0-0.18","3","4","4","4","4","3","4","2","4","4","4","5","5","4","4","5","4","5","5","4","2","2","2","2","2","2","3","2","3","1","0","1","1","0","1","1","1","1","0","0","0","1","0","1","4","2","3","2","2","1","2","4","4","3","3","775504684868964354","黄","416","","","","","","","","","","","","","","","","","","","","","","","","","","","","","","","","","","","","","","","","","",""
"711","<p style=""color:rgb(150, 250, 100); font-size: 35px;"">本人的</p>","e","categorize-html","145","211281","0.0-6.0-1.0-8.0-1.18","3","4","4","4","4","3","4","2","4","4","4","5","5","4","4","5","4","5","5","4","2","2","2","2","2","2","3","2","3","1","0","1","1","0","1","1","1","1","0","0","0","1","0","1","4","2","3","2","2","1","2","4","4","3","3","775504684868964354","黄","416","","","","","","","","","","","","","","","","","","","true","14","4","moral","711","self","本人的","","","","","","","","","","","","","","","","",""
"null","","null","html-keyboard-response","146","211533","0.0-6.0-1.0-8.0-0.19","3","4","4","4","4","3","4","2","4","4","4","5","5","4","4","5","4","5","5","4","2","2","2","2","2","2","3","2","3","1","0","1","1","0","1","1","1","1","0","0","0","1","0","1","4","2","3","2","2","1","2","4","4","3","3","775504684868964354","黄","416","","","","","","","","","","","","","","","","","","","","","","","","","","","","","","","","","","","","","","","","","",""
"611","<p style=""color:white; font-size: 35px;"">诚信</p>","i","categorize-html","147","212150","0.0-6.0-1.0-8.0-1.19","3","4","4","4","4","3","4","2","4","4","4","5","5","4","4","5","4","5","5","4","2","2","2","2","2","2","3","2","3","1","0","1","1","0","1","1","1","1","0","0","0","1","0","1","4","2","3","2","2","1","2","4","4","3","3","775504684868964354","黄","416","","","","","","","","","","","","","","","","","","","true","14","4","moral","611","positive","诚信","","","","","","","","","","","","","","","","",""
"null","","null","html-keyboard-response","148","212412","0.0-6.0-1.0-8.0-0.20","3","4","4","4","4","3","4","2","4","4","4","5","5","4","4","5","4","5","5","4","2","2","2","2","2","2","3","2","3","1","0","1","1","0","1","1","1","1","0","0","0","1","0","1","4","2","3","2","2","1","2","4","4","3","3","775504684868964354","黄","416","","","","","","","","","","","","","","","","","","","","","","","","","","","","","","","","","","","","","","","","","",""
"639","<p style=""color:rgb(150, 250, 100); font-size: 35px;"">自己</p>","e","categorize-html","149","213058","0.0-6.0-1.0-8.0-1.20","3","4","4","4","4","3","4","2","4","4","4","5","5","4","4","5","4","5","5","4","2","2","2","2","2","2","3","2","3","1","0","1","1","0","1","1","1","1","0","0","0","1","0","1","4","2","3","2","2","1","2","4","4","3","3","775504684868964354","黄","416","","","","","","","","","","","","","","","","","","","true","14","4","moral","639","self","自己","","","","","","","","","","","","","","","","",""
"null","","null","html-keyboard-response","150","213315","0.0-6.0-1.0-8.0-0.21","3","4","4","4","4","3","4","2","4","4","4","5","5","4","4","5","4","5","5","4","2","2","2","2","2","2","3","2","3","1","0","1","1","0","1","1","1","1","0","0","0","1","0","1","4","2","3","2","2","1","2","4","4","3","3","775504684868964354","黄","416","","","","","","","","","","","","","","","","","","","","","","","","","","","","","","","","","","","","","","","","","",""
"559","<p style=""color:white; font-size: 35px;"">小人</p>","e","categorize-html","151","213881","0.0-6.0-1.0-8.0-1.21","3","4","4","4","4","3","4","2","4","4","4","5","5","4","4","5","4","5","5","4","2","2","2","2","2","2","3","2","3","1","0","1","1","0","1","1","1","1","0","0","0","1","0","1","4","2","3","2","2","1","2","4","4","3","3","775504684868964354","黄","416","","","","","","","","","","","","","","","","","","","true","14","4","moral","559","negative","小人","","","","","","","","","","","","","","","","",""
"null","","null","html-keyboard-response","152","214137","0.0-6.0-1.0-8.0-0.22","3","4","4","4","4","3","4","2","4","4","4","5","5","4","4","5","4","5","5","4","2","2","2","2","2","2","3","2","3","1","0","1","1","0","1","1","1","1","0","0","0","1","0","1","4","2","3","2","2","1","2","4","4","3","3","775504684868964354","黄","416","","","","","","","","","","","","","","","","","","","","","","","","","","","","","","","","","","","","","","","","","",""
"1400","<p style=""color:rgb(150, 250, 100); font-size: 35px;"">他的</p>","i","categorize-html","153","215545","0.0-6.0-1.0-8.0-1.22","3","4","4","4","4","3","4","2","4","4","4","5","5","4","4","5","4","5","5","4","2","2","2","2","2","2","3","2","3","1","0","1","1","0","1","1","1","1","0","0","0","1","0","1","4","2","3","2","2","1","2","4","4","3","3","775504684868964354","黄","416","","","","","","","","","","","","","","","","","","","true","14","4","moral","1400","other","他的","","","","","","","","","","","","","","","","",""
"null","","null","html-keyboard-response","154","215805","0.0-6.0-1.0-8.0-0.23","3","4","4","4","4","3","4","2","4","4","4","5","5","4","4","5","4","5","5","4","2","2","2","2","2","2","3","2","3","1","0","1","1","0","1","1","1","1","0","0","0","1","0","1","4","2","3","2","2","1","2","4","4","3","3","775504684868964354","黄","416","","","","","","","","","","","","","","","","","","","","","","","","","","","","","","","","","","","","","","","","","",""
"869","<p style=""color:white; font-size: 35px;"">善良</p>","i","categorize-html","155","216681","0.0-6.0-1.0-8.0-1.23","3","4","4","4","4","3","4","2","4","4","4","5","5","4","4","5","4","5","5","4","2","2","2","2","2","2","3","2","3","1","0","1","1","0","1","1","1","1","0","0","0","1","0","1","4","2","3","2","2","1","2","4","4","3","3","775504684868964354","黄","416","","","","","","","","","","","","","","","","","","","true","14","4","moral","869","positive","善良","","","","","","","","","","","","","","","","",""
"null","","null","html-keyboard-response","156","216933","0.0-6.0-1.0-8.0-0.24","3","4","4","4","4","3","4","2","4","4","4","5","5","4","4","5","4","5","5","4","2","2","2","2","2","2","3","2","3","1","0","1","1","0","1","1","1","1","0","0","0","1","0","1","4","2","3","2","2","1","2","4","4","3","3","775504684868964354","黄","416","","","","","","","","","","","","","","","","","","","","","","","","","","","","","","","","","","","","","","","","","",""
"637","<p style=""color:rgb(150, 250, 100); font-size: 35px;"">自己的</p>","e","categorize-html","157","217577","0.0-6.0-1.0-8.0-1.24","3","4","4","4","4","3","4","2","4","4","4","5","5","4","4","5","4","5","5","4","2","2","2","2","2","2","3","2","3","1","0","1","1","0","1","1","1","1","0","0","0","1","0","1","4","2","3","2","2","1","2","4","4","3","3","775504684868964354","黄","416","","","","","","","","","","","","","","","","","","","true","14","4","moral","637","self","自己的","","","","","","","","","","","","","","","","",""
"null","","null","html-keyboard-response","158","217834","0.0-6.0-1.0-8.0-0.25","3","4","4","4","4","3","4","2","4","4","4","5","5","4","4","5","4","5","5","4","2","2","2","2","2","2","3","2","3","1","0","1","1","0","1","1","1","1","0","0","0","1","0","1","4","2","3","2","2","1","2","4","4","3","3","775504684868964354","黄","416","","","","","","","","","","","","","","","","","","","","","","","","","","","","","","","","","","","","","","","","","",""
"899","<p style=""color:white; font-size: 35px;"">高尚</p>","i","categorize-html","159","218739","0.0-6.0-1.0-8.0-1.25","3","4","4","4","4","3","4","2","4","4","4","5","5","4","4","5","4","5","5","4","2","2","2","2","2","2","3","2","3","1","0","1","1","0","1","1","1","1","0","0","0","1","0","1","4","2","3","2","2","1","2","4","4","3","3","775504684868964354","黄","416","","","","","","","","","","","","","","","","","","","true","14","4","moral","899","positive","高尚","","","","","","","","","","","","","","","","",""
"null","","null","html-keyboard-response","160","219006","0.0-6.0-1.0-8.0-0.26","3","4","4","4","4","3","4","2","4","4","4","5","5","4","4","5","4","5","5","4","2","2","2","2","2","2","3","2","3","1","0","1","1","0","1","1","1","1","0","0","0","1","0","1","4","2","3","2","2","1","2","4","4","3","3","775504684868964354","黄","416","","","","","","","","","","","","","","","","","","","","","","","","","","","","","","","","","","","","","","","","","",""
"677","<p style=""color:rgb(150, 250, 100); font-size: 35px;"">他</p>","i","categorize-html","161","219691","0.0-6.0-1.0-8.0-1.26","3","4","4","4","4","3","4","2","4","4","4","5","5","4","4","5","4","5","5","4","2","2","2","2","2","2","3","2","3","1","0","1","1","0","1","1","1","1","0","0","0","1","0","1","4","2","3","2","2","1","2","4","4","3","3","775504684868964354","黄","416","","","","","","","","","","","","","","","","","","","true","14","4","moral","677","other","他","","","","","","","","","","","","","","","","",""
"null","","null","html-keyboard-response","162","219943","0.0-6.0-1.0-8.0-0.27","3","4","4","4","4","3","4","2","4","4","4","5","5","4","4","5","4","5","5","4","2","2","2","2","2","2","3","2","3","1","0","1","1","0","1","1","1","1","0","0","0","1","0","1","4","2","3","2","2","1","2","4","4","3","3","775504684868964354","黄","416","","","","","","","","","","","","","","","","","","","","","","","","","","","","","","","","","","","","","","","","","",""
"633","<p style=""color:white; font-size: 35px;"">缺德</p>","e","categorize-html","163","220581","0.0-6.0-1.0-8.0-1.27","3","4","4","4","4","3","4","2","4","4","4","5","5","4","4","5","4","5","5","4","2","2","2","2","2","2","3","2","3","1","0","1","1","0","1","1","1","1","0","0","0","1","0","1","4","2","3","2","2","1","2","4","4","3","3","775504684868964354","黄","416","","","","","","","","","","","","","","","","","","","true","14","4","moral","633","negative","缺德","","","","","","","","","","","","","","","","",""
"null","","null","html-keyboard-response","164","220835","0.0-6.0-1.0-8.0-0.28","3","4","4","4","4","3","4","2","4","4","4","5","5","4","4","5","4","5","5","4","2","2","2","2","2","2","3","2","3","1","0","1","1","0","1","1","1","1","0","0","0","1","0","1","4","2","3","2","2","1","2","4","4","3","3","775504684868964354","黄","416","","","","","","","","","","","","","","","","","","","","","","","","","","","","","","","","","","","","","","","","","",""
"596","<p style=""color:rgb(150, 250, 100); font-size: 35px;"">我</p>","e","categorize-html","165","221437","0.0-6.0-1.0-8.0-1.28","3","4","4","4","4","3","4","2","4","4","4","5","5","4","4","5","4","5","5","4","2","2","2","2","2","2","3","2","3","1","0","1","1","0","1","1","1","1","0","0","0","1","0","1","4","2","3","2","2","1","2","4","4","3","3","775504684868964354","黄","416","","","","","","","","","","","","","","","","","","","true","14","4","moral","596","self","我","","","","","","","","","","","","","","","","",""
"null","","null","html-keyboard-response","166","221694","0.0-6.0-1.0-8.0-0.29","3","4","4","4","4","3","4","2","4","4","4","5","5","4","4","5","4","5","5","4","2","2","2","2","2","2","3","2","3","1","0","1","1","0","1","1","1","1","0","0","0","1","0","1","4","2","3","2","2","1","2","4","4","3","3","775504684868964354","黄","416","","","","","","","","","","","","","","","","","","","","","","","","","","","","","","","","","","","","","","","","","",""
"589","<p style=""color:white; font-size: 35px;"">卑鄙</p>","e","categorize-html","167","222290","0.0-6.0-1.0-8.0-1.29","3","4","4","4","4","3","4","2","4","4","4","5","5","4","4","5","4","5","5","4","2","2","2","2","2","2","3","2","3","1","0","1","1","0","1","1","1","1","0","0","0","1","0","1","4","2","3","2","2","1","2","4","4","3","3","775504684868964354","黄","416","","","","","","","","","","","","","","","","","","","true","14","4","moral","589","negative","卑鄙","","","","","","","","","","","","","","","","",""
"null","","null","html-keyboard-response","168","222547","0.0-6.0-1.0-8.0-0.30","3","4","4","4","4","3","4","2","4","4","4","5","5","4","4","5","4","5","5","4","2","2","2","2","2","2","3","2","3","1","0","1","1","0","1","1","1","1","0","0","0","1","0","1","4","2","3","2","2","1","2","4","4","3","3","775504684868964354","黄","416","","","","","","","","","","","","","","","","","","","","","","","","","","","","","","","","","","","","","","","","","",""
"659","<p style=""color:rgb(150, 250, 100); font-size: 35px;"">他的</p>","i","categorize-html","169","223213","0.0-6.0-1.0-8.0-1.30","3","4","4","4","4","3","4","2","4","4","4","5","5","4","4","5","4","5","5","4","2","2","2","2","2","2","3","2","3","1","0","1","1","0","1","1","1","1","0","0","0","1","0","1","4","2","3","2","2","1","2","4","4","3","3","775504684868964354","黄","416","","","","","","","","","","","","","","","","","","","true","14","4","moral","659","other","他的","","","","","","","","","","","","","","","","",""
"null","","null","html-keyboard-response","170","223475","0.0-6.0-1.0-8.0-0.31","3","4","4","4","4","3","4","2","4","4","4","5","5","4","4","5","4","5","5","4","2","2","2","2","2","2","3","2","3","1","0","1","1","0","1","1","1","1","0","0","0","1","0","1","4","2","3","2","2","1","2","4","4","3","3","775504684868964354","黄","416","","","","","","","","","","","","","","","","","","","","","","","","","","","","","","","","","","","","","","","","","",""
"893","<p style=""color:white; font-size: 35px;"">君子</p>","i","categorize-html","171","224374","0.0-6.0-1.0-8.0-1.31","3","4","4","4","4","3","4","2","4","4","4","5","5","4","4","5","4","5","5","4","2","2","2","2","2","2","3","2","3","1","0","1","1","0","1","1","1","1","0","0","0","1","0","1","4","2","3","2","2","1","2","4","4","3","3","775504684868964354","黄","416","","","","","","","","","","","","","","","","","","","true","14","4","moral","893","positive","君子","","","","","","","","","","","","","","","","",""
"null","","null","html-keyboard-response","172","224630","0.0-6.0-1.0-8.0-0.32","3","4","4","4","4","3","4","2","4","4","4","5","5","4","4","5","4","5","5","4","2","2","2","2","2","2","3","2","3","1","0","1","1","0","1","1","1","1","0","0","0","1","0","1","4","2","3","2","2","1","2","4","4","3","3","775504684868964354","黄","416","","","","","","","","","","","","","","","","","","","","","","","","","","","","","","","","","","","","","","","","","",""
"619","<p style=""color:rgb(150, 250, 100); font-size: 35px;"">自己</p>","e","categorize-html","173","225256","0.0-6.0-1.0-8.0-1.32","3","4","4","4","4","3","4","2","4","4","4","5","5","4","4","5","4","5","5","4","2","2","2","2","2","2","3","2","3","1","0","1","1","0","1","1","1","1","0","0","0","1","0","1","4","2","3","2","2","1","2","4","4","3","3","775504684868964354","黄","416","","","","","","","","","","","","","","","","","","","true","14","4","moral","619","self","自己","","","","","","","","","","","","","","","","",""
"null","","null","html-keyboard-response","174","225520","0.0-6.0-1.0-8.0-0.33","3","4","4","4","4","3","4","2","4","4","4","5","5","4","4","5","4","5","5","4","2","2","2","2","2","2","3","2","3","1","0","1","1","0","1","1","1","1","0","0","0","1","0","1","4","2","3","2","2","1","2","4","4","3","3","775504684868964354","黄","416","","","","","","","","","","","","","","","","","","","","","","","","","","","","","","","","","","","","","","","","","",""
"667","<p style=""color:white; font-size: 35px;"">卑鄙</p>","e","categorize-html","175","226194","0.0-6.0-1.0-8.0-1.33","3","4","4","4","4","3","4","2","4","4","4","5","5","4","4","5","4","5","5","4","2","2","2","2","2","2","3","2","3","1","0","1","1","0","1","1","1","1","0","0","0","1","0","1","4","2","3","2","2","1","2","4","4","3","3","775504684868964354","黄","416","","","","","","","","","","","","","","","","","","","true","14","4","moral","667","negative","卑鄙","","","","","","","","","","","","","","","","",""
"null","","null","html-keyboard-response","176","226459","0.0-6.0-1.0-8.0-0.34","3","4","4","4","4","3","4","2","4","4","4","5","5","4","4","5","4","5","5","4","2","2","2","2","2","2","3","2","3","1","0","1","1","0","1","1","1","1","0","0","0","1","0","1","4","2","3","2","2","1","2","4","4","3","3","775504684868964354","黄","416","","","","","","","","","","","","","","","","","","","","","","","","","","","","","","","","","","","","","","","","","",""
"634","<p style=""color:rgb(150, 250, 100); font-size: 35px;"">别人的</p>","i","categorize-html","177","227100","0.0-6.0-1.0-8.0-1.34","3","4","4","4","4","3","4","2","4","4","4","5","5","4","4","5","4","5","5","4","2","2","2","2","2","2","3","2","3","1","0","1","1","0","1","1","1","1","0","0","0","1","0","1","4","2","3","2","2","1","2","4","4","3","3","775504684868964354","黄","416","","","","","","","","","","","","","","","","","","","true","14","4","moral","634","other","别人的","","","","","","","","","","","","","","","","",""
"null","","null","html-keyboard-response","178","227359","0.0-6.0-1.0-8.0-0.35","3","4","4","4","4","3","4","2","4","4","4","5","5","4","4","5","4","5","5","4","2","2","2","2","2","2","3","2","3","1","0","1","1","0","1","1","1","1","0","0","0","1","0","1","4","2","3","2","2","1","2","4","4","3","3","775504684868964354","黄","416","","","","","","","","","","","","","","","","","","","","","","","","","","","","","","","","","","","","","","","","","",""
"759","<p style=""color:white; font-size: 35px;"">廉正</p>","i","categorize-html","179","228125","0.0-6.0-1.0-8.0-1.35","3","4","4","4","4","3","4","2","4","4","4","5","5","4","4","5","4","5","5","4","2","2","2","2","2","2","3","2","3","1","0","1","1","0","1","1","1","1","0","0","0","1","0","1","4","2","3","2","2","1","2","4","4","3","3","775504684868964354","黄","416","","","","","","","","","","","","","","","","","","","true","14","4","moral","759","positive","廉正","","","","","","","","","","","","","","","","",""
"null","","null","html-keyboard-response","180","228382","0.0-6.0-1.0-8.0-0.36","3","4","4","4","4","3","4","2","4","4","4","5","5","4","4","5","4","5","5","4","2","2","2","2","2","2","3","2","3","1","0","1","1","0","1","1","1","1","0","0","0","1","0","1","4","2","3","2","2","1","2","4","4","3","3","775504684868964354","黄","416","","","","","","","","","","","","","","","","","","","","","","","","","","","","","","","","","","","","","","","","","",""
"624","<p style=""color:rgb(150, 250, 100); font-size: 35px;"">本人</p>","e","categorize-html","181","229013","0.0-6.0-1.0-8.0-1.36","3","4","4","4","4","3","4","2","4","4","4","5","5","4","4","5","4","5","5","4","2","2","2","2","2","2","3","2","3","1","0","1","1","0","1","1","1","1","0","0","0","1","0","1","4","2","3","2","2","1","2","4","4","3","3","775504684868964354","黄","416","","","","","","","","","","","","","","","","","","","true","14","4","moral","624","self","本人","","","","","","","","","","","","","","","","",""
"null","","null","html-keyboard-response","182","229268","0.0-6.0-1.0-8.0-0.37","3","4","4","4","4","3","4","2","4","4","4","5","5","4","4","5","4","5","5","4","2","2","2","2","2","2","3","2","3","1","0","1","1","0","1","1","1","1","0","0","0","1","0","1","4","2","3","2","2","1","2","4","4","3","3","775504684868964354","黄","416","","","","","","","","","","","","","","","","","","","","","","","","","","","","","","","","","","","","","","","","","",""
"647","<p style=""color:white; font-size: 35px;"">黑心</p>","e","categorize-html","183","229922","0.0-6.0-1.0-8.0-1.37","3","4","4","4","4","3","4","2","4","4","4","5","5","4","4","5","4","5","5","4","2","2","2","2","2","2","3","2","3","1","0","1","1","0","1","1","1","1","0","0","0","1","0","1","4","2","3","2","2","1","2","4","4","3","3","775504684868964354","黄","416","","","","","","","","","","","","","","","","","","","true","14","4","moral","647","negative","黑心","","","","","","","","","","","","","","","","",""
"null","","null","html-keyboard-response","184","230175","0.0-6.0-1.0-8.0-0.38","3","4","4","4","4","3","4","2","4","4","4","5","5","4","4","5","4","5","5","4","2","2","2","2","2","2","3","2","3","1","0","1","1","0","1","1","1","1","0","0","0","1","0","1","4","2","3","2","2","1","2","4","4","3","3","775504684868964354","黄","416","","","","","","","","","","","","","","","","","","","","","","","","","","","","","","","","","","","","","","","","","",""
"611","<p style=""color:rgb(150, 250, 100); font-size: 35px;"">他人的</p>","i","categorize-html","185","230792","0.0-6.0-1.0-8.0-1.38","3","4","4","4","4","3","4","2","4","4","4","5","5","4","4","5","4","5","5","4","2","2","2","2","2","2","3","2","3","1","0","1","1","0","1","1","1","1","0","0","0","1","0","1","4","2","3","2","2","1","2","4","4","3","3","775504684868964354","黄","416","","","","","","","","","","","","","","","","","","","true","14","4","moral","611","other","他人的","","","","","","","","","","","","","","","","",""
"null","","null","html-keyboard-response","186","231049","0.0-6.0-1.0-8.0-0.39","3","4","4","4","4","3","4","2","4","4","4","5","5","4","4","5","4","5","5","4","2","2","2","2","2","2","3","2","3","1","0","1","1","0","1","1","1","1","0","0","0","1","0","1","4","2","3","2","2","1","2","4","4","3","3","775504684868964354","黄","416","","","","","","","","","","","","","","","","","","","","","","","","","","","","","","","","","","","","","","","","","",""
"1081","<p style=""color:white; font-size: 35px;"">君子</p>","i","categorize-html","187","232136","0.0-6.0-1.0-8.0-1.39","3","4","4","4","4","3","4","2","4","4","4","5","5","4","4","5","4","5","5","4","2","2","2","2","2","2","3","2","3","1","0","1","1","0","1","1","1","1","0","0","0","1","0","1","4","2","3","2","2","1","2","4","4","3","3","775504684868964354","黄","416","","","","","","","","","","","","","","","","","","","true","14","4","moral","1081","positive","君子","","","","","","","","","","","","","","","","",""
"null","","null","html-keyboard-response","188","232397","0.0-6.0-1.0-8.0-0.40","3","4","4","4","4","3","4","2","4","4","4","5","5","4","4","5","4","5","5","4","2","2","2","2","2","2","3","2","3","1","0","1","1","0","1","1","1","1","0","0","0","1","0","1","4","2","3","2","2","1","2","4","4","3","3","775504684868964354","黄","416","","","","","","","","","","","","","","","","","","","","","","","","","","","","","","","","","","","","","","","","","",""
"678","<p style=""color:rgb(150, 250, 100); font-size: 35px;"">自己的</p>","e","categorize-html","189","233081","0.0-6.0-1.0-8.0-1.40","3","4","4","4","4","3","4","2","4","4","4","5","5","4","4","5","4","5","5","4","2","2","2","2","2","2","3","2","3","1","0","1","1","0","1","1","1","1","0","0","0","1","0","1","4","2","3","2","2","1","2","4","4","3","3","775504684868964354","黄","416","","","","","","","","","","","","","","","","","","","true","14","4","moral","678","self","自己的","","","","","","","","","","","","","","","","",""
"null","","null","html-keyboard-response","190","233343","0.0-6.0-1.0-8.0-0.41","3","4","4","4","4","3","4","2","4","4","4","5","5","4","4","5","4","5","5","4","2","2","2","2","2","2","3","2","3","1","0","1","1","0","1","1","1","1","0","0","0","1","0","1","4","2","3","2","2","1","2","4","4","3","3","775504684868964354","黄","416","","","","","","","","","","","","","","","","","","","","","","","","","","","","","","","","","","","","","","","","","",""
"700","<p style=""color:white; font-size: 35px;"">不孝</p>","e","categorize-html","191","234049","0.0-6.0-1.0-8.0-1.41","3","4","4","4","4","3","4","2","4","4","4","5","5","4","4","5","4","5","5","4","2","2","2","2","2","2","3","2","3","1","0","1","1","0","1","1","1","1","0","0","0","1","0","1","4","2","3","2","2","1","2","4","4","3","3","775504684868964354","黄","416","","","","","","","","","","","","","","","","","","","true","14","4","moral","700","negative","不孝","","","","","","","","","","","","","","","","",""
"null","","null","html-keyboard-response","192","234301","0.0-6.0-1.0-8.0-0.42","3","4","4","4","4","3","4","2","4","4","4","5","5","4","4","5","4","5","5","4","2","2","2","2","2","2","3","2","3","1","0","1","1","0","1","1","1","1","0","0","0","1","0","1","4","2","3","2","2","1","2","4","4","3","3","775504684868964354","黄","416","","","","","","","","","","","","","","","","","","","","","","","","","","","","","","","","","","","","","","","","","",""
"1151","<p style=""color:rgb(150, 250, 100); font-size: 35px;"">别人</p>","i","categorize-html","193","235458","0.0-6.0-1.0-8.0-1.42","3","4","4","4","4","3","4","2","4","4","4","5","5","4","4","5","4","5","5","4","2","2","2","2","2","2","3","2","3","1","0","1","1","0","1","1","1","1","0","0","0","1","0","1","4","2","3","2","2","1","2","4","4","3","3","775504684868964354","黄","416","","","","","","","","","","","","","","","","","","","true","14","4","moral","1151","other","别人","","","","","","","","","","","","","","","","",""
