"rt","stimulus","response","trial_type","trial_index","time_elapsed","internal_node_id","ses_1","ses_2","ses_3","ses_4","ses_5","ses_6","ses_7","ses_8","ses_9","ses_10","coreself_1","coreself_2","coreself_3","coreself_4","coreself_5","coreself_6","coreself_7","coreself_8","coreself_9","coreself_10","SGPS_1","SGPS_2","SGPS_3","SGPS_4","SGPS_5","SGPS_6","SGPS_7","SGPS_8","SGPS_9","NPI1","NPI2","NPI3","NPI4","NPI5","NPI6","NPI7","NPI8","NPI9","NPI10","NPI11","NPI12","NPI13","NPI14","NPI15","hsns_1","hsns_2","hsns_3","hsns_4","hsns_5","trap1","hsns_6","hsns_7","hsns_8","hsns_9","hsns_10","subj_idx","friend_name","ParticipantID","value","success","user_agent","responses","item_order","radio_event_ids","radio_event_times","key_event_times","mouse_event_times","straightlining","zigzagging","honeypot","timeout","failed_images","failed_audio","failed_video","view_history","response_type","key_press","avg_frame_time","center_x","center_y","correct_response","correct","identity","Image","word","condition","task_id","screen_id","time_stamp","version_attrib2","version_target2","IAT","RT","varname","summary","version_attrib","version_target","question_order","correct_answer","trap1_item"
"10023","
   <p><div style = ""color: white;font-size:25px;"">您好，欢迎参加本次实验。</div> </p>
   <p><div style = ""color: white;font-size:25px;"">为充分保障您的权利，请确保您已经知晓并同意《参与实验同意书》以及《数据公开知情同意书》。</div></p>
   <p><div style = ""color: white;font-size:25px;"">如果您未见过上述内容，请咨询实验员。</div></p>
   <p><div style = ""color: white;font-size:25px;"">如果您选择继续实验，则表示您已经清楚两份知情同意书的内容并同意。</div></p>
   <p><div style = ""color: pink;font-size:30px;"">请确保您记得day0的实验编号，您将在本次实验输入该编号，若您忘记，请咨询实验员后作答。</div></p>
   <p><div style = ""color: lightblue;font-size:25px;"">请您尽可能认真地作答，我们将依据您在各问卷和按键任务中的作答质量发放报酬。</div></p>
   <p> <div style = ""color: green;font-size:25px;""><按空格键至下页></div> </p>
   "," ","html-keyboard-response","0","10026","0.0-0.0","3","4","4","3","4","3","4","4","4","4","4","5","5","4","5","4","5","5","5","5","1","1","2","1","2","2","1","5","1","0","0","0","0","1","1","0","0","0","0","0","0","0","0","0","5","1","1","1","2","5","2","4","2","3","1","781451640430661634","王","373","","","","","","","","","","","","","","","","","","","","","","","","","","","","","","","","","","","","","","","","","",""
"","","","call-function","1","10031","0.0-1.0-0.0","3","4","4","3","4","3","4","4","4","4","4","5","5","4","5","4","5","5","5","5","1","1","2","1","2","2","1","5","1","0","0","0","0","1","1","0","0","0","0","0","0","0","0","0","5","1","1","1","2","5","2","4","2","3","1","781451640430661634","王","373","","","","","","","","","","","","","","","","","","","","","","","","","","","","","","","","","","","","","","","","","",""
"20537","","{""friend_name"":""王"",""ParticipantID"":""373""}","survey-html-form","2","30569","0.0-1.0-1.0","3","4","4","3","4","3","4","4","4","4","4","5","5","4","5","4","5","5","5","5","1","1","2","1","2","2","1","5","1","0","0","0","0","1","1","0","0","0","0","0","0","0","0","0","5","1","1","1","2","5","2","4","2","3","1","781451640430661634","王","373","","","","","","","","","","","","","","","","","","","","","","","","","","","","","","","","","","","","","","","","","",""
"","","","fullscreen","3","50102","0.0-2.0","3","4","4","3","4","3","4","4","4","4","4","5","5","4","5","4","5","5","5","5","1","1","2","1","2","2","1","5","1","0","0","0","0","1","1","0","0","0","0","0","0","0","0","0","5","1","1","1","2","5","2","4","2","3","1","781451640430661634","王","373","","true","{}","","","","","","","","","","","","","","","","","","","","","","","","","","","","","","","","","","","","","","",""
"31290.800000000745","","{""Q01"":""3"",""Q02"":""4"",""Q03"":""4"",""Q04"":""3"",""Q05"":""4"",""Q06"":""3"",""Q07"":""4"",""Q08"":""4"",""Q09"":""4"",""Q10"":""4""}","survey-template","4","81395","0.0-3.0","3","4","4","3","4","3","4","4","4","4","4","5","5","4","5","4","5","5","5","5","1","1","2","1","2","2","1","5","1","0","0","0","0","1","1","0","0","0","0","0","0","0","0","0","5","1","1","1","2","5","2","4","2","3","1","781451640430661634","王","373","","","","{""Q01"":""3"",""Q02"":""4"",""Q03"":""4"",""Q04"":""3"",""Q05"":""4"",""Q06"":""3"",""Q07"":""4"",""Q08"":""4"",""Q09"":""4"",""Q10"":""4""}","[0,1,2,3,4,5,6,7,8,9]","[""Q01"",""Q02"",""Q04"",""Q03"",""Q05"",""Q06"",""Q07"",""Q08"",""Q09"",""Q10""]","[3793.300000000745,8186.800000000745,10665.300000000745,11809.699999999255,12633.099999997765,14033.39999999851,15713.5,19569.199999999255,21145.300000000745,23321.800000000745]","[]","[3793.300000000745,5513.39999999851,7553.099999997765,8186.800000000745,9161.39999999851,10009.199999999255,10665.300000000745,11809.699999999255,12633.099999997765,14033.39999999851,15713.5,17417.39999999851,17681.199999999255,18329.199999999255,18625.39999999851,19313.099999997765,19569.199999999255,21145.300000000745,23321.800000000745,31289.5]","0.5","0.4444444444444444","0","","","","","","","","","","","","","","","","","","","","","","","","","","","","","",""
"23307.300000000745","","{""Q01"":""4"",""Q02"":""5"",""Q03"":""5"",""Q04"":""4"",""Q05"":""5"",""Q06"":""4"",""Q07"":""5"",""Q08"":""5"",""Q09"":""5"",""Q10"":""5""}","survey-template","5","104707","0.0-4.0","3","4","4","3","4","3","4","4","4","4","4","5","5","4","5","4","5","5","5","5","1","1","2","1","2","2","1","5","1","0","0","0","0","1","1","0","0","0","0","0","0","0","0","0","5","1","1","1","2","5","2","4","2","3","1","781451640430661634","王","373","","","","{""Q01"":""4"",""Q02"":""5"",""Q03"":""5"",""Q04"":""4"",""Q05"":""5"",""Q06"":""4"",""Q07"":""5"",""Q08"":""5"",""Q09"":""5"",""Q10"":""5""}","[0,1,2,3,4,5,6,7,8,9]","[""Q01"",""Q02"",""Q03"",""Q04"",""Q05"",""Q06"",""Q07"",""Q08"",""Q09"",""Q10""]","[2154.5,3594.400000002235,5426.60000000149,6578.800000000745,10450.400000002235,11730.900000002235,13546.699999999255,17250.300000000745,19468,21130.5]","[]","[2154.5,3594.400000002235,5426.60000000149,6578.800000000745,10450.400000002235,11730.900000002235,13546.699999999255,17250.300000000745,19468,21130.5,23306.5]","0.6","0.2222222222222222","0","","","","","","","","","","","","","","","","","","","","","","","","","","","","","",""
"","","","preload","6","104972","0.0-5.0","3","4","4","3","4","3","4","4","4","4","4","5","5","4","5","4","5","5","5","5","1","1","2","1","2","2","1","5","1","0","0","0","0","1","1","0","0","0","0","0","0","0","0","0","5","1","1","1","2","5","2","4","2","3","1","781451640430661634","王","373","","true","","","","","","","","","","","false","[]","[]","[]","","","","","","","","","","","","","","","","","","","","","","","","","",""
"19189","","","instructions","7","124161","0.0-6.0","3","4","4","3","4","3","4","4","4","4","4","5","5","4","5","4","5","5","5","5","1","1","2","1","2","2","1","5","1","0","0","0","0","1","1","0","0","0","0","0","0","0","0","0","5","1","1","1","2","5","2","4","2","3","1","781451640430661634","王","373","","","","","","","","","","","","","","","","","[{""page_index"":0,""viewing_time"":19188}]","","","","","","","","","","","","","","","","","","","","","","","","",""
"63063","","","instructions","8","187225","0.0-7.0-1.0-0.0","3","4","4","3","4","3","4","4","4","4","4","5","5","4","5","4","5","5","5","5","1","1","2","1","2","2","1","5","1","0","0","0","0","1","1","0","0","0","0","0","0","0","0","0","5","1","1","1","2","5","2","4","2","3","1","781451640430661634","王","373","","","","","","","","","","","","","","","","","[{""page_index"":0,""viewing_time"":46791},{""page_index"":1,""viewing_time"":11624},{""page_index"":2,""viewing_time"":4648}]","","","","","","","","","","","","","","","","","","","","","","","","",""
"928","","f","psychophysics","9","189158","0.0-7.0-1.0-1.0-0.0-0.0","3","4","4","3","4","3","4","4","4","4","4","5","5","4","5","4","5","5","5","5","1","1","2","1","2","2","1","5","1","0","0","0","0","1","1","0","0","0","0","0","0","0","0","0","5","1","1","1","2","5","2","4","2","3","1","781451640430661634","王","373","","","","nonmatch","","","","","","","","","","","","","","key","f","7.072693726937205","768","428","f","true","nonmatch","img/hexagon.png","椭圆","六边","ALT1_2","prac_ALT1_2","","","","","","","","","","","",""
"null","<span style='color:GreenYellow; font-size: 70px;'>正确! </span>","null","html-keyboard-response","10","189660","0.0-7.0-1.0-1.0-0.0-1.0","3","4","4","3","4","3","4","4","4","4","4","5","5","4","5","4","5","5","5","5","1","1","2","1","2","2","1","5","1","0","0","0","0","1","1","0","0","0","0","0","0","0","0","0","5","1","1","1","2","5","2","4","2","3","1","781451640430661634","王","373","","","","","","","","","","","","","","","","","","","","","","","","","","","","","","feedback_test","","","","","","","","","","","",""
"1035","","j","psychophysics","11","191696","0.0-7.0-1.0-1.0-0.0-0.1","3","4","4","3","4","3","4","4","4","4","4","5","5","4","5","4","5","5","5","5","1","1","2","1","2","2","1","5","1","0","0","0","0","1","1","0","0","0","0","0","0","0","0","0","5","1","1","1","2","5","2","4","2","3","1","781451640430661634","王","373","","","","match","","","","","","","","","","","","","","key","j","6.94417808219182","768","428","j","true","match","img/hexagon.png","六边","六边","ALT1_2","prac_ALT1_2","","","","","","","","","","","",""
"null","<span style='color:GreenYellow; font-size: 70px;'>正确! </span>","null","html-keyboard-response","12","192196","0.0-7.0-1.0-1.0-0.0-1.1","3","4","4","3","4","3","4","4","4","4","4","5","5","4","5","4","5","5","5","5","1","1","2","1","2","2","1","5","1","0","0","0","0","1","1","0","0","0","0","0","0","0","0","0","5","1","1","1","2","5","2","4","2","3","1","781451640430661634","王","373","","","","","","","","","","","","","","","","","","","","","","","","","","","","","","feedback_test","","","","","","","","","","","",""
"null","","null","psychophysics","13","194399","0.0-7.0-1.0-1.0-0.0-0.2","3","4","4","3","4","3","4","4","4","4","4","5","5","4","5","4","5","5","5","5","1","1","2","1","2","2","1","5","1","0","0","0","0","1","1","0","0","0","0","0","0","0","0","0","5","1","1","1","2","5","2","4","2","3","1","781451640430661634","王","373","","","","null","","","","","","","","","","","","","","key","null","6.944303797468336","768","428","j","false","match","img/triangle.png","三角","三角","ALT1_2","prac_ALT1_2","","","","","","","","","","","",""
"null","<span class='add_' style='color:yellow; font-size: 70px;'> 太慢! </span>","null","html-keyboard-response","14","194900","0.0-7.0-1.0-1.0-0.0-1.2","3","4","4","3","4","3","4","4","4","4","4","5","5","4","5","4","5","5","5","5","1","1","2","1","2","2","1","5","1","0","0","0","0","1","1","0","0","0","0","0","0","0","0","0","5","1","1","1","2","5","2","4","2","3","1","781451640430661634","王","373","","","","","","","","","","","","","","","","","","","","","","","","","","","","","","feedback_test","","","","","","","","","","","",""
"737","","j","psychophysics","15","196638","0.0-7.0-1.0-1.0-0.0-0.3","3","4","4","3","4","3","4","4","4","4","4","5","5","4","5","4","5","5","5","5","1","1","2","1","2","2","1","5","1","0","0","0","0","1","1","0","0","0","0","0","0","0","0","0","5","1","1","1","2","5","2","4","2","3","1","781451640430661634","王","373","","","","match","","","","","","","","","","","","","","key","j","6.9417670682730925","768","428","j","true","match","img/hexagon.png","六边","六边","ALT1_2","prac_ALT1_2","","","","","","","","","","","",""
"null","<span style='color:GreenYellow; font-size: 70px;'>正确! </span>","null","html-keyboard-response","16","197139","0.0-7.0-1.0-1.0-0.0-1.3","3","4","4","3","4","3","4","4","4","4","4","5","5","4","5","4","5","5","5","5","1","1","2","1","2","2","1","5","1","0","0","0","0","1","1","0","0","0","0","0","0","0","0","0","5","1","1","1","2","5","2","4","2","3","1","781451640430661634","王","373","","","","","","","","","","","","","","","","","","","","","","","","","","","","","","feedback_test","","","","","","","","","","","",""
"721","","f","psychophysics","17","198862","0.0-7.0-1.0-1.0-0.0-0.4","3","4","4","3","4","3","4","4","4","4","4","5","5","4","5","4","5","5","5","5","1","1","2","1","2","2","1","5","1","0","0","0","0","1","1","0","0","0","0","0","0","0","0","0","5","1","1","1","2","5","2","4","2","3","1","781451640430661634","王","373","","","","nonmatch","","","","","","","","","","","","","","key","f","6.944939271255037","768","428","j","false","match","img/diamond.png","菱形","菱形","ALT1_2","prac_ALT1_2","","","","","","","","","","","",""
"null","<span style='color:red; font-size: 70px;'>错误! </span>","null","html-keyboard-response","18","199370","0.0-7.0-1.0-1.0-0.0-1.4","3","4","4","3","4","3","4","4","4","4","4","5","5","4","5","4","5","5","5","5","1","1","2","1","2","2","1","5","1","0","0","0","0","1","1","0","0","0","0","0","0","0","0","0","5","1","1","1","2","5","2","4","2","3","1","781451640430661634","王","373","","","","","","","","","","","","","","","","","","","","","","","","","","","","","","feedback_test","","","","","","","","","","","",""
"565","","j","psychophysics","19","200937","0.0-7.0-1.0-1.0-0.0-0.5","3","4","4","3","4","3","4","4","4","4","4","5","5","4","5","4","5","5","5","5","1","1","2","1","2","2","1","5","1","0","0","0","0","1","1","0","0","0","0","0","0","0","0","0","5","1","1","1","2","5","2","4","2","3","1","781451640430661634","王","373","","","","match","","","","","","","","","","","","","","key","j","6.944444444444445","768","428","f","false","nonmatch","img/ellipse.png","菱形","椭圆","ALT1_2","prac_ALT1_2","","","","","","","","","","","",""
"null","<span style='color:red; font-size: 70px;'>错误! </span>","null","html-keyboard-response","20","201437","0.0-7.0-1.0-1.0-0.0-1.5","3","4","4","3","4","3","4","4","4","4","4","5","5","4","5","4","5","5","5","5","1","1","2","1","2","2","1","5","1","0","0","0","0","1","1","0","0","0","0","0","0","0","0","0","5","1","1","1","2","5","2","4","2","3","1","781451640430661634","王","373","","","","","","","","","","","","","","","","","","","","","","","","","","","","","","feedback_test","","","","","","","","","","","",""
"596","","j","psychophysics","21","203034","0.0-7.0-1.0-1.0-0.0-0.6","3","4","4","3","4","3","4","4","4","4","4","5","5","4","5","4","5","5","5","5","1","1","2","1","2","2","1","5","1","0","0","0","0","1","1","0","0","0","0","0","0","0","0","0","5","1","1","1","2","5","2","4","2","3","1","781451640430661634","王","373","","","","match","","","","","","","","","","","","","","key","j","6.944541484716106","768","428","j","true","match","img/ellipse.png","椭圆","椭圆","ALT1_2","prac_ALT1_2","","","","","","","","","","","",""
"null","<span style='color:GreenYellow; font-size: 70px;'>正确! </span>","null","html-keyboard-response","22","203535","0.0-7.0-1.0-1.0-0.0-1.6","3","4","4","3","4","3","4","4","4","4","4","5","5","4","5","4","5","5","5","5","1","1","2","1","2","2","1","5","1","0","0","0","0","1","1","0","0","0","0","0","0","0","0","0","5","1","1","1","2","5","2","4","2","3","1","781451640430661634","王","373","","","","","","","","","","","","","","","","","","","","","","","","","","","","","","feedback_test","","","","","","","","","","","",""
"1067","","f","psychophysics","23","205603","0.0-7.0-1.0-1.0-0.0-0.7","3","4","4","3","4","3","4","4","4","4","4","5","5","4","5","4","5","5","5","5","1","1","2","1","2","2","1","5","1","0","0","0","0","1","1","0","0","0","0","0","0","0","0","0","5","1","1","1","2","5","2","4","2","3","1","781451640430661634","王","373","","","","nonmatch","","","","","","","","","","","","","","key","f","6.944444444444445","768","428","f","true","nonmatch","img/diamond.png","椭圆","菱形","ALT1_2","prac_ALT1_2","","","","","","","","","","","",""
"null","<span style='color:GreenYellow; font-size: 70px;'>正确! </span>","null","html-keyboard-response","24","206104","0.0-7.0-1.0-1.0-0.0-1.7","3","4","4","3","4","3","4","4","4","4","4","5","5","4","5","4","5","5","5","5","1","1","2","1","2","2","1","5","1","0","0","0","0","1","1","0","0","0","0","0","0","0","0","0","5","1","1","1","2","5","2","4","2","3","1","781451640430661634","王","373","","","","","","","","","","","","","","","","","","","","","","","","","","","","","","feedback_test","","","","","","","","","","","",""
"null","","null","psychophysics","25","208311","0.0-7.0-1.0-1.0-0.0-0.8","3","4","4","3","4","3","4","4","4","4","4","5","5","4","5","4","5","5","5","5","1","1","2","1","2","2","1","5","1","0","0","0","0","1","1","0","0","0","0","0","0","0","0","0","5","1","1","1","2","5","2","4","2","3","1","781451640430661634","王","373","","","","null","","","","","","","","","","","","","","key","null","6.944620253164557","768","428","f","false","nonmatch","img/diamond.png","六边","菱形","ALT1_2","prac_ALT1_2","","","","","","","","","","","",""
"null","<span class='add_' style='color:yellow; font-size: 70px;'> 太慢! </span>","null","html-keyboard-response","26","208812","0.0-7.0-1.0-1.0-0.0-1.8","3","4","4","3","4","3","4","4","4","4","4","5","5","4","5","4","5","5","5","5","1","1","2","1","2","2","1","5","1","0","0","0","0","1","1","0","0","0","0","0","0","0","0","0","5","1","1","1","2","5","2","4","2","3","1","781451640430661634","王","373","","","","","","","","","","","","","","","","","","","","","","","","","","","","","","feedback_test","","","","","","","","","","","",""
"597","","j","psychophysics","27","210410","0.0-7.0-1.0-1.0-0.0-0.9","3","4","4","3","4","3","4","4","4","4","4","5","5","4","5","4","5","5","5","5","1","1","2","1","2","2","1","5","1","0","0","0","0","1","1","0","0","0","0","0","0","0","0","0","5","1","1","1","2","5","2","4","2","3","1","781451640430661634","王","373","","","","match","","","","","","","","","","","","","","key","j","6.944541484716106","768","428","f","false","nonmatch","img/ellipse.png","三角","椭圆","ALT1_2","prac_ALT1_2","","","","","","","","","","","",""
"null","<span style='color:red; font-size: 70px;'>错误! </span>","null","html-keyboard-response","28","210912","0.0-7.0-1.0-1.0-0.0-1.9","3","4","4","3","4","3","4","4","4","4","4","5","5","4","5","4","5","5","5","5","1","1","2","1","2","2","1","5","1","0","0","0","0","1","1","0","0","0","0","0","0","0","0","0","5","1","1","1","2","5","2","4","2","3","1","781451640430661634","王","373","","","","","","","","","","","","","","","","","","","","","","","","","","","","","","feedback_test","","","","","","","","","","","",""
"880","","f","psychophysics","29","212793","0.0-7.0-1.0-1.0-0.0-0.10","3","4","4","3","4","3","4","4","4","4","4","5","5","4","5","4","5","5","5","5","1","1","2","1","2","2","1","5","1","0","0","0","0","1","1","0","0","0","0","0","0","0","0","0","5","1","1","1","2","5","2","4","2","3","1","781451640430661634","王","373","","","","nonmatch","","","","","","","","","","","","","","key","f","6.944444444444445","768","428","f","true","nonmatch","img/hexagon.png","三角","六边","ALT1_2","prac_ALT1_2","","","","","","","","","","","",""
"null","<span style='color:GreenYellow; font-size: 70px;'>正确! </span>","null","html-keyboard-response","30","213294","0.0-7.0-1.0-1.0-0.0-1.10","3","4","4","3","4","3","4","4","4","4","4","5","5","4","5","4","5","5","5","5","1","1","2","1","2","2","1","5","1","0","0","0","0","1","1","0","0","0","0","0","0","0","0","0","5","1","1","1","2","5","2","4","2","3","1","781451640430661634","王","373","","","","","","","","","","","","","","","","","","","","","","","","","","","","","","feedback_test","","","","","","","","","","","",""
"810","","j","psychophysics","31","215107","0.0-7.0-1.0-1.0-0.0-0.11","3","4","4","3","4","3","4","4","4","4","4","5","5","4","5","4","5","5","5","5","1","1","2","1","2","2","1","5","1","0","0","0","0","1","1","0","0","0","0","0","0","0","0","0","5","1","1","1","2","5","2","4","2","3","1","781451640430661634","王","373","","","","match","","","","","","","","","","","","","","key","j","6.944615384615295","768","428","j","true","match","img/ellipse.png","椭圆","椭圆","ALT1_2","prac_ALT1_2","","","","","","","","","","","",""
"null","<span style='color:GreenYellow; font-size: 70px;'>正确! </span>","null","html-keyboard-response","32","215608","0.0-7.0-1.0-1.0-0.0-1.11","3","4","4","3","4","3","4","4","4","4","4","5","5","4","5","4","5","5","5","5","1","1","2","1","2","2","1","5","1","0","0","0","0","1","1","0","0","0","0","0","0","0","0","0","5","1","1","1","2","5","2","4","2","3","1","781451640430661634","王","373","","","","","","","","","","","","","","","","","","","","","","","","","","","","","","feedback_test","","","","","","","","","","","",""
"708","","f","psychophysics","33","217316","0.0-7.0-1.0-1.0-0.0-0.12","3","4","4","3","4","3","4","4","4","4","4","5","5","4","5","4","5","5","5","5","1","1","2","1","2","2","1","5","1","0","0","0","0","1","1","0","0","0","0","0","0","0","0","0","5","1","1","1","2","5","2","4","2","3","1","781451640430661634","王","373","","","","nonmatch","","","","","","","","","","","","","","key","f","6.944489795918344","768","428","f","true","nonmatch","img/triangle.png","椭圆","三角","ALT1_2","prac_ALT1_2","","","","","","","","","","","",""
"null","<span style='color:GreenYellow; font-size: 70px;'>正确! </span>","null","html-keyboard-response","34","217817","0.0-7.0-1.0-1.0-0.0-1.12","3","4","4","3","4","3","4","4","4","4","4","5","5","4","5","4","5","5","5","5","1","1","2","1","2","2","1","5","1","0","0","0","0","1","1","0","0","0","0","0","0","0","0","0","5","1","1","1","2","5","2","4","2","3","1","781451640430661634","王","373","","","","","","","","","","","","","","","","","","","","","","","","","","","","","","feedback_test","","","","","","","","","","","",""
"701","","j","psychophysics","35","219519","0.0-7.0-1.0-1.0-0.0-0.13","3","4","4","3","4","3","4","4","4","4","4","5","5","4","5","4","5","5","5","5","1","1","2","1","2","2","1","5","1","0","0","0","0","1","1","0","0","0","0","0","0","0","0","0","5","1","1","1","2","5","2","4","2","3","1","781451640430661634","王","373","","","","match","","","","","","","","","","","","","","key","j","6.9438524590163455","768","428","j","true","match","img/diamond.png","菱形","菱形","ALT1_2","prac_ALT1_2","","","","","","","","","","","",""
"null","<span style='color:GreenYellow; font-size: 70px;'>正确! </span>","null","html-keyboard-response","36","220020","0.0-7.0-1.0-1.0-0.0-1.13","3","4","4","3","4","3","4","4","4","4","4","5","5","4","5","4","5","5","5","5","1","1","2","1","2","2","1","5","1","0","0","0","0","1","1","0","0","0","0","0","0","0","0","0","5","1","1","1","2","5","2","4","2","3","1","781451640430661634","王","373","","","","","","","","","","","","","","","","","","","","","","","","","","","","","","feedback_test","","","","","","","","","","","",""
"671","","j","psychophysics","37","221692","0.0-7.0-1.0-1.0-0.0-0.14","3","4","4","3","4","3","4","4","4","4","4","5","5","4","5","4","5","5","5","5","1","1","2","1","2","2","1","5","1","0","0","0","0","1","1","0","0","0","0","0","0","0","0","0","5","1","1","1","2","5","2","4","2","3","1","781451640430661634","王","373","","","","match","","","","","","","","","","","","","","key","j","6.944351464435195","768","428","j","true","match","img/triangle.png","三角","三角","ALT1_2","prac_ALT1_2","","","","","","","","","","","",""
"null","<span style='color:GreenYellow; font-size: 70px;'>正确! </span>","null","html-keyboard-response","38","222193","0.0-7.0-1.0-1.0-0.0-1.14","3","4","4","3","4","3","4","4","4","4","4","5","5","4","5","4","5","5","5","5","1","1","2","1","2","2","1","5","1","0","0","0","0","1","1","0","0","0","0","0","0","0","0","0","5","1","1","1","2","5","2","4","2","3","1","781451640430661634","王","373","","","","","","","","","","","","","","","","","","","","","","","","","","","","","","feedback_test","","","","","","","","","","","",""
"521","","j","psychophysics","39","223716","0.0-7.0-1.0-1.0-0.0-0.15","3","4","4","3","4","3","4","4","4","4","4","5","5","4","5","4","5","5","5","5","1","1","2","1","2","2","1","5","1","0","0","0","0","1","1","0","0","0","0","0","0","0","0","0","5","1","1","1","2","5","2","4","2","3","1","781451640430661634","王","373","","","","match","","","","","","","","","","","","","","key","j","6.94449541284401","768","428","j","true","match","img/triangle.png","三角","三角","ALT1_2","prac_ALT1_2","","","","","","","","","","","",""
"null","<span style='color:GreenYellow; font-size: 70px;'>正确! </span>","null","html-keyboard-response","40","224218","0.0-7.0-1.0-1.0-0.0-1.15","3","4","4","3","4","3","4","4","4","4","4","5","5","4","5","4","5","5","5","5","1","1","2","1","2","2","1","5","1","0","0","0","0","1","1","0","0","0","0","0","0","0","0","0","5","1","1","1","2","5","2","4","2","3","1","781451640430661634","王","373","","","","","","","","","","","","","","","","","","","","","","","","","","","","","","feedback_test","","","","","","","","","","","",""
"660","","f","psychophysics","41","225880","0.0-7.0-1.0-1.0-0.0-0.16","3","4","4","3","4","3","4","4","4","4","4","5","5","4","5","4","5","5","5","5","1","1","2","1","2","2","1","5","1","0","0","0","0","1","1","0","0","0","0","0","0","0","0","0","5","1","1","1","2","5","2","4","2","3","1","781451640430661634","王","373","","","","nonmatch","","","","","","","","","","","","","","key","f","6.944537815126002","768","428","j","false","match","img/hexagon.png","六边","六边","ALT1_2","prac_ALT1_2","","","","","","","","","","","",""
"null","<span style='color:red; font-size: 70px;'>错误! </span>","null","html-keyboard-response","42","226382","0.0-7.0-1.0-1.0-0.0-1.16","3","4","4","3","4","3","4","4","4","4","4","5","5","4","5","4","5","5","5","5","1","1","2","1","2","2","1","5","1","0","0","0","0","1","1","0","0","0","0","0","0","0","0","0","5","1","1","1","2","5","2","4","2","3","1","781451640430661634","王","373","","","","","","","","","","","","","","","","","","","","","","","","","","","","","","feedback_test","","","","","","","","","","","",""
"832","","j","psychophysics","43","228214","0.0-7.0-1.0-1.0-0.0-0.17","3","4","4","3","4","3","4","4","4","4","4","5","5","4","5","4","5","5","5","5","1","1","2","1","2","2","1","5","1","0","0","0","0","1","1","0","0","0","0","0","0","0","0","0","5","1","1","1","2","5","2","4","2","3","1","781451640430661634","王","373","","","","match","","","","","","","","","","","","","","key","j","6.944486692015187","768","428","j","true","match","img/diamond.png","菱形","菱形","ALT1_2","prac_ALT1_2","","","","","","","","","","","",""
"null","<span style='color:GreenYellow; font-size: 70px;'>正确! </span>","null","html-keyboard-response","44","228715","0.0-7.0-1.0-1.0-0.0-1.17","3","4","4","3","4","3","4","4","4","4","4","5","5","4","5","4","5","5","5","5","1","1","2","1","2","2","1","5","1","0","0","0","0","1","1","0","0","0","0","0","0","0","0","0","5","1","1","1","2","5","2","4","2","3","1","781451640430661634","王","373","","","","","","","","","","","","","","","","","","","","","","","","","","","","","","feedback_test","","","","","","","","","","","",""
"729","","f","psychophysics","45","230446","0.0-7.0-1.0-1.0-0.0-0.18","3","4","4","3","4","3","4","4","4","4","4","5","5","4","5","4","5","5","5","5","1","1","2","1","2","2","1","5","1","0","0","0","0","1","1","0","0","0","0","0","0","0","0","0","5","1","1","1","2","5","2","4","2","3","1","781451640430661634","王","373","","","","nonmatch","","","","","","","","","","","","","","key","f","6.9443548387097245","768","428","f","true","nonmatch","img/diamond.png","三角","菱形","ALT1_2","prac_ALT1_2","","","","","","","","","","","",""
"null","<span style='color:GreenYellow; font-size: 70px;'>正确! </span>","null","html-keyboard-response","46","230952","0.0-7.0-1.0-1.0-0.0-1.18","3","4","4","3","4","3","4","4","4","4","4","5","5","4","5","4","5","5","5","5","1","1","2","1","2","2","1","5","1","0","0","0","0","1","1","0","0","0","0","0","0","0","0","0","5","1","1","1","2","5","2","4","2","3","1","781451640430661634","王","373","","","","","","","","","","","","","","","","","","","","","","","","","","","","","","feedback_test","","","","","","","","","","","",""
"711","","f","psychophysics","47","232664","0.0-7.0-1.0-1.0-0.0-0.19","3","4","4","3","4","3","4","4","4","4","4","5","5","4","5","4","5","5","5","5","1","1","2","1","2","2","1","5","1","0","0","0","0","1","1","0","0","0","0","0","0","0","0","0","5","1","1","1","2","5","2","4","2","3","1","781451640430661634","王","373","","","","nonmatch","","","","","","","","","","","","","","key","f","6.944262295082063","768","428","f","true","nonmatch","img/triangle.png","菱形","三角","ALT1_2","prac_ALT1_2","","","","","","","","","","","",""
"null","<span style='color:GreenYellow; font-size: 70px;'>正确! </span>","null","html-keyboard-response","48","233165","0.0-7.0-1.0-1.0-0.0-1.19","3","4","4","3","4","3","4","4","4","4","4","5","5","4","5","4","5","5","5","5","1","1","2","1","2","2","1","5","1","0","0","0","0","1","1","0","0","0","0","0","0","0","0","0","5","1","1","1","2","5","2","4","2","3","1","781451640430661634","王","373","","","","","","","","","","","","","","","","","","","","","","","","","","","","","","feedback_test","","","","","","","","","","","",""
"1102","","j","psychophysics","49","235268","0.0-7.0-1.0-1.0-0.0-0.20","3","4","4","3","4","3","4","4","4","4","4","5","5","4","5","4","5","5","5","5","1","1","2","1","2","2","1","5","1","0","0","0","0","1","1","0","0","0","0","0","0","0","0","0","5","1","1","1","2","5","2","4","2","3","1","781451640430661634","王","373","","","","match","","","","","","","","","","","","","","key","j","6.944518272425211","768","428","f","false","nonmatch","img/hexagon.png","菱形","六边","ALT1_2","prac_ALT1_2","","","","","","","","","","","",""
"null","<span style='color:red; font-size: 70px;'>错误! </span>","null","html-keyboard-response","50","235770","0.0-7.0-1.0-1.0-0.0-1.20","3","4","4","3","4","3","4","4","4","4","4","5","5","4","5","4","5","5","5","5","1","1","2","1","2","2","1","5","1","0","0","0","0","1","1","0","0","0","0","0","0","0","0","0","5","1","1","1","2","5","2","4","2","3","1","781451640430661634","王","373","","","","","","","","","","","","","","","","","","","","","","","","","","","","","","feedback_test","","","","","","","","","","","",""
"620","","j","psychophysics","51","237392","0.0-7.0-1.0-1.0-0.0-0.21","3","4","4","3","4","3","4","4","4","4","4","5","5","4","5","4","5","5","5","5","1","1","2","1","2","2","1","5","1","0","0","0","0","1","1","0","0","0","0","0","0","0","0","0","5","1","1","1","2","5","2","4","2","3","1","781451640430661634","王","373","","","","match","","","","","","","","","","","","","","key","j","6.944827586206821","768","428","j","true","match","img/ellipse.png","椭圆","椭圆","ALT1_2","prac_ALT1_2","","","","","","","","","","","",""
"null","<span style='color:GreenYellow; font-size: 70px;'>正确! </span>","null","html-keyboard-response","52","237893","0.0-7.0-1.0-1.0-0.0-1.21","3","4","4","3","4","3","4","4","4","4","4","5","5","4","5","4","5","5","5","5","1","1","2","1","2","2","1","5","1","0","0","0","0","1","1","0","0","0","0","0","0","0","0","0","5","1","1","1","2","5","2","4","2","3","1","781451640430661634","王","373","","","","","","","","","","","","","","","","","","","","","","","","","","","","","","feedback_test","","","","","","","","","","","",""
"852","","f","psychophysics","53","239747","0.0-7.0-1.0-1.0-0.0-0.22","3","4","4","3","4","3","4","4","4","4","4","5","5","4","5","4","5","5","5","5","1","1","2","1","2","2","1","5","1","0","0","0","0","1","1","0","0","0","0","0","0","0","0","0","5","1","1","1","2","5","2","4","2","3","1","781451640430661634","王","373","","","","nonmatch","","","","","","","","","","","","","","key","f","6.94037735849061","768","428","f","true","nonmatch","img/ellipse.png","六边","椭圆","ALT1_2","prac_ALT1_2","","","","","","","","","","","",""
"null","<span style='color:GreenYellow; font-size: 70px;'>正确! </span>","null","html-keyboard-response","54","240247","0.0-7.0-1.0-1.0-0.0-1.22","3","4","4","3","4","3","4","4","4","4","4","5","5","4","5","4","5","5","5","5","1","1","2","1","2","2","1","5","1","0","0","0","0","1","1","0","0","0","0","0","0","0","0","0","5","1","1","1","2","5","2","4","2","3","1","781451640430661634","王","373","","","","","","","","","","","","","","","","","","","","","","","","","","","","","","feedback_test","","","","","","","","","","","",""
"814","","f","psychophysics","55","242064","0.0-7.0-1.0-1.0-0.0-0.23","3","4","4","3","4","3","4","4","4","4","4","5","5","4","5","4","5","5","5","5","1","1","2","1","2","2","1","5","1","0","0","0","0","1","1","0","0","0","0","0","0","0","0","0","5","1","1","1","2","5","2","4","2","3","1","781451640430661634","王","373","","","","nonmatch","","","","","","","","","","","","","","key","f","6.944230769230769","768","428","f","true","nonmatch","img/triangle.png","六边","三角","ALT1_2","prac_ALT1_2","","","","","","","","","","","",""
"null","<span style='color:GreenYellow; font-size: 70px;'>正确! </span>","null","html-keyboard-response","56","242566","0.0-7.0-1.0-1.0-0.0-1.23","3","4","4","3","4","3","4","4","4","4","4","5","5","4","5","4","5","5","5","5","1","1","2","1","2","2","1","5","1","0","0","0","0","1","1","0","0","0","0","0","0","0","0","0","5","1","1","1","2","5","2","4","2","3","1","781451640430661634","王","373","","","","","","","","","","","","","","","","","","","","","","","","","","","","","","feedback_test","","","","","","","","","","","",""
"657","","j","psychophysics","57","244225","0.0-7.0-1.0-1.0-0.0-0.24","3","4","4","3","4","3","4","4","4","4","4","5","5","4","5","4","5","5","5","5","1","1","2","1","2","2","1","5","1","0","0","0","0","1","1","0","0","0","0","0","0","0","0","0","5","1","1","1","2","5","2","4","2","3","1","781451640430661634","王","373","","","","match","","","","","","","","","","","","","","key","j","6.944537815126002","768","428","j","true","match","img/ellipse.png","椭圆","椭圆","ALT1_2","prac_ALT1_2","","","","","","","","","","","",""
"null","<span style='color:GreenYellow; font-size: 70px;'>正确! </span>","null","html-keyboard-response","58","244731","0.0-7.0-1.0-1.0-0.0-1.24","3","4","4","3","4","3","4","4","4","4","4","5","5","4","5","4","5","5","5","5","1","1","2","1","2","2","1","5","1","0","0","0","0","1","1","0","0","0","0","0","0","0","0","0","5","1","1","1","2","5","2","4","2","3","1","781451640430661634","王","373","","","","","","","","","","","","","","","","","","","","","","","","","","","","","","feedback_test","","","","","","","","","","","",""
"723","","j","psychophysics","59","246456","0.0-7.0-1.0-1.0-0.0-0.25","3","4","4","3","4","3","4","4","4","4","4","5","5","4","5","4","5","5","5","5","1","1","2","1","2","2","1","5","1","0","0","0","0","1","1","0","0","0","0","0","0","0","0","0","5","1","1","1","2","5","2","4","2","3","1","781451640430661634","王","373","","","","match","","","","","","","","","","","","","","key","j","6.944534412955418","768","428","j","true","match","img/ellipse.png","椭圆","椭圆","ALT1_2","prac_ALT1_2","","","","","","","","","","","",""
"null","<span style='color:GreenYellow; font-size: 70px;'>正确! </span>","null","html-keyboard-response","60","246957","0.0-7.0-1.0-1.0-0.0-1.25","3","4","4","3","4","3","4","4","4","4","4","5","5","4","5","4","5","5","5","5","1","1","2","1","2","2","1","5","1","0","0","0","0","1","1","0","0","0","0","0","0","0","0","0","5","1","1","1","2","5","2","4","2","3","1","781451640430661634","王","373","","","","","","","","","","","","","","","","","","","","","","","","","","","","","","feedback_test","","","","","","","","","","","",""
"641","","f","psychophysics","61","248600","0.0-7.0-1.0-1.0-0.0-0.26","3","4","4","3","4","3","4","4","4","4","4","5","5","4","5","4","5","5","5","5","1","1","2","1","2","2","1","5","1","0","0","0","0","1","1","0","0","0","0","0","0","0","0","0","5","1","1","1","2","5","2","4","2","3","1","781451640430661634","王","373","","","","nonmatch","","","","","","","","","","","","","","key","f","6.94468085106383","768","428","f","true","nonmatch","img/ellipse.png","六边","椭圆","ALT1_2","prac_ALT1_2","","","","","","","","","","","",""
"null","<span style='color:GreenYellow; font-size: 70px;'>正确! </span>","null","html-keyboard-response","62","249102","0.0-7.0-1.0-1.0-0.0-1.26","3","4","4","3","4","3","4","4","4","4","4","5","5","4","5","4","5","5","5","5","1","1","2","1","2","2","1","5","1","0","0","0","0","1","1","0","0","0","0","0","0","0","0","0","5","1","1","1","2","5","2","4","2","3","1","781451640430661634","王","373","","","","","","","","","","","","","","","","","","","","","","","","","","","","","","feedback_test","","","","","","","","","","","",""
"1072","","f","psychophysics","63","251174","0.0-7.0-1.0-1.0-0.0-0.27","3","4","4","3","4","3","4","4","4","4","4","5","5","4","5","4","5","5","5","5","1","1","2","1","2","2","1","5","1","0","0","0","0","1","1","0","0","0","0","0","0","0","0","0","5","1","1","1","2","5","2","4","2","3","1","781451640430661634","王","373","","","","nonmatch","","","","","","","","","","","","","","key","f","6.944107744107725","768","428","f","true","nonmatch","img/triangle.png","六边","三角","ALT1_2","prac_ALT1_2","","","","","","","","","","","",""
"null","<span style='color:GreenYellow; font-size: 70px;'>正确! </span>","null","html-keyboard-response","64","251675","0.0-7.0-1.0-1.0-0.0-1.27","3","4","4","3","4","3","4","4","4","4","4","5","5","4","5","4","5","5","5","5","1","1","2","1","2","2","1","5","1","0","0","0","0","1","1","0","0","0","0","0","0","0","0","0","5","1","1","1","2","5","2","4","2","3","1","781451640430661634","王","373","","","","","","","","","","","","","","","","","","","","","","","","","","","","","","feedback_test","","","","","","","","","","","",""
"686","","j","psychophysics","65","253363","0.0-7.0-1.0-1.0-0.0-0.28","3","4","4","3","4","3","4","4","4","4","4","5","5","4","5","4","5","5","5","5","1","1","2","1","2","2","1","5","1","0","0","0","0","1","1","0","0","0","0","0","0","0","0","0","5","1","1","1","2","5","2","4","2","3","1","781451640430661634","王","373","","","","match","","","","","","","","","","","","","","key","j","6.944628099173578","768","428","j","true","match","img/triangle.png","三角","三角","ALT1_2","prac_ALT1_2","","","","","","","","","","","",""
"null","<span style='color:GreenYellow; font-size: 70px;'>正确! </span>","null","html-keyboard-response","66","253864","0.0-7.0-1.0-1.0-0.0-1.28","3","4","4","3","4","3","4","4","4","4","4","5","5","4","5","4","5","5","5","5","1","1","2","1","2","2","1","5","1","0","0","0","0","1","1","0","0","0","0","0","0","0","0","0","5","1","1","1","2","5","2","4","2","3","1","781451640430661634","王","373","","","","","","","","","","","","","","","","","","","","","","","","","","","","","","feedback_test","","","","","","","","","","","",""
"941","","f","psychophysics","67","255806","0.0-7.0-1.0-1.0-0.0-0.29","3","4","4","3","4","3","4","4","4","4","4","5","5","4","5","4","5","5","5","5","1","1","2","1","2","2","1","5","1","0","0","0","0","1","1","0","0","0","0","0","0","0","0","0","5","1","1","1","2","5","2","4","2","3","1","781451640430661634","王","373","","","","nonmatch","","","","","","","","","","","","","","key","f","6.944444444444445","768","428","f","true","nonmatch","img/hexagon.png","三角","六边","ALT1_2","prac_ALT1_2","","","","","","","","","","","",""
"null","<span style='color:GreenYellow; font-size: 70px;'>正确! </span>","null","html-keyboard-response","68","256307","0.0-7.0-1.0-1.0-0.0-1.29","3","4","4","3","4","3","4","4","4","4","4","5","5","4","5","4","5","5","5","5","1","1","2","1","2","2","1","5","1","0","0","0","0","1","1","0","0","0","0","0","0","0","0","0","5","1","1","1","2","5","2","4","2","3","1","781451640430661634","王","373","","","","","","","","","","","","","","","","","","","","","","","","","","","","","","feedback_test","","","","","","","","","","","",""
"881","","j","psychophysics","69","258189","0.0-7.0-1.0-1.0-0.0-0.30","3","4","4","3","4","3","4","4","4","4","4","5","5","4","5","4","5","5","5","5","1","1","2","1","2","2","1","5","1","0","0","0","0","1","1","0","0","0","0","0","0","0","0","0","5","1","1","1","2","5","2","4","2","3","1","781451640430661634","王","373","","","","match","","","","","","","","","","","","","","key","j","6.944074074074052","768","428","j","true","match","img/hexagon.png","六边","六边","ALT1_2","prac_ALT1_2","","","","","","","","","","","",""
"null","<span style='color:GreenYellow; font-size: 70px;'>正确! </span>","null","html-keyboard-response","70","258690","0.0-7.0-1.0-1.0-0.0-1.30","3","4","4","3","4","3","4","4","4","4","4","5","5","4","5","4","5","5","5","5","1","1","2","1","2","2","1","5","1","0","0","0","0","1","1","0","0","0","0","0","0","0","0","0","5","1","1","1","2","5","2","4","2","3","1","781451640430661634","王","373","","","","","","","","","","","","","","","","","","","","","","","","","","","","","","feedback_test","","","","","","","","","","","",""
"854","","f","psychophysics","71","260546","0.0-7.0-1.0-1.0-0.0-0.31","3","4","4","3","4","3","4","4","4","4","4","5","5","4","5","4","5","5","5","5","1","1","2","1","2","2","1","5","1","0","0","0","0","1","1","0","0","0","0","0","0","0","0","0","5","1","1","1","2","5","2","4","2","3","1","781451640430661634","王","373","","","","nonmatch","","","","","","","","","","","","","","key","f","6.944528301886859","768","428","f","true","nonmatch","img/diamond.png","三角","菱形","ALT1_2","prac_ALT1_2","","","","","","","","","","","",""
"null","<span style='color:GreenYellow; font-size: 70px;'>正确! </span>","null","html-keyboard-response","72","261048","0.0-7.0-1.0-1.0-0.0-1.31","3","4","4","3","4","3","4","4","4","4","4","5","5","4","5","4","5","5","5","5","1","1","2","1","2","2","1","5","1","0","0","0","0","1","1","0","0","0","0","0","0","0","0","0","5","1","1","1","2","5","2","4","2","3","1","781451640430661634","王","373","","","","","","","","","","","","","","","","","","","","","","","","","","","","","","feedback_test","","","","","","","","","","","",""
"805","","j","psychophysics","73","262855","0.0-7.0-1.0-1.0-0.0-0.32","3","4","4","3","4","3","4","4","4","4","4","5","5","4","5","4","5","5","5","5","1","1","2","1","2","2","1","5","1","0","0","0","0","1","1","0","0","0","0","0","0","0","0","0","5","1","1","1","2","5","2","4","2","3","1","781451640430661634","王","373","","","","match","","","","","","","","","","","","","","key","j","6.944401544401455","768","428","j","true","match","img/hexagon.png","六边","六边","ALT1_2","prac_ALT1_2","","","","","","","","","","","",""
"null","<span style='color:GreenYellow; font-size: 70px;'>正确! </span>","null","html-keyboard-response","74","263356","0.0-7.0-1.0-1.0-0.0-1.32","3","4","4","3","4","3","4","4","4","4","4","5","5","4","5","4","5","5","5","5","1","1","2","1","2","2","1","5","1","0","0","0","0","1","1","0","0","0","0","0","0","0","0","0","5","1","1","1","2","5","2","4","2","3","1","781451640430661634","王","373","","","","","","","","","","","","","","","","","","","","","","","","","","","","","","feedback_test","","","","","","","","","","","",""
"909","","f","psychophysics","75","265266","0.0-7.0-1.0-1.0-0.0-0.33","3","4","4","3","4","3","4","4","4","4","4","5","5","4","5","4","5","5","5","5","1","1","2","1","2","2","1","5","1","0","0","0","0","1","1","0","0","0","0","0","0","0","0","0","5","1","1","1","2","5","2","4","2","3","1","781451640430661634","王","373","","","","nonmatch","","","","","","","","","","","","","","key","f","6.94489051094899","768","428","j","false","match","img/diamond.png","菱形","菱形","ALT1_2","prac_ALT1_2","","","","","","","","","","","",""
"null","<span style='color:red; font-size: 70px;'>错误! </span>","null","html-keyboard-response","76","265768","0.0-7.0-1.0-1.0-0.0-1.33","3","4","4","3","4","3","4","4","4","4","4","5","5","4","5","4","5","5","5","5","1","1","2","1","2","2","1","5","1","0","0","0","0","1","1","0","0","0","0","0","0","0","0","0","5","1","1","1","2","5","2","4","2","3","1","781451640430661634","王","373","","","","","","","","","","","","","","","","","","","","","","","","","","","","","","feedback_test","","","","","","","","","","","",""
"1126","","f","psychophysics","77","267895","0.0-7.0-1.0-1.0-0.0-0.34","3","4","4","3","4","3","4","4","4","4","4","5","5","4","5","4","5","5","5","5","1","1","2","1","2","2","1","5","1","0","0","0","0","1","1","0","0","0","0","0","0","0","0","0","5","1","1","1","2","5","2","4","2","3","1","781451640430661634","王","373","","","","nonmatch","","","","","","","","","","","","","","key","f","6.944262295081967","768","428","f","true","nonmatch","img/hexagon.png","椭圆","六边","ALT1_2","prac_ALT1_2","","","","","","","","","","","",""
"null","<span style='color:GreenYellow; font-size: 70px;'>正确! </span>","null","html-keyboard-response","78","268397","0.0-7.0-1.0-1.0-0.0-1.34","3","4","4","3","4","3","4","4","4","4","4","5","5","4","5","4","5","5","5","5","1","1","2","1","2","2","1","5","1","0","0","0","0","1","1","0","0","0","0","0","0","0","0","0","5","1","1","1","2","5","2","4","2","3","1","781451640430661634","王","373","","","","","","","","","","","","","","","","","","","","","","","","","","","","","","feedback_test","","","","","","","","","","","",""
"821","","f","psychophysics","79","270219","0.0-7.0-1.0-1.0-0.0-0.35","3","4","4","3","4","3","4","4","4","4","4","5","5","4","5","4","5","5","5","5","1","1","2","1","2","2","1","5","1","0","0","0","0","1","1","0","0","0","0","0","0","0","0","0","5","1","1","1","2","5","2","4","2","3","1","781451640430661634","王","373","","","","nonmatch","","","","","","","","","","","","","","key","f","6.944444444444445","768","428","f","true","nonmatch","img/triangle.png","椭圆","三角","ALT1_2","prac_ALT1_2","","","","","","","","","","","",""
"null","<span style='color:GreenYellow; font-size: 70px;'>正确! </span>","null","html-keyboard-response","80","270729","0.0-7.0-1.0-1.0-0.0-1.35","3","4","4","3","4","3","4","4","4","4","4","5","5","4","5","4","5","5","5","5","1","1","2","1","2","2","1","5","1","0","0","0","0","1","1","0","0","0","0","0","0","0","0","0","5","1","1","1","2","5","2","4","2","3","1","781451640430661634","王","373","","","","","","","","","","","","","","","","","","","","","","","","","","","","","","feedback_test","","","","","","","","","","","",""
"892","","j","psychophysics","81","272624","0.0-7.0-1.0-1.0-0.0-0.36","3","4","4","3","4","3","4","4","4","4","4","5","5","4","5","4","5","5","5","5","1","1","2","1","2","2","1","5","1","0","0","0","0","1","1","0","0","0","0","0","0","0","0","0","5","1","1","1","2","5","2","4","2","3","1","781451640430661634","王","373","","","","match","","","","","","","","","","","","","","key","j","6.944485294117733","768","428","j","true","match","img/diamond.png","菱形","菱形","ALT1_2","prac_ALT1_2","","","","","","","","","","","",""
"null","<span style='color:GreenYellow; font-size: 70px;'>正确! </span>","null","html-keyboard-response","82","273125","0.0-7.0-1.0-1.0-0.0-1.36","3","4","4","3","4","3","4","4","4","4","4","5","5","4","5","4","5","5","5","5","1","1","2","1","2","2","1","5","1","0","0","0","0","1","1","0","0","0","0","0","0","0","0","0","5","1","1","1","2","5","2","4","2","3","1","781451640430661634","王","373","","","","","","","","","","","","","","","","","","","","","","","","","","","","","","feedback_test","","","","","","","","","","","",""
"990","","f","psychophysics","83","275117","0.0-7.0-1.0-1.0-0.0-0.37","3","4","4","3","4","3","4","4","4","4","4","5","5","4","5","4","5","5","5","5","1","1","2","1","2","2","1","5","1","0","0","0","0","1","1","0","0","0","0","0","0","0","0","0","5","1","1","1","2","5","2","4","2","3","1","781451640430661634","王","373","","","","nonmatch","","","","","","","","","","","","","","key","f","6.944055944055944","768","428","f","true","nonmatch","img/hexagon.png","菱形","六边","ALT1_2","prac_ALT1_2","","","","","","","","","","","",""
"null","<span style='color:GreenYellow; font-size: 70px;'>正确! </span>","null","html-keyboard-response","84","275619","0.0-7.0-1.0-1.0-0.0-1.37","3","4","4","3","4","3","4","4","4","4","4","5","5","4","5","4","5","5","5","5","1","1","2","1","2","2","1","5","1","0","0","0","0","1","1","0","0","0","0","0","0","0","0","0","5","1","1","1","2","5","2","4","2","3","1","781451640430661634","王","373","","","","","","","","","","","","","","","","","","","","","","","","","","","","","","feedback_test","","","","","","","","","","","",""
"926","","j","psychophysics","85","277546","0.0-7.0-1.0-1.0-0.0-0.38","3","4","4","3","4","3","4","4","4","4","4","5","5","4","5","4","5","5","5","5","1","1","2","1","2","2","1","5","1","0","0","0","0","1","1","0","0","0","0","0","0","0","0","0","5","1","1","1","2","5","2","4","2","3","1","781451640430661634","王","373","","","","match","","","","","","","","","","","","","","key","j","6.94420289855064","768","428","j","true","match","img/diamond.png","菱形","菱形","ALT1_2","prac_ALT1_2","","","","","","","","","","","",""
"null","<span style='color:GreenYellow; font-size: 70px;'>正确! </span>","null","html-keyboard-response","86","278046","0.0-7.0-1.0-1.0-0.0-1.38","3","4","4","3","4","3","4","4","4","4","4","5","5","4","5","4","5","5","5","5","1","1","2","1","2","2","1","5","1","0","0","0","0","1","1","0","0","0","0","0","0","0","0","0","5","1","1","1","2","5","2","4","2","3","1","781451640430661634","王","373","","","","","","","","","","","","","","","","","","","","","","","","","","","","","","feedback_test","","","","","","","","","","","",""
"726","","j","psychophysics","87","279774","0.0-7.0-1.0-1.0-0.0-0.39","3","4","4","3","4","3","4","4","4","4","4","5","5","4","5","4","5","5","5","5","1","1","2","1","2","2","1","5","1","0","0","0","0","1","1","0","0","0","0","0","0","0","0","0","5","1","1","1","2","5","2","4","2","3","1","781451640430661634","王","373","","","","match","","","","","","","","","","","","","","key","j","6.944534412955418","768","428","j","true","match","img/triangle.png","三角","三角","ALT1_2","prac_ALT1_2","","","","","","","","","","","",""
"null","<span style='color:GreenYellow; font-size: 70px;'>正确! </span>","null","html-keyboard-response","88","280275","0.0-7.0-1.0-1.0-0.0-1.39","3","4","4","3","4","3","4","4","4","4","4","5","5","4","5","4","5","5","5","5","1","1","2","1","2","2","1","5","1","0","0","0","0","1","1","0","0","0","0","0","0","0","0","0","5","1","1","1","2","5","2","4","2","3","1","781451640430661634","王","373","","","","","","","","","","","","","","","","","","","","","","","","","","","","","","feedback_test","","","","","","","","","","","",""
"852","","f","psychophysics","89","282127","0.0-7.0-1.0-1.0-0.0-0.40","3","4","4","3","4","3","4","4","4","4","4","5","5","4","5","4","5","5","5","5","1","1","2","1","2","2","1","5","1","0","0","0","0","1","1","0","0","0","0","0","0","0","0","0","5","1","1","1","2","5","2","4","2","3","1","781451640430661634","王","373","","","","nonmatch","","","","","","","","","","","","","","key","f","6.942641509433918","768","428","f","true","nonmatch","img/diamond.png","六边","菱形","ALT1_2","prac_ALT1_2","","","","","","","","","","","",""
"null","<span style='color:GreenYellow; font-size: 70px;'>正确! </span>","null","html-keyboard-response","90","282629","0.0-7.0-1.0-1.0-0.0-1.40","3","4","4","3","4","3","4","4","4","4","4","5","5","4","5","4","5","5","5","5","1","1","2","1","2","2","1","5","1","0","0","0","0","1","1","0","0","0","0","0","0","0","0","0","5","1","1","1","2","5","2","4","2","3","1","781451640430661634","王","373","","","","","","","","","","","","","","","","","","","","","","","","","","","","","","feedback_test","","","","","","","","","","","",""
"996","","f","psychophysics","91","284626","0.0-7.0-1.0-1.0-0.0-0.41","3","4","4","3","4","3","4","4","4","4","4","5","5","4","5","4","5","5","5","5","1","1","2","1","2","2","1","5","1","0","0","0","0","1","1","0","0","0","0","0","0","0","0","0","5","1","1","1","2","5","2","4","2","3","1","781451640430661634","王","373","","","","nonmatch","","","","","","","","","","","","","","key","f","6.943706293706375","768","428","f","true","nonmatch","img/ellipse.png","菱形","椭圆","ALT1_2","prac_ALT1_2","","","","","","","","","","","",""
"null","<span style='color:GreenYellow; font-size: 70px;'>正确! </span>","null","html-keyboard-response","92","285129","0.0-7.0-1.0-1.0-0.0-1.41","3","4","4","3","4","3","4","4","4","4","4","5","5","4","5","4","5","5","5","5","1","1","2","1","2","2","1","5","1","0","0","0","0","1","1","0","0","0","0","0","0","0","0","0","5","1","1","1","2","5","2","4","2","3","1","781451640430661634","王","373","","","","","","","","","","","","","","","","","","","","","","","","","","","","","","feedback_test","","","","","","","","","","","",""
"841","","f","psychophysics","93","286971","0.0-7.0-1.0-1.0-0.0-0.42","3","4","4","3","4","3","4","4","4","4","4","5","5","4","5","4","5","5","5","5","1","1","2","1","2","2","1","5","1","0","0","0","0","1","1","0","0","0","0","0","0","0","0","0","5","1","1","1","2","5","2","4","2","3","1","781451640430661634","王","373","","","","nonmatch","","","","","","","","","","","","","","key","f","6.944696969697058","768","428","f","true","nonmatch","img/diamond.png","椭圆","菱形","ALT1_2","prac_ALT1_2","","","","","","","","","","","",""
"null","<span style='color:GreenYellow; font-size: 70px;'>正确! </span>","null","html-keyboard-response","94","287472","0.0-7.0-1.0-1.0-0.0-1.42","3","4","4","3","4","3","4","4","4","4","4","5","5","4","5","4","5","5","5","5","1","1","2","1","2","2","1","5","1","0","0","0","0","1","1","0","0","0","0","0","0","0","0","0","5","1","1","1","2","5","2","4","2","3","1","781451640430661634","王","373","","","","","","","","","","","","","","","","","","","","","","","","","","","","","","feedback_test","","","","","","","","","","","",""
"627","","j","psychophysics","95","289100","0.0-7.0-1.0-1.0-0.0-0.43","3","4","4","3","4","3","4","4","4","4","4","5","5","4","5","4","5","5","5","5","1","1","2","1","2","2","1","5","1","0","0","0","0","1","1","0","0","0","0","0","0","0","0","0","5","1","1","1","2","5","2","4","2","3","1","781451640430661634","王","373","","","","match","","","","","","","","","","","","","","key","j","6.945064377682454","768","428","j","true","match","img/triangle.png","三角","三角","ALT1_2","prac_ALT1_2","","","","","","","","","","","",""
"null","<span style='color:GreenYellow; font-size: 70px;'>正确! </span>","null","html-keyboard-response","96","289601","0.0-7.0-1.0-1.0-0.0-1.43","3","4","4","3","4","3","4","4","4","4","4","5","5","4","5","4","5","5","5","5","1","1","2","1","2","2","1","5","1","0","0","0","0","1","1","0","0","0","0","0","0","0","0","0","5","1","1","1","2","5","2","4","2","3","1","781451640430661634","王","373","","","","","","","","","","","","","","","","","","","","","","","","","","","","","","feedback_test","","","","","","","","","","","",""
"825","","f","psychophysics","97","291427","0.0-7.0-1.0-1.0-0.0-0.44","3","4","4","3","4","3","4","4","4","4","4","5","5","4","5","4","5","5","5","5","1","1","2","1","2","2","1","5","1","0","0","0","0","1","1","0","0","0","0","0","0","0","0","0","5","1","1","1","2","5","2","4","2","3","1","781451640430661634","王","373","","","","nonmatch","","","","","","","","","","","","","","key","f","6.942145593869821","768","428","f","true","nonmatch","img/ellipse.png","三角","椭圆","ALT1_2","prac_ALT1_2","","","","","","","","","","","",""
"null","<span style='color:GreenYellow; font-size: 70px;'>正确! </span>","null","html-keyboard-response","98","291928","0.0-7.0-1.0-1.0-0.0-1.44","3","4","4","3","4","3","4","4","4","4","4","5","5","4","5","4","5","5","5","5","1","1","2","1","2","2","1","5","1","0","0","0","0","1","1","0","0","0","0","0","0","0","0","0","5","1","1","1","2","5","2","4","2","3","1","781451640430661634","王","373","","","","","","","","","","","","","","","","","","","","","","","","","","","","","","feedback_test","","","","","","","","","","","",""
"1038","","j","psychophysics","99","293967","0.0-7.0-1.0-1.0-0.0-0.45","3","4","4","3","4","3","4","4","4","4","4","5","5","4","5","4","5","5","5","5","1","1","2","1","2","2","1","5","1","0","0","0","0","1","1","0","0","0","0","0","0","0","0","0","5","1","1","1","2","5","2","4","2","3","1","781451640430661634","王","373","","","","match","","","","","","","","","","","","","","key","j","6.9445205479451655","768","428","j","true","match","img/ellipse.png","椭圆","椭圆","ALT1_2","prac_ALT1_2","","","","","","","","","","","",""
"null","<span style='color:GreenYellow; font-size: 70px;'>正确! </span>","null","html-keyboard-response","100","294467","0.0-7.0-1.0-1.0-0.0-1.45","3","4","4","3","4","3","4","4","4","4","4","5","5","4","5","4","5","5","5","5","1","1","2","1","2","2","1","5","1","0","0","0","0","1","1","0","0","0","0","0","0","0","0","0","5","1","1","1","2","5","2","4","2","3","1","781451640430661634","王","373","","","","","","","","","","","","","","","","","","","","","","","","","","","","","","feedback_test","","","","","","","","","","","",""
"798","","j","psychophysics","101","296266","0.0-7.0-1.0-1.0-0.0-0.46","3","4","4","3","4","3","4","4","4","4","4","5","5","4","5","4","5","5","5","5","1","1","2","1","2","2","1","5","1","0","0","0","0","1","1","0","0","0","0","0","0","0","0","0","5","1","1","1","2","5","2","4","2","3","1","781451640430661634","王","373","","","","match","","","","","","","","","","","","","","key","j","6.944961240310258","768","428","j","true","match","img/hexagon.png","六边","六边","ALT1_2","prac_ALT1_2","","","","","","","","","","","",""
"null","<span style='color:GreenYellow; font-size: 70px;'>正确! </span>","null","html-keyboard-response","102","296768","0.0-7.0-1.0-1.0-0.0-1.46","3","4","4","3","4","3","4","4","4","4","4","5","5","4","5","4","5","5","5","5","1","1","2","1","2","2","1","5","1","0","0","0","0","1","1","0","0","0","0","0","0","0","0","0","5","1","1","1","2","5","2","4","2","3","1","781451640430661634","王","373","","","","","","","","","","","","","","","","","","","","","","","","","","","","","","feedback_test","","","","","","","","","","","",""
"752","","f","psychophysics","103","298520","0.0-7.0-1.0-1.0-0.0-0.47","3","4","4","3","4","3","4","4","4","4","4","5","5","4","5","4","5","5","5","5","1","1","2","1","2","2","1","5","1","0","0","0","0","1","1","0","0","0","0","0","0","0","0","0","5","1","1","1","2","5","2","4","2","3","1","781451640430661634","王","373","","","","nonmatch","","","","","","","","","","","","","","key","f","6.943426294820671","768","428","f","true","nonmatch","img/triangle.png","菱形","三角","ALT1_2","prac_ALT1_2","","","","","","","","","","","",""
"null","<span style='color:GreenYellow; font-size: 70px;'>正确! </span>","null","html-keyboard-response","104","299030","0.0-7.0-1.0-1.0-0.0-1.47","3","4","4","3","4","3","4","4","4","4","4","5","5","4","5","4","5","5","5","5","1","1","2","1","2","2","1","5","1","0","0","0","0","1","1","0","0","0","0","0","0","0","0","0","5","1","1","1","2","5","2","4","2","3","1","781451640430661634","王","373","","","","","","","","","","","","","","","","","","","","","","","","","","","","","","feedback_test","","","","","","","","","","","",""
"34968","<style>.context{color:white; font-size: 35px; line-height:40px}</style>                          <div><p class='context'>您正确回答了83% 的试次。</p><p class='context'>您的平均反应时为817毫秒。</p><p class='context'>恭喜您完成练习。按空格键进入正式实验。</p><p class='footer' style='font-size: 35px; line-height:40px;'>请在进入正式实验实验之前将您的<span style='color: lightgreen;'>食指</span>放在电脑键盘的相应键位上进行按键。</p>"," ","html-keyboard-response","105","333999","0.0-7.0-1.0-2.0","3","4","4","3","4","3","4","4","4","4","4","5","5","4","5","4","5","5","5","5","1","1","2","1","2","2","1","5","1","0","0","0","0","1","1","0","0","0","0","0","0","0","0","0","5","1","1","1","2","5","2","4","2","3","1","781451640430661634","王","373","","","","","","","","","","","","","","","","","","","","","","","","","","","","","","","","","","","","","","","","","",""
"3453","
  <p style='color: white; font-size: 22px'>请您将手指放在按键上，准备进入正式的匹配任务。</p>
  <p> <div style = ""color: green""><按空格键进入下一阶段的匹配任务></div></p>
  "," ","html-keyboard-response","106","337455","0.0-7.0-1.0-3.0","3","4","4","3","4","3","4","4","4","4","4","5","5","4","5","4","5","5","5","5","1","1","2","1","2","2","1","5","1","0","0","0","0","1","1","0","0","0","0","0","0","0","0","0","5","1","1","1","2","5","2","4","2","3","1","781451640430661634","王","373","","","","","","","","","","","","","","","","","","","","","","","","","","","","","","","","","","","","","","","","","",""
"842","","j","psychophysics","107","339299","0.0-7.0-1.0-4.0-0.0-0.0","3","4","4","3","4","3","4","4","4","4","4","5","5","4","5","4","5","5","5","5","1","1","2","1","2","2","1","5","1","0","0","0","0","1","1","0","0","0","0","0","0","0","0","0","5","1","1","1","2","5","2","4","2","3","1","781451640430661634","王","373","","","","match","","","","","","","","","","","","","","key","j","6.940909090908959","768","428","j","true","match","img/hexagon.png","六边","六边","ALT1","formal_ALT1_2","","","","","","","","","","","",""
"null","<span style='color:GreenYellow; font-size: 70px;'>正确! </span>","null","html-keyboard-response","108","339800","0.0-7.0-1.0-4.0-0.0-1.0","3","4","4","3","4","3","4","4","4","4","4","5","5","4","5","4","5","5","5","5","1","1","2","1","2","2","1","5","1","0","0","0","0","1","1","0","0","0","0","0","0","0","0","0","5","1","1","1","2","5","2","4","2","3","1","781451640430661634","王","373","","","","","","","","","","","","","","","","","","","","","","","","","","","","","","feedback_test","","","","","","","","","","","",""
"638","","f","psychophysics","109","341440","0.0-7.0-1.0-4.0-0.0-0.1","3","4","4","3","4","3","4","4","4","4","4","5","5","4","5","4","5","5","5","5","1","1","2","1","2","2","1","5","1","0","0","0","0","1","1","0","0","0","0","0","0","0","0","0","5","1","1","1","2","5","2","4","2","3","1","781451640430661634","王","373","","","","nonmatch","","","","","","","","","","","","","","key","f","6.94468085106383","768","428","f","true","nonmatch","img/diamond.png","三角","菱形","ALT1","formal_ALT1_2","","","","","","","","","","","",""
"null","<span style='color:GreenYellow; font-size: 70px;'>正确! </span>","null","html-keyboard-response","110","341941","0.0-7.0-1.0-4.0-0.0-1.1","3","4","4","3","4","3","4","4","4","4","4","5","5","4","5","4","5","5","5","5","1","1","2","1","2","2","1","5","1","0","0","0","0","1","1","0","0","0","0","0","0","0","0","0","5","1","1","1","2","5","2","4","2","3","1","781451640430661634","王","373","","","","","","","","","","","","","","","","","","","","","","","","","","","","","","feedback_test","","","","","","","","","","","",""
"881","","f","psychophysics","111","343825","0.0-7.0-1.0-4.0-0.0-0.2","3","4","4","3","4","3","4","4","4","4","4","5","5","4","5","4","5","5","5","5","1","1","2","1","2","2","1","5","1","0","0","0","0","1","1","0","0","0","0","0","0","0","0","0","5","1","1","1","2","5","2","4","2","3","1","781451640430661634","王","373","","","","nonmatch","","","","","","","","","","","","","","key","f","6.939999999999957","768","428","f","true","nonmatch","img/triangle.png","椭圆","三角","ALT1","formal_ALT1_2","","","","","","","","","","","",""
"null","<span style='color:GreenYellow; font-size: 70px;'>正确! </span>","null","html-keyboard-response","112","344327","0.0-7.0-1.0-4.0-0.0-1.2","3","4","4","3","4","3","4","4","4","4","4","5","5","4","5","4","5","5","5","5","1","1","2","1","2","2","1","5","1","0","0","0","0","1","1","0","0","0","0","0","0","0","0","0","5","1","1","1","2","5","2","4","2","3","1","781451640430661634","王","373","","","","","","","","","","","","","","","","","","","","","","","","","","","","","","feedback_test","","","","","","","","","","","",""
"635","","j","psychophysics","113","345964","0.0-7.0-1.0-4.0-0.0-0.3","3","4","4","3","4","3","4","4","4","4","4","5","5","4","5","4","5","5","5","5","1","1","2","1","2","2","1","5","1","0","0","0","0","1","1","0","0","0","0","0","0","0","0","0","5","1","1","1","2","5","2","4","2","3","1","781451640430661634","王","373","","","","match","","","","","","","","","","","","","","key","j","6.94468085106383","768","428","j","true","match","img/triangle.png","三角","三角","ALT1","formal_ALT1_2","","","","","","","","","","","",""
"null","<span style='color:GreenYellow; font-size: 70px;'>正确! </span>","null","html-keyboard-response","114","346465","0.0-7.0-1.0-4.0-0.0-1.3","3","4","4","3","4","3","4","4","4","4","4","5","5","4","5","4","5","5","5","5","1","1","2","1","2","2","1","5","1","0","0","0","0","1","1","0","0","0","0","0","0","0","0","0","5","1","1","1","2","5","2","4","2","3","1","781451640430661634","王","373","","","","","","","","","","","","","","","","","","","","","","","","","","","","","","feedback_test","","","","","","","","","","","",""
"987","","f","psychophysics","115","348454","0.0-7.0-1.0-4.0-0.0-0.4","3","4","4","3","4","3","4","4","4","4","4","5","5","4","5","4","5","5","5","5","1","1","2","1","2","2","1","5","1","0","0","0","0","1","1","0","0","0","0","0","0","0","0","0","5","1","1","1","2","5","2","4","2","3","1","781451640430661634","王","373","","","","nonmatch","","","","","","","","","","","","","","key","f","6.944912280701918","768","428","f","true","nonmatch","img/hexagon.png","三角","六边","ALT1","formal_ALT1_2","","","","","","","","","","","",""
"null","<span style='color:GreenYellow; font-size: 70px;'>正确! </span>","null","html-keyboard-response","116","348956","0.0-7.0-1.0-4.0-0.0-1.4","3","4","4","3","4","3","4","4","4","4","4","5","5","4","5","4","5","5","5","5","1","1","2","1","2","2","1","5","1","0","0","0","0","1","1","0","0","0","0","0","0","0","0","0","5","1","1","1","2","5","2","4","2","3","1","781451640430661634","王","373","","","","","","","","","","","","","","","","","","","","","","","","","","","","","","feedback_test","","","","","","","","","","","",""
"1036","","f","psychophysics","117","350993","0.0-7.0-1.0-4.0-0.0-0.5","3","4","4","3","4","3","4","4","4","4","4","5","5","4","5","4","5","5","5","5","1","1","2","1","2","2","1","5","1","0","0","0","0","1","1","0","0","0","0","0","0","0","0","0","5","1","1","1","2","5","2","4","2","3","1","781451640430661634","王","373","","","","nonmatch","","","","","","","","","","","","","","key","f","6.944520547945365","768","428","f","true","nonmatch","img/diamond.png","六边","菱形","ALT1","formal_ALT1_2","","","","","","","","","","","",""
"null","<span style='color:GreenYellow; font-size: 70px;'>正确! </span>","null","html-keyboard-response","118","351495","0.0-7.0-1.0-4.0-0.0-1.5","3","4","4","3","4","3","4","4","4","4","4","5","5","4","5","4","5","5","5","5","1","1","2","1","2","2","1","5","1","0","0","0","0","1","1","0","0","0","0","0","0","0","0","0","5","1","1","1","2","5","2","4","2","3","1","781451640430661634","王","373","","","","","","","","","","","","","","","","","","","","","","","","","","","","","","feedback_test","","","","","","","","","","","",""
"658","","f","psychophysics","119","353155","0.0-7.0-1.0-4.0-0.0-0.6","3","4","4","3","4","3","4","4","4","4","4","5","5","4","5","4","5","5","5","5","1","1","2","1","2","2","1","5","1","0","0","0","0","1","1","0","0","0","0","0","0","0","0","0","5","1","1","1","2","5","2","4","2","3","1","781451640430661634","王","373","","","","nonmatch","","","","","","","","","","","","","","key","f","6.944117647058627","768","428","f","true","nonmatch","img/triangle.png","菱形","三角","ALT1","formal_ALT1_2","","","","","","","","","","","",""
"null","<span style='color:GreenYellow; font-size: 70px;'>正确! </span>","null","html-keyboard-response","120","353655","0.0-7.0-1.0-4.0-0.0-1.6","3","4","4","3","4","3","4","4","4","4","4","5","5","4","5","4","5","5","5","5","1","1","2","1","2","2","1","5","1","0","0","0","0","1","1","0","0","0","0","0","0","0","0","0","5","1","1","1","2","5","2","4","2","3","1","781451640430661634","王","373","","","","","","","","","","","","","","","","","","","","","","","","","","","","","","feedback_test","","","","","","","","","","","",""
"723","","j","psychophysics","121","355380","0.0-7.0-1.0-4.0-0.0-0.7","3","4","4","3","4","3","4","4","4","4","4","5","5","4","5","4","5","5","5","5","1","1","2","1","2","2","1","5","1","0","0","0","0","1","1","0","0","0","0","0","0","0","0","0","5","1","1","1","2","5","2","4","2","3","1","781451640430661634","王","373","","","","match","","","","","","","","","","","","","","key","j","6.944939271255155","768","428","j","true","match","img/hexagon.png","六边","六边","ALT1","formal_ALT1_2","","","","","","","","","","","",""
"null","<span style='color:GreenYellow; font-size: 70px;'>正确! </span>","null","html-keyboard-response","122","355881","0.0-7.0-1.0-4.0-0.0-1.7","3","4","4","3","4","3","4","4","4","4","4","5","5","4","5","4","5","5","5","5","1","1","2","1","2","2","1","5","1","0","0","0","0","1","1","0","0","0","0","0","0","0","0","0","5","1","1","1","2","5","2","4","2","3","1","781451640430661634","王","373","","","","","","","","","","","","","","","","","","","","","","","","","","","","","","feedback_test","","","","","","","","","","","",""
"561","","j","psychophysics","123","357443","0.0-7.0-1.0-4.0-0.0-0.8","3","4","4","3","4","3","4","4","4","4","4","5","5","4","5","4","5","5","5","5","1","1","2","1","2","2","1","5","1","0","0","0","0","1","1","0","0","0","0","0","0","0","0","0","5","1","1","1","2","5","2","4","2","3","1","781451640430661634","王","373","","","","match","","","","","","","","","","","","","","key","j","6.944196428571429","768","428","j","true","match","img/triangle.png","三角","三角","ALT1","formal_ALT1_2","","","","","","","","","","","",""
"null","<span style='color:GreenYellow; font-size: 70px;'>正确! </span>","null","html-keyboard-response","124","357945","0.0-7.0-1.0-4.0-0.0-1.8","3","4","4","3","4","3","4","4","4","4","4","5","5","4","5","4","5","5","5","5","1","1","2","1","2","2","1","5","1","0","0","0","0","1","1","0","0","0","0","0","0","0","0","0","5","1","1","1","2","5","2","4","2","3","1","781451640430661634","王","373","","","","","","","","","","","","","","","","","","","","","","","","","","","","","","feedback_test","","","","","","","","","","","",""
"666","","j","psychophysics","125","359614","0.0-7.0-1.0-4.0-0.0-0.9","3","4","4","3","4","3","4","4","4","4","4","5","5","4","5","4","5","5","5","5","1","1","2","1","2","2","1","5","1","0","0","0","0","1","1","0","0","0","0","0","0","0","0","0","5","1","1","1","2","5","2","4","2","3","1","781451640430661634","王","373","","","","match","","","","","","","","","","","","","","key","j","6.944351464435195","768","428","j","true","match","img/hexagon.png","六边","六边","ALT1","formal_ALT1_2","","","","","","","","","","","",""
"null","<span style='color:GreenYellow; font-size: 70px;'>正确! </span>","null","html-keyboard-response","126","360115","0.0-7.0-1.0-4.0-0.0-1.9","3","4","4","3","4","3","4","4","4","4","4","5","5","4","5","4","5","5","5","5","1","1","2","1","2","2","1","5","1","0","0","0","0","1","1","0","0","0","0","0","0","0","0","0","5","1","1","1","2","5","2","4","2","3","1","781451640430661634","王","373","","","","","","","","","","","","","","","","","","","","","","","","","","","","","","feedback_test","","","","","","","","","","","",""
"884","","j","psychophysics","127","362000","0.0-7.0-1.0-4.0-0.0-0.10","3","4","4","3","4","3","4","4","4","4","4","5","5","4","5","4","5","5","5","5","1","1","2","1","2","2","1","5","1","0","0","0","0","1","1","0","0","0","0","0","0","0","0","0","5","1","1","1","2","5","2","4","2","3","1","781451640430661634","王","373","","","","match","","","","","","","","","","","","","","key","j","6.9448148148149444","768","428","j","true","match","img/ellipse.png","椭圆","椭圆","ALT1","formal_ALT1_2","","","","","","","","","","","",""
"null","<span style='color:GreenYellow; font-size: 70px;'>正确! </span>","null","html-keyboard-response","128","362501","0.0-7.0-1.0-4.0-0.0-1.10","3","4","4","3","4","3","4","4","4","4","4","5","5","4","5","4","5","5","5","5","1","1","2","1","2","2","1","5","1","0","0","0","0","1","1","0","0","0","0","0","0","0","0","0","5","1","1","1","2","5","2","4","2","3","1","781451640430661634","王","373","","","","","","","","","","","","","","","","","","","","","","","","","","","","","","feedback_test","","","","","","","","","","","",""
"705","","f","psychophysics","129","364209","0.0-7.0-1.0-4.0-0.0-0.11","3","4","4","3","4","3","4","4","4","4","4","5","5","4","5","4","5","5","5","5","1","1","2","1","2","2","1","5","1","0","0","0","0","1","1","0","0","0","0","0","0","0","0","0","5","1","1","1","2","5","2","4","2","3","1","781451640430661634","王","373","","","","nonmatch","","","","","","","","","","","","","","key","f","6.944081632653014","768","428","f","true","nonmatch","img/triangle.png","六边","三角","ALT1","formal_ALT1_2","","","","","","","","","","","",""
"null","<span style='color:GreenYellow; font-size: 70px;'>正确! </span>","null","html-keyboard-response","130","364710","0.0-7.0-1.0-4.0-0.0-1.11","3","4","4","3","4","3","4","4","4","4","4","5","5","4","5","4","5","5","5","5","1","1","2","1","2","2","1","5","1","0","0","0","0","1","1","0","0","0","0","0","0","0","0","0","5","1","1","1","2","5","2","4","2","3","1","781451640430661634","王","373","","","","","","","","","","","","","","","","","","","","","","","","","","","","","","feedback_test","","","","","","","","","","","",""
"521","","j","psychophysics","131","366233","0.0-7.0-1.0-4.0-0.0-0.12","3","4","4","3","4","3","4","4","4","4","4","5","5","4","5","4","5","5","5","5","1","1","2","1","2","2","1","5","1","0","0","0","0","1","1","0","0","0","0","0","0","0","0","0","5","1","1","1","2","5","2","4","2","3","1","781451640430661634","王","373","","","","match","","","","","","","","","","","","","","key","j","6.944036697247653","768","428","j","true","match","img/triangle.png","三角","三角","ALT1","formal_ALT1_2","","","","","","","","","","","",""
"null","<span style='color:GreenYellow; font-size: 70px;'>正确! </span>","null","html-keyboard-response","132","366734","0.0-7.0-1.0-4.0-0.0-1.12","3","4","4","3","4","3","4","4","4","4","4","5","5","4","5","4","5","5","5","5","1","1","2","1","2","2","1","5","1","0","0","0","0","1","1","0","0","0","0","0","0","0","0","0","5","1","1","1","2","5","2","4","2","3","1","781451640430661634","王","373","","","","","","","","","","","","","","","","","","","","","","","","","","","","","","feedback_test","","","","","","","","","","","",""
"716","","j","psychophysics","133","368452","0.0-7.0-1.0-4.0-0.0-0.13","3","4","4","3","4","3","4","4","4","4","4","5","5","4","5","4","5","5","5","5","1","1","2","1","2","2","1","5","1","0","0","0","0","1","1","0","0","0","0","0","0","0","0","0","5","1","1","1","2","5","2","4","2","3","1","781451640430661634","王","373","","","","match","","","","","","","","","","","","","","key","j","6.944308943089384","768","428","f","false","nonmatch","img/hexagon.png","菱形","六边","ALT1","formal_ALT1_2","","","","","","","","","","","",""
"null","<span style='color:red; font-size: 70px;'>错误! </span>","null","html-keyboard-response","134","368953","0.0-7.0-1.0-4.0-0.0-1.13","3","4","4","3","4","3","4","4","4","4","4","5","5","4","5","4","5","5","5","5","1","1","2","1","2","2","1","5","1","0","0","0","0","1","1","0","0","0","0","0","0","0","0","0","5","1","1","1","2","5","2","4","2","3","1","781451640430661634","王","373","","","","","","","","","","","","","","","","","","","","","","","","","","","","","","feedback_test","","","","","","","","","","","",""
"640","","j","psychophysics","135","370594","0.0-7.0-1.0-4.0-0.0-0.14","3","4","4","3","4","3","4","4","4","4","4","5","5","4","5","4","5","5","5","5","1","1","2","1","2","2","1","5","1","0","0","0","0","1","1","0","0","0","0","0","0","0","0","0","5","1","1","1","2","5","2","4","2","3","1","781451640430661634","王","373","","","","match","","","","","","","","","","","","","","key","j","6.9442553191487875","768","428","j","true","match","img/ellipse.png","椭圆","椭圆","ALT1","formal_ALT1_2","","","","","","","","","","","",""
"null","<span style='color:GreenYellow; font-size: 70px;'>正确! </span>","null","html-keyboard-response","136","371097","0.0-7.0-1.0-4.0-0.0-1.14","3","4","4","3","4","3","4","4","4","4","4","5","5","4","5","4","5","5","5","5","1","1","2","1","2","2","1","5","1","0","0","0","0","1","1","0","0","0","0","0","0","0","0","0","5","1","1","1","2","5","2","4","2","3","1","781451640430661634","王","373","","","","","","","","","","","","","","","","","","","","","","","","","","","","","","feedback_test","","","","","","","","","","","",""
"866","","f","psychophysics","137","372964","0.0-7.0-1.0-4.0-0.0-0.15","3","4","4","3","4","3","4","4","4","4","4","5","5","4","5","4","5","5","5","5","1","1","2","1","2","2","1","5","1","0","0","0","0","1","1","0","0","0","0","0","0","0","0","0","5","1","1","1","2","5","2","4","2","3","1","781451640430661634","王","373","","","","nonmatch","","","","","","","","","","","","","","key","f","6.944776119402811","768","428","f","true","nonmatch","img/hexagon.png","椭圆","六边","ALT1","formal_ALT1_2","","","","","","","","","","","",""
"null","<span style='color:GreenYellow; font-size: 70px;'>正确! </span>","null","html-keyboard-response","138","373467","0.0-7.0-1.0-4.0-0.0-1.15","3","4","4","3","4","3","4","4","4","4","4","5","5","4","5","4","5","5","5","5","1","1","2","1","2","2","1","5","1","0","0","0","0","1","1","0","0","0","0","0","0","0","0","0","5","1","1","1","2","5","2","4","2","3","1","781451640430661634","王","373","","","","","","","","","","","","","","","","","","","","","","","","","","","","","","feedback_test","","","","","","","","","","","",""
"1020","","f","psychophysics","139","375488","0.0-7.0-1.0-4.0-0.0-0.16","3","4","4","3","4","3","4","4","4","4","4","5","5","4","5","4","5","5","5","5","1","1","2","1","2","2","1","5","1","0","0","0","0","1","1","0","0","0","0","0","0","0","0","0","5","1","1","1","2","5","2","4","2","3","1","781451640430661634","王","373","","","","nonmatch","","","","","","","","","","","","","","key","f","6.944827586206896","768","428","f","true","nonmatch","img/ellipse.png","六边","椭圆","ALT1","formal_ALT1_2","","","","","","","","","","","",""
"null","<span style='color:GreenYellow; font-size: 70px;'>正确! </span>","null","html-keyboard-response","140","375989","0.0-7.0-1.0-4.0-0.0-1.16","3","4","4","3","4","3","4","4","4","4","4","5","5","4","5","4","5","5","5","5","1","1","2","1","2","2","1","5","1","0","0","0","0","1","1","0","0","0","0","0","0","0","0","0","5","1","1","1","2","5","2","4","2","3","1","781451640430661634","王","373","","","","","","","","","","","","","","","","","","","","","","","","","","","","","","feedback_test","","","","","","","","","","","",""
"962","","j","psychophysics","141","377952","0.0-7.0-1.0-4.0-0.0-0.17","3","4","4","3","4","3","4","4","4","4","4","5","5","4","5","4","5","5","5","5","1","1","2","1","2","2","1","5","1","0","0","0","0","1","1","0","0","0","0","0","0","0","0","0","5","1","1","1","2","5","2","4","2","3","1","781451640430661634","王","373","","","","match","","","","","","","","","","","","","","key","j","6.944326241134711","768","428","j","true","match","img/diamond.png","菱形","菱形","ALT1","formal_ALT1_2","","","","","","","","","","","",""
"null","<span style='color:GreenYellow; font-size: 70px;'>正确! </span>","null","html-keyboard-response","142","378454","0.0-7.0-1.0-4.0-0.0-1.17","3","4","4","3","4","3","4","4","4","4","4","5","5","4","5","4","5","5","5","5","1","1","2","1","2","2","1","5","1","0","0","0","0","1","1","0","0","0","0","0","0","0","0","0","5","1","1","1","2","5","2","4","2","3","1","781451640430661634","王","373","","","","","","","","","","","","","","","","","","","","","","","","","","","","","","feedback_test","","","","","","","","","","","",""
"896","","j","psychophysics","143","380351","0.0-7.0-1.0-4.0-0.0-0.18","3","4","4","3","4","3","4","4","4","4","4","5","5","4","5","4","5","5","5","5","1","1","2","1","2","2","1","5","1","0","0","0","0","1","1","0","0","0","0","0","0","0","0","0","5","1","1","1","2","5","2","4","2","3","1","781451640430661634","王","373","","","","match","","","","","","","","","","","","","","key","j","6.944485294117733","768","428","j","true","match","img/ellipse.png","椭圆","椭圆","ALT1","formal_ALT1_2","","","","","","","","","","","",""
"null","<span style='color:GreenYellow; font-size: 70px;'>正确! </span>","null","html-keyboard-response","144","380852","0.0-7.0-1.0-4.0-0.0-1.18","3","4","4","3","4","3","4","4","4","4","4","5","5","4","5","4","5","5","5","5","1","1","2","1","2","2","1","5","1","0","0","0","0","1","1","0","0","0","0","0","0","0","0","0","5","1","1","1","2","5","2","4","2","3","1","781451640430661634","王","373","","","","","","","","","","","","","","","","","","","","","","","","","","","","","","feedback_test","","","","","","","","","","","",""
"688","","j","psychophysics","145","382540","0.0-7.0-1.0-4.0-0.0-0.19","3","4","4","3","4","3","4","4","4","4","4","5","5","4","5","4","5","5","5","5","1","1","2","1","2","2","1","5","1","0","0","0","0","1","1","0","0","0","0","0","0","0","0","0","5","1","1","1","2","5","2","4","2","3","1","781451640430661634","王","373","","","","match","","","","","","","","","","","","","","key","j","6.944628099173458","768","428","f","false","nonmatch","img/ellipse.png","菱形","椭圆","ALT1","formal_ALT1_2","","","","","","","","","","","",""
"null","<span style='color:red; font-size: 70px;'>错误! </span>","null","html-keyboard-response","146","383041","0.0-7.0-1.0-4.0-0.0-1.19","3","4","4","3","4","3","4","4","4","4","4","5","5","4","5","4","5","5","5","5","1","1","2","1","2","2","1","5","1","0","0","0","0","1","1","0","0","0","0","0","0","0","0","0","5","1","1","1","2","5","2","4","2","3","1","781451640430661634","王","373","","","","","","","","","","","","","","","","","","","","","","","","","","","","","","feedback_test","","","","","","","","","","","",""
"790","","j","psychophysics","147","384833","0.0-7.0-1.0-4.0-0.0-0.20","3","4","4","3","4","3","4","4","4","4","4","5","5","4","5","4","5","5","5","5","1","1","2","1","2","2","1","5","1","0","0","0","0","1","1","0","0","0","0","0","0","0","0","0","5","1","1","1","2","5","2","4","2","3","1","781451640430661634","王","373","","","","match","","","","","","","","","","","","","","key","j","6.944747081712017","768","428","j","true","match","img/diamond.png","菱形","菱形","ALT1","formal_ALT1_2","","","","","","","","","","","",""
"null","<span style='color:GreenYellow; font-size: 70px;'>正确! </span>","null","html-keyboard-response","148","385335","0.0-7.0-1.0-4.0-0.0-1.20","3","4","4","3","4","3","4","4","4","4","4","5","5","4","5","4","5","5","5","5","1","1","2","1","2","2","1","5","1","0","0","0","0","1","1","0","0","0","0","0","0","0","0","0","5","1","1","1","2","5","2","4","2","3","1","781451640430661634","王","373","","","","","","","","","","","","","","","","","","","","","","","","","","","","","","feedback_test","","","","","","","","","","","",""
"721","","j","psychophysics","149","387058","0.0-7.0-1.0-4.0-0.0-0.21","3","4","4","3","4","3","4","4","4","4","4","5","5","4","5","4","5","5","5","5","1","1","2","1","2","2","1","5","1","0","0","0","0","1","1","0","0","0","0","0","0","0","0","0","5","1","1","1","2","5","2","4","2","3","1","781451640430661634","王","373","","","","match","","","","","","","","","","","","","","key","j","6.9445344129556545","768","428","j","true","match","img/diamond.png","菱形","菱形","ALT1","formal_ALT1_2","","","","","","","","","","","",""
"null","<span style='color:GreenYellow; font-size: 70px;'>正确! </span>","null","html-keyboard-response","150","387560","0.0-7.0-1.0-4.0-0.0-1.21","3","4","4","3","4","3","4","4","4","4","4","5","5","4","5","4","5","5","5","5","1","1","2","1","2","2","1","5","1","0","0","0","0","1","1","0","0","0","0","0","0","0","0","0","5","1","1","1","2","5","2","4","2","3","1","781451640430661634","王","373","","","","","","","","","","","","","","","","","","","","","","","","","","","","","","feedback_test","","","","","","","","","","","",""
"564","","f","psychophysics","151","389126","0.0-7.0-1.0-4.0-0.0-0.22","3","4","4","3","4","3","4","4","4","4","4","5","5","4","5","4","5","5","5","5","1","1","2","1","2","2","1","5","1","0","0","0","0","1","1","0","0","0","0","0","0","0","0","0","5","1","1","1","2","5","2","4","2","3","1","781451640430661634","王","373","","","","nonmatch","","","","","","","","","","","","","","key","f","6.944196428571429","768","428","f","true","nonmatch","img/ellipse.png","三角","椭圆","ALT1","formal_ALT1_2","","","","","","","","","","","",""
"null","<span style='color:GreenYellow; font-size: 70px;'>正确! </span>","null","html-keyboard-response","152","389627","0.0-7.0-1.0-4.0-0.0-1.22","3","4","4","3","4","3","4","4","4","4","4","5","5","4","5","4","5","5","5","5","1","1","2","1","2","2","1","5","1","0","0","0","0","1","1","0","0","0","0","0","0","0","0","0","5","1","1","1","2","5","2","4","2","3","1","781451640430661634","王","373","","","","","","","","","","","","","","","","","","","","","","","","","","","","","","feedback_test","","","","","","","","","","","",""
"993","","f","psychophysics","153","391620","0.0-7.0-1.0-4.0-0.0-0.23","3","4","4","3","4","3","4","4","4","4","4","5","5","4","5","4","5","5","5","5","1","1","2","1","2","2","1","5","1","0","0","0","0","1","1","0","0","0","0","0","0","0","0","0","5","1","1","1","2","5","2","4","2","3","1","781451640430661634","王","373","","","","nonmatch","","","","","","","","","","","","","","key","f","6.944405594405513","768","428","f","true","nonmatch","img/diamond.png","椭圆","菱形","ALT1","formal_ALT1_2","","","","","","","","","","","",""
"null","<span style='color:GreenYellow; font-size: 70px;'>正确! </span>","null","html-keyboard-response","154","392121","0.0-7.0-1.0-4.0-0.0-1.23","3","4","4","3","4","3","4","4","4","4","4","5","5","4","5","4","5","5","5","5","1","1","2","1","2","2","1","5","1","0","0","0","0","1","1","0","0","0","0","0","0","0","0","0","5","1","1","1","2","5","2","4","2","3","1","781451640430661634","王","373","","","","","","","","","","","","","","","","","","","","","","","","","","","","","","feedback_test","","","","","","","","","","","",""
"908","","f","psychophysics","155","394031","0.0-7.0-1.0-4.0-0.0-0.24","3","4","4","3","4","3","4","4","4","4","4","5","5","4","5","4","5","5","5","5","1","1","2","1","2","2","1","5","1","0","0","0","0","1","1","0","0","0","0","0","0","0","0","0","5","1","1","1","2","5","2","4","2","3","1","781451640430661634","王","373","","","","nonmatch","","","","","","","","","","","","","","key","f","6.94175824175837","768","428","f","true","nonmatch","img/diamond.png","六边","菱形","ALT1","formal_ALT1_2","","","","","","","","","","","",""
"null","<span style='color:GreenYellow; font-size: 70px;'>正确! </span>","null","html-keyboard-response","156","394531","0.0-7.0-1.0-4.0-0.0-1.24","3","4","4","3","4","3","4","4","4","4","4","5","5","4","5","4","5","5","5","5","1","1","2","1","2","2","1","5","1","0","0","0","0","1","1","0","0","0","0","0","0","0","0","0","5","1","1","1","2","5","2","4","2","3","1","781451640430661634","王","373","","","","","","","","","","","","","","","","","","","","","","","","","","","","","","feedback_test","","","","","","","","","","","",""
"765","","f","psychophysics","157","396298","0.0-7.0-1.0-4.0-0.0-0.25","3","4","4","3","4","3","4","4","4","4","4","5","5","4","5","4","5","5","5","5","1","1","2","1","2","2","1","5","1","0","0","0","0","1","1","0","0","0","0","0","0","0","0","0","5","1","1","1","2","5","2","4","2","3","1","781451640430661634","王","373","","","","nonmatch","","","","","","","","","","","","","","key","f","6.943083003952707","768","428","f","true","nonmatch","img/ellipse.png","三角","椭圆","ALT1","formal_ALT1_2","","","","","","","","","","","",""
"null","<span style='color:GreenYellow; font-size: 70px;'>正确! </span>","null","html-keyboard-response","158","396798","0.0-7.0-1.0-4.0-0.0-1.25","3","4","4","3","4","3","4","4","4","4","4","5","5","4","5","4","5","5","5","5","1","1","2","1","2","2","1","5","1","0","0","0","0","1","1","0","0","0","0","0","0","0","0","0","5","1","1","1","2","5","2","4","2","3","1","781451640430661634","王","373","","","","","","","","","","","","","","","","","","","","","","","","","","","","","","feedback_test","","","","","","","","","","","",""
"694","","f","psychophysics","159","398493","0.0-7.0-1.0-4.0-0.0-0.26","3","4","4","3","4","3","4","4","4","4","4","5","5","4","5","4","5","5","5","5","1","1","2","1","2","2","1","5","1","0","0","0","0","1","1","0","0","0","0","0","0","0","0","0","5","1","1","1","2","5","2","4","2","3","1","781451640430661634","王","373","","","","nonmatch","","","","","","","","","","","","","","key","f","6.944855967078333","768","428","f","true","nonmatch","img/triangle.png","椭圆","三角","ALT1","formal_ALT1_2","","","","","","","","","","","",""
"null","<span style='color:GreenYellow; font-size: 70px;'>正确! </span>","null","html-keyboard-response","160","398994","0.0-7.0-1.0-4.0-0.0-1.26","3","4","4","3","4","3","4","4","4","4","4","5","5","4","5","4","5","5","5","5","1","1","2","1","2","2","1","5","1","0","0","0","0","1","1","0","0","0","0","0","0","0","0","0","5","1","1","1","2","5","2","4","2","3","1","781451640430661634","王","373","","","","","","","","","","","","","","","","","","","","","","","","","","","","","","feedback_test","","","","","","","","","","","",""
"559","","j","psychophysics","161","400555","0.0-7.0-1.0-4.0-0.0-0.27","3","4","4","3","4","3","4","4","4","4","4","5","5","4","5","4","5","5","5","5","1","1","2","1","2","2","1","5","1","0","0","0","0","1","1","0","0","0","0","0","0","0","0","0","5","1","1","1","2","5","2","4","2","3","1","781451640430661634","王","373","","","","match","","","","","","","","","","","","","","key","j","6.944196428571429","768","428","j","true","match","img/triangle.png","三角","三角","ALT1","formal_ALT1_2","","","","","","","","","","","",""
"null","<span style='color:GreenYellow; font-size: 70px;'>正确! </span>","null","html-keyboard-response","162","401056","0.0-7.0-1.0-4.0-0.0-1.27","3","4","4","3","4","3","4","4","4","4","4","5","5","4","5","4","5","5","5","5","1","1","2","1","2","2","1","5","1","0","0","0","0","1","1","0","0","0","0","0","0","0","0","0","5","1","1","1","2","5","2","4","2","3","1","781451640430661634","王","373","","","","","","","","","","","","","","","","","","","","","","","","","","","","","","feedback_test","","","","","","","","","","","",""
"1009","","j","psychophysics","163","403067","0.0-7.0-1.0-4.0-0.0-0.28","3","4","4","3","4","3","4","4","4","4","4","5","5","4","5","4","5","5","5","5","1","1","2","1","2","2","1","5","1","0","0","0","0","1","1","0","0","0","0","0","0","0","0","0","5","1","1","1","2","5","2","4","2","3","1","781451640430661634","王","373","","","","match","","","","","","","","","","","","","","key","j","6.944791666666585","768","428","j","true","match","img/ellipse.png","椭圆","椭圆","ALT1","formal_ALT1_2","","","","","","","","","","","",""
"null","<span style='color:GreenYellow; font-size: 70px;'>正确! </span>","null","html-keyboard-response","164","403567","0.0-7.0-1.0-4.0-0.0-1.28","3","4","4","3","4","3","4","4","4","4","4","5","5","4","5","4","5","5","5","5","1","1","2","1","2","2","1","5","1","0","0","0","0","1","1","0","0","0","0","0","0","0","0","0","5","1","1","1","2","5","2","4","2","3","1","781451640430661634","王","373","","","","","","","","","","","","","","","","","","","","","","","","","","","","","","feedback_test","","","","","","","","","","","",""
"679","","j","psychophysics","165","405248","0.0-7.0-1.0-4.0-0.0-0.29","3","4","4","3","4","3","4","4","4","4","4","5","5","4","5","4","5","5","5","5","1","1","2","1","2","2","1","5","1","0","0","0","0","1","1","0","0","0","0","0","0","0","0","0","5","1","1","1","2","5","2","4","2","3","1","781451640430661634","王","373","","","","match","","","","","","","","","","","","","","key","j","6.94416666666657","768","428","j","true","match","img/diamond.png","菱形","菱形","ALT1","formal_ALT1_2","","","","","","","","","","","",""
"null","<span style='color:GreenYellow; font-size: 70px;'>正确! </span>","null","html-keyboard-response","166","405749","0.0-7.0-1.0-4.0-0.0-1.29","3","4","4","3","4","3","4","4","4","4","4","5","5","4","5","4","5","5","5","5","1","1","2","1","2","2","1","5","1","0","0","0","0","1","1","0","0","0","0","0","0","0","0","0","5","1","1","1","2","5","2","4","2","3","1","781451640430661634","王","373","","","","","","","","","","","","","","","","","","","","","","","","","","","","","","feedback_test","","","","","","","","","","","",""
"756","","f","psychophysics","167","407506","0.0-7.0-1.0-4.0-0.0-0.30","3","4","4","3","4","3","4","4","4","4","4","5","5","4","5","4","5","5","5","5","1","1","2","1","2","2","1","5","1","0","0","0","0","1","1","0","0","0","0","0","0","0","0","0","5","1","1","1","2","5","2","4","2","3","1","781451640430661634","王","373","","","","nonmatch","","","","","","","","","","","","","","key","f","6.944841269841177","768","428","f","true","nonmatch","img/hexagon.png","三角","六边","ALT1","formal_ALT1_2","","","","","","","","","","","",""
"null","<span style='color:GreenYellow; font-size: 70px;'>正确! </span>","null","html-keyboard-response","168","408007","0.0-7.0-1.0-4.0-0.0-1.30","3","4","4","3","4","3","4","4","4","4","4","5","5","4","5","4","5","5","5","5","1","1","2","1","2","2","1","5","1","0","0","0","0","1","1","0","0","0","0","0","0","0","0","0","5","1","1","1","2","5","2","4","2","3","1","781451640430661634","王","373","","","","","","","","","","","","","","","","","","","","","","","","","","","","","","feedback_test","","","","","","","","","","","",""
"817","","j","psychophysics","169","409826","0.0-7.0-1.0-4.0-0.0-0.31","3","4","4","3","4","3","4","4","4","4","4","5","5","4","5","4","5","5","5","5","1","1","2","1","2","2","1","5","1","0","0","0","0","1","1","0","0","0","0","0","0","0","0","0","5","1","1","1","2","5","2","4","2","3","1","781451640430661634","王","373","","","","match","","","","","","","","","","","","","","key","j","6.944444444444445","768","428","j","true","match","img/hexagon.png","六边","六边","ALT1","formal_ALT1_2","","","","","","","","","","","",""
"null","<span style='color:GreenYellow; font-size: 70px;'>正确! </span>","null","html-keyboard-response","170","410328","0.0-7.0-1.0-4.0-0.0-1.31","3","4","4","3","4","3","4","4","4","4","4","5","5","4","5","4","5","5","5","5","1","1","2","1","2","2","1","5","1","0","0","0","0","1","1","0","0","0","0","0","0","0","0","0","5","1","1","1","2","5","2","4","2","3","1","781451640430661634","王","373","","","","","","","","","","","","","","","","","","","","","","","","","","","","","","feedback_test","","","","","","","","","","","",""
"972","","j","psychophysics","171","412300","0.0-7.0-1.0-4.0-0.0-0.32","3","4","4","3","4","3","4","4","4","4","4","5","5","4","5","4","5","5","5","5","1","1","2","1","2","2","1","5","1","0","0","0","0","1","1","0","0","0","0","0","0","0","0","0","5","1","1","1","2","5","2","4","2","3","1","781451640430661634","王","373","","","","match","","","","","","","","","","","","","","key","j","6.9445229681980445","768","428","j","true","match","img/hexagon.png","六边","六边","ALT1","formal_ALT1_2","","","","","","","","","","","",""
"null","<span style='color:GreenYellow; font-size: 70px;'>正确! </span>","null","html-keyboard-response","172","412802","0.0-7.0-1.0-4.0-0.0-1.32","3","4","4","3","4","3","4","4","4","4","4","5","5","4","5","4","5","5","5","5","1","1","2","1","2","2","1","5","1","0","0","0","0","1","1","0","0","0","0","0","0","0","0","0","5","1","1","1","2","5","2","4","2","3","1","781451640430661634","王","373","","","","","","","","","","","","","","","","","","","","","","","","","","","","","","feedback_test","","","","","","","","","","","",""
"581","","j","psychophysics","173","414384","0.0-7.0-1.0-4.0-0.0-0.33","3","4","4","3","4","3","4","4","4","4","4","5","5","4","5","4","5","5","5","5","1","1","2","1","2","2","1","5","1","0","0","0","0","1","1","0","0","0","0","0","0","0","0","0","5","1","1","1","2","5","2","4","2","3","1","781451640430661634","王","373","","","","match","","","","","","","","","","","","","","key","j","6.944052863436072","768","428","j","true","match","img/ellipse.png","椭圆","椭圆","ALT1","formal_ALT1_2","","","","","","","","","","","",""
"null","<span style='color:GreenYellow; font-size: 70px;'>正确! </span>","null","html-keyboard-response","174","414885","0.0-7.0-1.0-4.0-0.0-1.33","3","4","4","3","4","3","4","4","4","4","4","5","5","4","5","4","5","5","5","5","1","1","2","1","2","2","1","5","1","0","0","0","0","1","1","0","0","0","0","0","0","0","0","0","5","1","1","1","2","5","2","4","2","3","1","781451640430661634","王","373","","","","","","","","","","","","","","","","","","","","","","","","","","","","","","feedback_test","","","","","","","","","","","",""
"670","","f","psychophysics","175","416558","0.0-7.0-1.0-4.0-0.0-0.34","3","4","4","3","4","3","4","4","4","4","4","5","5","4","5","4","5","5","5","5","1","1","2","1","2","2","1","5","1","0","0","0","0","1","1","0","0","0","0","0","0","0","0","0","5","1","1","1","2","5","2","4","2","3","1","781451640430661634","王","373","","","","nonmatch","","","","","","","","","","","","","","key","f","6.941422594142259","768","428","f","true","nonmatch","img/diamond.png","椭圆","菱形","ALT1","formal_ALT1_2","","","","","","","","","","","",""
"null","<span style='color:GreenYellow; font-size: 70px;'>正确! </span>","null","html-keyboard-response","176","417058","0.0-7.0-1.0-4.0-0.0-1.34","3","4","4","3","4","3","4","4","4","4","4","5","5","4","5","4","5","5","5","5","1","1","2","1","2","2","1","5","1","0","0","0","0","1","1","0","0","0","0","0","0","0","0","0","5","1","1","1","2","5","2","4","2","3","1","781451640430661634","王","373","","","","","","","","","","","","","","","","","","","","","","","","","","","","","","feedback_test","","","","","","","","","","","",""
"1086","","j","psychophysics","177","419146","0.0-7.0-1.0-4.0-0.0-0.35","3","4","4","3","4","3","4","4","4","4","4","5","5","4","5","4","5","5","5","5","1","1","2","1","2","2","1","5","1","0","0","0","0","1","1","0","0","0","0","0","0","0","0","0","5","1","1","1","2","5","2","4","2","3","1","781451640430661634","王","373","","","","match","","","","","","","","","","","","","","key","j","6.94314381270903","768","428","f","false","nonmatch","img/diamond.png","三角","菱形","ALT1","formal_ALT1_2","","","","","","","","","","","",""
"null","<span style='color:red; font-size: 70px;'>错误! </span>","null","html-keyboard-response","178","419648","0.0-7.0-1.0-4.0-0.0-1.35","3","4","4","3","4","3","4","4","4","4","4","5","5","4","5","4","5","5","5","5","1","1","2","1","2","2","1","5","1","0","0","0","0","1","1","0","0","0","0","0","0","0","0","0","5","1","1","1","2","5","2","4","2","3","1","781451640430661634","王","373","","","","","","","","","","","","","","","","","","","","","","","","","","","","","","feedback_test","","","","","","","","","","","",""
"657","","j","psychophysics","179","421306","0.0-7.0-1.0-4.0-0.0-0.36","3","4","4","3","4","3","4","4","4","4","4","5","5","4","5","4","5","5","5","5","1","1","2","1","2","2","1","5","1","0","0","0","0","1","1","0","0","0","0","0","0","0","0","0","5","1","1","1","2","5","2","4","2","3","1","781451640430661634","王","373","","","","match","","","","","","","","","","","","","","key","j","6.944537815126002","768","428","j","true","match","img/diamond.png","菱形","菱形","ALT1","formal_ALT1_2","","","","","","","","","","","",""
"null","<span style='color:GreenYellow; font-size: 70px;'>正确! </span>","null","html-keyboard-response","180","421807","0.0-7.0-1.0-4.0-0.0-1.36","3","4","4","3","4","3","4","4","4","4","4","5","5","4","5","4","5","5","5","5","1","1","2","1","2","2","1","5","1","0","0","0","0","1","1","0","0","0","0","0","0","0","0","0","5","1","1","1","2","5","2","4","2","3","1","781451640430661634","王","373","","","","","","","","","","","","","","","","","","","","","","","","","","","","","","feedback_test","","","","","","","","","","","",""
"595","","j","psychophysics","181","423404","0.0-7.0-1.0-4.0-0.0-0.37","3","4","4","3","4","3","4","4","4","4","4","5","5","4","5","4","5","5","5","5","1","1","2","1","2","2","1","5","1","0","0","0","0","1","1","0","0","0","0","0","0","0","0","0","5","1","1","1","2","5","2","4","2","3","1","781451640430661634","王","373","","","","match","","","","","","","","","","","","","","key","j","6.9441048034935005","768","428","j","true","match","img/ellipse.png","椭圆","椭圆","ALT1","formal_ALT1_2","","","","","","","","","","","",""
