"rt","stimulus","response","trial_type","trial_index","time_elapsed","internal_node_id","ses_1","ses_2","ses_3","ses_4","ses_5","ses_6","ses_7","ses_8","ses_9","ses_10","coreself_1","coreself_2","coreself_3","coreself_4","coreself_5","coreself_6","coreself_7","coreself_8","coreself_9","coreself_10","SGPS_1","SGPS_2","SGPS_3","SGPS_4","SGPS_5","SGPS_6","SGPS_7","SGPS_8","SGPS_9","NPI1","NPI2","NPI3","NPI4","NPI5","NPI6","NPI7","NPI8","NPI9","NPI10","NPI11","NPI12","NPI13","NPI14","NPI15","hsns_1","hsns_2","hsns_3","hsns_4","hsns_5","trap1","hsns_6","hsns_7","hsns_8","hsns_9","hsns_10","subj_idx","friend_name","ParticipantID","value","success","user_agent","responses","item_order","radio_event_ids","radio_event_times","key_event_times","mouse_event_times","straightlining","zigzagging","honeypot","timeout","failed_images","failed_audio","failed_video","version_attrib2","version_target2","correct","IAT","screen_id","task_id","RT","condition","word","varname","summary","version_attrib","version_target","time_stamp","view_history","response_type","key_press","avg_frame_time","center_x","center_y","correct_response","identity","Image","question_order","correct_answer","trap1_item"
"6330","
   <p><div style = ""color: white;font-size:25px;"">您好，欢迎参加本次实验。</div> </p>
   <p><div style = ""color: white;font-size:25px;"">为充分保障您的权利，请确保您已经知晓并同意《参与实验同意书》以及《数据公开知情同意书》。</div></p>
   <p><div style = ""color: white;font-size:25px;"">如果您未见过上述内容，请咨询实验员。</div></p>
   <p><div style = ""color: white;font-size:25px;"">如果您选择继续实验，则表示您已经清楚两份知情同意书的内容并同意。</div></p>
   <p><div style = ""color: pink;font-size:30px;"">请确保您记得day0的实验编号，您将在本次实验输入该编号，若您忘记，请咨询实验员后作答。</div></p>
   <p><div style = ""color: lightblue;font-size:25px;"">请您尽可能认真地作答，我们将依据您在各问卷和按键任务中的作答质量发放报酬。</div></p>
   <p> <div style = ""color: green;font-size:25px;""><按空格键至下页></div> </p>
   "," ","html-keyboard-response","0","6340","0.0-0.0","3","4","4","4","4","3","3","1","4","4","4","4","2","4","4","5","5","2","5","4","2","2","1","1","1","2","4","5","1","1","0","1","1","0","1","0","1","1","1","1","0","0","0","1","5","4","4","2","4","1","2","5","4","2","1","741960766508503041","张","696","","","","","","","","","","","","","","","","","","","","","","","","","","","","","","","","","","","","","","","","","",""
"","","","call-function","1","6347","0.0-1.0-0.0","3","4","4","4","4","3","3","1","4","4","4","4","2","4","4","5","5","2","5","4","2","2","1","1","1","2","4","5","1","1","0","1","1","0","1","0","1","1","1","1","0","0","0","1","5","4","4","2","4","1","2","5","4","2","1","741960766508503041","张","696","","","","","","","","","","","","","","","","","","","","","","","","","","","","","","","","","","","","","","","","","",""
"26504","","{""friend_name"":""张"",""ParticipantID"":""696""}","survey-html-form","2","32853","0.0-1.0-1.0","3","4","4","4","4","3","3","1","4","4","4","4","2","4","4","5","5","2","5","4","2","2","1","1","1","2","4","5","1","1","0","1","1","0","1","0","1","1","1","1","0","0","0","1","5","4","4","2","4","1","2","5","4","2","1","741960766508503041","张","696","","","","","","","","","","","","","","","","","","","","","","","","","","","","","","","","","","","","","","","","","",""
"","","","fullscreen","3","40226","0.0-2.0","3","4","4","4","4","3","3","1","4","4","4","4","2","4","4","5","5","2","5","4","2","2","1","1","1","2","4","5","1","1","0","1","1","0","1","0","1","1","1","1","0","0","0","1","5","4","4","2","4","1","2","5","4","2","1","741960766508503041","张","696","","true","{}","","","","","","","","","","","","","","","","","","","","","","","","","","","","","","","","","","","","","","",""
"28740.5","","{""Q01"":""3"",""Q02"":""4"",""Q03"":""4"",""Q04"":""4"",""Q05"":""4"",""Q06"":""3"",""Q07"":""3"",""Q08"":""1"",""Q09"":""4"",""Q10"":""4""}","survey-template","4","68972","0.0-3.0","3","4","4","4","4","3","3","1","4","4","4","4","2","4","4","5","5","2","5","4","2","2","1","1","1","2","4","5","1","1","0","1","1","0","1","0","1","1","1","1","0","0","0","1","5","4","4","2","4","1","2","5","4","2","1","741960766508503041","张","696","","","","{""Q01"":""3"",""Q02"":""4"",""Q03"":""4"",""Q04"":""4"",""Q05"":""4"",""Q06"":""3"",""Q07"":""3"",""Q08"":""1"",""Q09"":""4"",""Q10"":""4""}","[0,1,2,3,4,5,6,7,8,9]","[""Q01"",""Q02"",""Q03"",""Q04"",""Q05"",""Q06"",""Q07"",""Q08"",""Q10"",""Q09""]","[2264.0999999940395,4023.699999988079,6664,7462.0999999940395,8796.399999976158,9865.699999988079,15419.699999988079,21063.899999976158,22263.79999998212,22679.59999999404]","[]","[2264.0999999940395,4023.699999988079,5520.0999999940395,6664,7462.0999999940395,8796.399999976158,9865.699999988079,15419.699999988079,21063.899999976158,21784.09999999404,22263.79999998212,22679.59999999404,28738]","0.4","0.6666666666666666","0","","","","","","","","","","","","","","","","","","","","","","","","","","","","","",""
"23796.80000001192","","{""Q01"":""4"",""Q02"":""4"",""Q03"":""2"",""Q04"":""4"",""Q05"":""4"",""Q06"":""5"",""Q07"":""5"",""Q08"":""2"",""Q09"":""5"",""Q10"":""4""}","survey-template","5","92782","0.0-4.0","3","4","4","4","4","3","3","1","4","4","4","4","2","4","4","5","5","2","5","4","2","2","1","1","1","2","4","5","1","1","0","1","1","0","1","0","1","1","1","1","0","0","0","1","5","4","4","2","4","1","2","5","4","2","1","741960766508503041","张","696","","","","{""Q01"":""4"",""Q02"":""4"",""Q03"":""2"",""Q04"":""4"",""Q05"":""4"",""Q06"":""5"",""Q07"":""5"",""Q08"":""2"",""Q09"":""5"",""Q10"":""4""}","[0,1,2,3,4,5,6,7,8,9]","[""Q01"",""Q02"",""Q03"",""Q04"",""Q05"",""Q04"",""Q06"",""Q07"",""Q08"",""Q09"",""Q10""]","[3294,6422.100000023842,7549.600000023842,9065.800000011921,10462.40000000596,12132,13531.90000000596,14904,17364,21157.90000000596,22217.5]","[]","[3294,4254.100000023842,5762,6422.100000023842,7549.600000023842,9065.800000011921,10462.40000000596,12132,13531.90000000596,14904,17364,21157.90000000596,22217.5,23794.100000023842]","0.4","0.2222222222222222","0","","","","","","","","","","","","","","","","","","","","","","","","","","","","","",""
"","","","preload","6","93057","0.0-5.0","3","4","4","4","4","3","3","1","4","4","4","4","2","4","4","5","5","2","5","4","2","2","1","1","1","2","4","5","1","1","0","1","1","0","1","0","1","1","1","1","0","0","0","1","5","4","4","2","4","1","2","5","4","2","1","741960766508503041","张","696","","true","","","","","","","","","","","false","[]","[]","[]","","","","","","","","","","","","","","","","","","","","","","","","","",""
"12088","
    <h3>词语分类任务</h3>
    <p>在接下来的任务中，你需要对一系列词语进行分类。<p/>
    请先熟悉这些词语，这有利于你完成接下来的任务。</p>
    <table align=""center"" border=1 cellpadding=3 cellspacing=0>
    <tr> <th>类别</th> <th>词语</th> </tr>
    <tr> <td>&emsp;积极&emsp;</td> <td>&emsp;高尚、诚信、善良、君子、廉正、正直&emsp;</td> </tr>
    <tr> <td>&emsp;消极&emsp;</td> <td>&emsp;缺德、卑鄙、不孝、不仁、小人、黑心&emsp;</td> </tr>
    <tr> <td>&emsp;自我&emsp;</td> <td>&emsp;我、我的、自己、自己的、本人、本人的&emsp;</td> </tr>
    <tr> <td>&emsp;他人&emsp;</td> <td>&emsp;他、他的、别人、别人的、他人、他人的&emsp;</td> </tr>
    </table><br/>","0","html-button-response","7","105147","0.0-6.0-1.0-0.0","3","4","4","4","4","3","3","1","4","4","4","4","2","4","4","5","5","2","5","4","2","2","1","1","1","2","4","5","1","1","0","1","1","0","1","0","1","1","1","1","0","0","0","1","5","4","4","2","4","1","2","5","4","2","1","741960766508503041","张","696","","","","","","","","","","","","","","","","","1","2","","","","","","","","","","","","","","","","","","","","","","","",""
"16036","
    <div class=""tag-bottom""><p>
    —— 任务1：对“他人”词和“自我”词分类 ——<p/>
    不同词语会出现在屏幕中央，类别标签将始终显示在屏幕上方<p/>   
    <span style=""color:#FFD866""><b>请根据上方标签的提示，尽可能正确并且快速地做出按键反应</b></span><p/>
    当按键错误时屏幕中会出现<span style=""color:red""> X </span>，需要按另一个键纠正才能继续<br/><p/>
    请把双手食指分别放在键盘的“E”键和“I”键上<p/>
    按<空格键>开始
    </p></div>"," ","html-keyboard-response","8","121190","0.0-6.0-1.0-1.0","3","4","4","4","4","3","3","1","4","4","4","4","2","4","4","5","5","2","5","4","2","2","1","1","1","2","4","5","1","1","0","1","1","0","1","0","1","1","1","1","0","0","0","1","5","4","4","2","4","1","2","5","4","2","1","741960766508503041","张","696","","","","","","","","","","","","","","","","","","","","","","","","","","","","","","","","","","","","","","","","","",""
"null","","null","html-keyboard-response","9","121443","0.0-6.0-1.0-2.0-0.0","3","4","4","4","4","3","3","1","4","4","4","4","2","4","4","5","5","2","5","4","2","2","1","1","1","2","4","5","1","1","0","1","1","0","1","0","1","1","1","1","0","0","0","1","5","4","4","2","4","1","2","5","4","2","1","741960766508503041","张","696","","","","","","","","","","","","","","","","","","","","","","","","","","","","","","","","","","","","","","","","","",""
"893","<p style=""color:rgb(150, 250, 100); font-size: 35px;"">自己的</p>","i","categorize-html","10","122346","0.0-6.0-1.0-2.0-1.0","3","4","4","4","4","3","3","1","4","4","4","4","2","4","4","5","5","2","5","4","2","2","1","1","1","2","4","5","1","1","0","1","1","0","1","0","1","1","1","1","0","0","0","1","5","4","4","2","4","1","2","5","4","2","1","741960766508503041","张","696","","","","","","","","","","","","","","","","","","","true","11","1","moral","893","self","自己的","","","","","","","","","","","","","","","","",""
"null","","null","html-keyboard-response","11","122600","0.0-6.0-1.0-2.0-0.1","3","4","4","4","4","3","3","1","4","4","4","4","2","4","4","5","5","2","5","4","2","2","1","1","1","2","4","5","1","1","0","1","1","0","1","0","1","1","1","1","0","0","0","1","5","4","4","2","4","1","2","5","4","2","1","741960766508503041","张","696","","","","","","","","","","","","","","","","","","","","","","","","","","","","","","","","","","","","","","","","","",""
"646","<p style=""color:rgb(150, 250, 100); font-size: 35px;"">本人的</p>","i","categorize-html","12","123251","0.0-6.0-1.0-2.0-1.1","3","4","4","4","4","3","3","1","4","4","4","4","2","4","4","5","5","2","5","4","2","2","1","1","1","2","4","5","1","1","0","1","1","0","1","0","1","1","1","1","0","0","0","1","5","4","4","2","4","1","2","5","4","2","1","741960766508503041","张","696","","","","","","","","","","","","","","","","","","","true","11","1","moral","646","self","本人的","","","","","","","","","","","","","","","","",""
"null","","null","html-keyboard-response","13","123503","0.0-6.0-1.0-2.0-0.2","3","4","4","4","4","3","3","1","4","4","4","4","2","4","4","5","5","2","5","4","2","2","1","1","1","2","4","5","1","1","0","1","1","0","1","0","1","1","1","1","0","0","0","1","5","4","4","2","4","1","2","5","4","2","1","741960766508503041","张","696","","","","","","","","","","","","","","","","","","","","","","","","","","","","","","","","","","","","","","","","","",""
"372","<p style=""color:rgb(150, 250, 100); font-size: 35px;"">他</p>","e","categorize-html","14","123882","0.0-6.0-1.0-2.0-1.2","3","4","4","4","4","3","3","1","4","4","4","4","2","4","4","5","5","2","5","4","2","2","1","1","1","2","4","5","1","1","0","1","1","0","1","0","1","1","1","1","0","0","0","1","5","4","4","2","4","1","2","5","4","2","1","741960766508503041","张","696","","","","","","","","","","","","","","","","","","","true","11","1","moral","372","other","他","","","","","","","","","","","","","","","","",""
"null","","null","html-keyboard-response","15","124135","0.0-6.0-1.0-2.0-0.3","3","4","4","4","4","3","3","1","4","4","4","4","2","4","4","5","5","2","5","4","2","2","1","1","1","2","4","5","1","1","0","1","1","0","1","0","1","1","1","1","0","0","0","1","5","4","4","2","4","1","2","5","4","2","1","741960766508503041","张","696","","","","","","","","","","","","","","","","","","","","","","","","","","","","","","","","","","","","","","","","","",""
"382","<p style=""color:rgb(150, 250, 100); font-size: 35px;"">他的</p>","e","categorize-html","16","124523","0.0-6.0-1.0-2.0-1.3","3","4","4","4","4","3","3","1","4","4","4","4","2","4","4","5","5","2","5","4","2","2","1","1","1","2","4","5","1","1","0","1","1","0","1","0","1","1","1","1","0","0","0","1","5","4","4","2","4","1","2","5","4","2","1","741960766508503041","张","696","","","","","","","","","","","","","","","","","","","true","11","1","moral","382","other","他的","","","","","","","","","","","","","","","","",""
"null","","null","html-keyboard-response","17","124775","0.0-6.0-1.0-2.0-0.4","3","4","4","4","4","3","3","1","4","4","4","4","2","4","4","5","5","2","5","4","2","2","1","1","1","2","4","5","1","1","0","1","1","0","1","0","1","1","1","1","0","0","0","1","5","4","4","2","4","1","2","5","4","2","1","741960766508503041","张","696","","","","","","","","","","","","","","","","","","","","","","","","","","","","","","","","","","","","","","","","","",""
"446","<p style=""color:rgb(150, 250, 100); font-size: 35px;"">本人</p>","i","categorize-html","18","125227","0.0-6.0-1.0-2.0-1.4","3","4","4","4","4","3","3","1","4","4","4","4","2","4","4","5","5","2","5","4","2","2","1","1","1","2","4","5","1","1","0","1","1","0","1","0","1","1","1","1","0","0","0","1","5","4","4","2","4","1","2","5","4","2","1","741960766508503041","张","696","","","","","","","","","","","","","","","","","","","true","11","1","moral","446","self","本人","","","","","","","","","","","","","","","","",""
"null","","null","html-keyboard-response","19","125487","0.0-6.0-1.0-2.0-0.5","3","4","4","4","4","3","3","1","4","4","4","4","2","4","4","5","5","2","5","4","2","2","1","1","1","2","4","5","1","1","0","1","1","0","1","0","1","1","1","1","0","0","0","1","5","4","4","2","4","1","2","5","4","2","1","741960766508503041","张","696","","","","","","","","","","","","","","","","","","","","","","","","","","","","","","","","","","","","","","","","","",""
"515","<p style=""color:rgb(150, 250, 100); font-size: 35px;"">别人的</p>","e","categorize-html","20","126008","0.0-6.0-1.0-2.0-1.5","3","4","4","4","4","3","3","1","4","4","4","4","2","4","4","5","5","2","5","4","2","2","1","1","1","2","4","5","1","1","0","1","1","0","1","0","1","1","1","1","0","0","0","1","5","4","4","2","4","1","2","5","4","2","1","741960766508503041","张","696","","","","","","","","","","","","","","","","","","","true","11","1","moral","515","other","别人的","","","","","","","","","","","","","","","","",""
"null","","null","html-keyboard-response","21","126261","0.0-6.0-1.0-2.0-0.6","3","4","4","4","4","3","3","1","4","4","4","4","2","4","4","5","5","2","5","4","2","2","1","1","1","2","4","5","1","1","0","1","1","0","1","0","1","1","1","1","0","0","0","1","5","4","4","2","4","1","2","5","4","2","1","741960766508503041","张","696","","","","","","","","","","","","","","","","","","","","","","","","","","","","","","","","","","","","","","","","","",""
"450","<p style=""color:rgb(150, 250, 100); font-size: 35px;"">别人</p>","e","categorize-html","22","126717","0.0-6.0-1.0-2.0-1.6","3","4","4","4","4","3","3","1","4","4","4","4","2","4","4","5","5","2","5","4","2","2","1","1","1","2","4","5","1","1","0","1","1","0","1","0","1","1","1","1","0","0","0","1","5","4","4","2","4","1","2","5","4","2","1","741960766508503041","张","696","","","","","","","","","","","","","","","","","","","true","11","1","moral","450","other","别人","","","","","","","","","","","","","","","","",""
"null","","null","html-keyboard-response","23","126971","0.0-6.0-1.0-2.0-0.7","3","4","4","4","4","3","3","1","4","4","4","4","2","4","4","5","5","2","5","4","2","2","1","1","1","2","4","5","1","1","0","1","1","0","1","0","1","1","1","1","0","0","0","1","5","4","4","2","4","1","2","5","4","2","1","741960766508503041","张","696","","","","","","","","","","","","","","","","","","","","","","","","","","","","","","","","","","","","","","","","","",""
"376","<p style=""color:rgb(150, 250, 100); font-size: 35px;"">他人的</p>","e","categorize-html","24","127353","0.0-6.0-1.0-2.0-1.7","3","4","4","4","4","3","3","1","4","4","4","4","2","4","4","5","5","2","5","4","2","2","1","1","1","2","4","5","1","1","0","1","1","0","1","0","1","1","1","1","0","0","0","1","5","4","4","2","4","1","2","5","4","2","1","741960766508503041","张","696","","","","","","","","","","","","","","","","","","","true","11","1","moral","376","other","他人的","","","","","","","","","","","","","","","","",""
"null","","null","html-keyboard-response","25","127604","0.0-6.0-1.0-2.0-0.8","3","4","4","4","4","3","3","1","4","4","4","4","2","4","4","5","5","2","5","4","2","2","1","1","1","2","4","5","1","1","0","1","1","0","1","0","1","1","1","1","0","0","0","1","5","4","4","2","4","1","2","5","4","2","1","741960766508503041","张","696","","","","","","","","","","","","","","","","","","","","","","","","","","","","","","","","","","","","","","","","","",""
"374","<p style=""color:rgb(150, 250, 100); font-size: 35px;"">他人</p>","e","categorize-html","26","127985","0.0-6.0-1.0-2.0-1.8","3","4","4","4","4","3","3","1","4","4","4","4","2","4","4","5","5","2","5","4","2","2","1","1","1","2","4","5","1","1","0","1","1","0","1","0","1","1","1","1","0","0","0","1","5","4","4","2","4","1","2","5","4","2","1","741960766508503041","张","696","","","","","","","","","","","","","","","","","","","true","11","1","moral","374","other","他人","","","","","","","","","","","","","","","","",""
"null","","null","html-keyboard-response","27","128237","0.0-6.0-1.0-2.0-0.9","3","4","4","4","4","3","3","1","4","4","4","4","2","4","4","5","5","2","5","4","2","2","1","1","1","2","4","5","1","1","0","1","1","0","1","0","1","1","1","1","0","0","0","1","5","4","4","2","4","1","2","5","4","2","1","741960766508503041","张","696","","","","","","","","","","","","","","","","","","","","","","","","","","","","","","","","","","","","","","","","","",""
"384","<p style=""color:rgb(150, 250, 100); font-size: 35px;"">自己</p>","i","categorize-html","28","128626","0.0-6.0-1.0-2.0-1.9","3","4","4","4","4","3","3","1","4","4","4","4","2","4","4","5","5","2","5","4","2","2","1","1","1","2","4","5","1","1","0","1","1","0","1","0","1","1","1","1","0","0","0","1","5","4","4","2","4","1","2","5","4","2","1","741960766508503041","张","696","","","","","","","","","","","","","","","","","","","true","11","1","moral","384","self","自己","","","","","","","","","","","","","","","","",""
"null","","null","html-keyboard-response","29","128878","0.0-6.0-1.0-2.0-0.10","3","4","4","4","4","3","3","1","4","4","4","4","2","4","4","5","5","2","5","4","2","2","1","1","1","2","4","5","1","1","0","1","1","0","1","0","1","1","1","1","0","0","0","1","5","4","4","2","4","1","2","5","4","2","1","741960766508503041","张","696","","","","","","","","","","","","","","","","","","","","","","","","","","","","","","","","","","","","","","","","","",""
"324","<p style=""color:rgb(150, 250, 100); font-size: 35px;"">我的</p>","i","categorize-html","30","129208","0.0-6.0-1.0-2.0-1.10","3","4","4","4","4","3","3","1","4","4","4","4","2","4","4","5","5","2","5","4","2","2","1","1","1","2","4","5","1","1","0","1","1","0","1","0","1","1","1","1","0","0","0","1","5","4","4","2","4","1","2","5","4","2","1","741960766508503041","张","696","","","","","","","","","","","","","","","","","","","true","11","1","moral","324","self","我的","","","","","","","","","","","","","","","","",""
"null","","null","html-keyboard-response","31","129460","0.0-6.0-1.0-2.0-0.11","3","4","4","4","4","3","3","1","4","4","4","4","2","4","4","5","5","2","5","4","2","2","1","1","1","2","4","5","1","1","0","1","1","0","1","0","1","1","1","1","0","0","0","1","5","4","4","2","4","1","2","5","4","2","1","741960766508503041","张","696","","","","","","","","","","","","","","","","","","","","","","","","","","","","","","","","","","","","","","","","","",""
"370","<p style=""color:rgb(150, 250, 100); font-size: 35px;"">我</p>","i","categorize-html","32","129835","0.0-6.0-1.0-2.0-1.11","3","4","4","4","4","3","3","1","4","4","4","4","2","4","4","5","5","2","5","4","2","2","1","1","1","2","4","5","1","1","0","1","1","0","1","0","1","1","1","1","0","0","0","1","5","4","4","2","4","1","2","5","4","2","1","741960766508503041","张","696","","","","","","","","","","","","","","","","","","","true","11","1","moral","370","self","我","","","","","","","","","","","","","","","","",""
"2048","
    <div class=""tag-bottom""><p>
    —— 任务2：对“积极”词和“消极”词分类 ——<p/>   
    <span style=""color:#78DCE8""><b>注意上方，类别标签和需要分类的词语都已经改变</b></span><p/>
    <span style=""color:#FFD866""><b>请根据上方标签的提示，尽可能正确并且快速地做出按键反应</b></span><p/>
    当按键错误时屏幕中会出现<span style=""color:red""> X </span>，需要按另一个键纠正才能继续<br/><p/>
    请把双手食指分别放在键盘的“E”键和“I”键上<p/>
    按<空格键>开始
    </p></div>"," ","html-keyboard-response","33","131885","0.0-6.0-1.0-3.0","3","4","4","4","4","3","3","1","4","4","4","4","2","4","4","5","5","2","5","4","2","2","1","1","1","2","4","5","1","1","0","1","1","0","1","0","1","1","1","1","0","0","0","1","5","4","4","2","4","1","2","5","4","2","1","741960766508503041","张","696","","","","","","","","","","","","","","","","","","","","","","","","","","","","","","","","","","","","","","","","","",""
"null","","null","html-keyboard-response","34","132137","0.0-6.0-1.0-4.0-0.0","3","4","4","4","4","3","3","1","4","4","4","4","2","4","4","5","5","2","5","4","2","2","1","1","1","2","4","5","1","1","0","1","1","0","1","0","1","1","1","1","0","0","0","1","5","4","4","2","4","1","2","5","4","2","1","741960766508503041","张","696","","","","","","","","","","","","","","","","","","","","","","","","","","","","","","","","","","","","","","","","","",""
"1310","<p style=""color:white; font-size: 35px;"">不仁</p>","i","categorize-html","35","133454","0.0-6.0-1.0-4.0-1.0","3","4","4","4","4","3","3","1","4","4","4","4","2","4","4","5","5","2","5","4","2","2","1","1","1","2","4","5","1","1","0","1","1","0","1","0","1","1","1","1","0","0","0","1","5","4","4","2","4","1","2","5","4","2","1","741960766508503041","张","696","","","","","","","","","","","","","","","","","","","true","12","2","moral","1310","negative","不仁","","","","","","","","","","","","","","","","",""
"null","","null","html-keyboard-response","36","133705","0.0-6.0-1.0-4.0-0.1","3","4","4","4","4","3","3","1","4","4","4","4","2","4","4","5","5","2","5","4","2","2","1","1","1","2","4","5","1","1","0","1","1","0","1","0","1","1","1","1","0","0","0","1","5","4","4","2","4","1","2","5","4","2","1","741960766508503041","张","696","","","","","","","","","","","","","","","","","","","","","","","","","","","","","","","","","","","","","","","","","",""
"763","<p style=""color:white; font-size: 35px;"">君子</p>","e","categorize-html","37","134475","0.0-6.0-1.0-4.0-1.1","3","4","4","4","4","3","3","1","4","4","4","4","2","4","4","5","5","2","5","4","2","2","1","1","1","2","4","5","1","1","0","1","1","0","1","0","1","1","1","1","0","0","0","1","5","4","4","2","4","1","2","5","4","2","1","741960766508503041","张","696","","","","","","","","","","","","","","","","","","","true","12","2","moral","763","positive","君子","","","","","","","","","","","","","","","","",""
"null","","null","html-keyboard-response","38","134730","0.0-6.0-1.0-4.0-0.2","3","4","4","4","4","3","3","1","4","4","4","4","2","4","4","5","5","2","5","4","2","2","1","1","1","2","4","5","1","1","0","1","1","0","1","0","1","1","1","1","0","0","0","1","5","4","4","2","4","1","2","5","4","2","1","741960766508503041","张","696","","","","","","","","","","","","","","","","","","","","","","","","","","","","","","","","","","","","","","","","","",""
"704","<p style=""color:white; font-size: 35px;"">小人</p>","i","categorize-html","39","135440","0.0-6.0-1.0-4.0-1.2","3","4","4","4","4","3","3","1","4","4","4","4","2","4","4","5","5","2","5","4","2","2","1","1","1","2","4","5","1","1","0","1","1","0","1","0","1","1","1","1","0","0","0","1","5","4","4","2","4","1","2","5","4","2","1","741960766508503041","张","696","","","","","","","","","","","","","","","","","","","true","12","2","moral","704","negative","小人","","","","","","","","","","","","","","","","",""
"null","","null","html-keyboard-response","40","135693","0.0-6.0-1.0-4.0-0.3","3","4","4","4","4","3","3","1","4","4","4","4","2","4","4","5","5","2","5","4","2","2","1","1","1","2","4","5","1","1","0","1","1","0","1","0","1","1","1","1","0","0","0","1","5","4","4","2","4","1","2","5","4","2","1","741960766508503041","张","696","","","","","","","","","","","","","","","","","","","","","","","","","","","","","","","","","","","","","","","","","",""
"587","<p style=""color:white; font-size: 35px;"">善良</p>","e","categorize-html","41","136286","0.0-6.0-1.0-4.0-1.3","3","4","4","4","4","3","3","1","4","4","4","4","2","4","4","5","5","2","5","4","2","2","1","1","1","2","4","5","1","1","0","1","1","0","1","0","1","1","1","1","0","0","0","1","5","4","4","2","4","1","2","5","4","2","1","741960766508503041","张","696","","","","","","","","","","","","","","","","","","","true","12","2","moral","587","positive","善良","","","","","","","","","","","","","","","","",""
"null","","null","html-keyboard-response","42","136538","0.0-6.0-1.0-4.0-0.4","3","4","4","4","4","3","3","1","4","4","4","4","2","4","4","5","5","2","5","4","2","2","1","1","1","2","4","5","1","1","0","1","1","0","1","0","1","1","1","1","0","0","0","1","5","4","4","2","4","1","2","5","4","2","1","741960766508503041","张","696","","","","","","","","","","","","","","","","","","","","","","","","","","","","","","","","","","","","","","","","","",""
"700","<p style=""color:white; font-size: 35px;"">缺德</p>","i","categorize-html","43","137245","0.0-6.0-1.0-4.0-1.4","3","4","4","4","4","3","3","1","4","4","4","4","2","4","4","5","5","2","5","4","2","2","1","1","1","2","4","5","1","1","0","1","1","0","1","0","1","1","1","1","0","0","0","1","5","4","4","2","4","1","2","5","4","2","1","741960766508503041","张","696","","","","","","","","","","","","","","","","","","","true","12","2","moral","700","negative","缺德","","","","","","","","","","","","","","","","",""
"null","","null","html-keyboard-response","44","137497","0.0-6.0-1.0-4.0-0.5","3","4","4","4","4","3","3","1","4","4","4","4","2","4","4","5","5","2","5","4","2","2","1","1","1","2","4","5","1","1","0","1","1","0","1","0","1","1","1","1","0","0","0","1","5","4","4","2","4","1","2","5","4","2","1","741960766508503041","张","696","","","","","","","","","","","","","","","","","","","","","","","","","","","","","","","","","","","","","","","","","",""
"609","<p style=""color:white; font-size: 35px;"">正直</p>","e","categorize-html","45","138109","0.0-6.0-1.0-4.0-1.5","3","4","4","4","4","3","3","1","4","4","4","4","2","4","4","5","5","2","5","4","2","2","1","1","1","2","4","5","1","1","0","1","1","0","1","0","1","1","1","1","0","0","0","1","5","4","4","2","4","1","2","5","4","2","1","741960766508503041","张","696","","","","","","","","","","","","","","","","","","","true","12","2","moral","609","positive","正直","","","","","","","","","","","","","","","","",""
"null","","null","html-keyboard-response","46","138361","0.0-6.0-1.0-4.0-0.6","3","4","4","4","4","3","3","1","4","4","4","4","2","4","4","5","5","2","5","4","2","2","1","1","1","2","4","5","1","1","0","1","1","0","1","0","1","1","1","1","0","0","0","1","5","4","4","2","4","1","2","5","4","2","1","741960766508503041","张","696","","","","","","","","","","","","","","","","","","","","","","","","","","","","","","","","","","","","","","","","","",""
"569","<p style=""color:white; font-size: 35px;"">高尚</p>","e","categorize-html","47","138936","0.0-6.0-1.0-4.0-1.6","3","4","4","4","4","3","3","1","4","4","4","4","2","4","4","5","5","2","5","4","2","2","1","1","1","2","4","5","1","1","0","1","1","0","1","0","1","1","1","1","0","0","0","1","5","4","4","2","4","1","2","5","4","2","1","741960766508503041","张","696","","","","","","","","","","","","","","","","","","","true","12","2","moral","569","positive","高尚","","","","","","","","","","","","","","","","",""
"null","","null","html-keyboard-response","48","139188","0.0-6.0-1.0-4.0-0.7","3","4","4","4","4","3","3","1","4","4","4","4","2","4","4","5","5","2","5","4","2","2","1","1","1","2","4","5","1","1","0","1","1","0","1","0","1","1","1","1","0","0","0","1","5","4","4","2","4","1","2","5","4","2","1","741960766508503041","张","696","","","","","","","","","","","","","","","","","","","","","","","","","","","","","","","","","","","","","","","","","",""
"548","<p style=""color:white; font-size: 35px;"">廉正</p>","e","categorize-html","49","139742","0.0-6.0-1.0-4.0-1.7","3","4","4","4","4","3","3","1","4","4","4","4","2","4","4","5","5","2","5","4","2","2","1","1","1","2","4","5","1","1","0","1","1","0","1","0","1","1","1","1","0","0","0","1","5","4","4","2","4","1","2","5","4","2","1","741960766508503041","张","696","","","","","","","","","","","","","","","","","","","true","12","2","moral","548","positive","廉正","","","","","","","","","","","","","","","","",""
"null","","null","html-keyboard-response","50","139994","0.0-6.0-1.0-4.0-0.8","3","4","4","4","4","3","3","1","4","4","4","4","2","4","4","5","5","2","5","4","2","2","1","1","1","2","4","5","1","1","0","1","1","0","1","0","1","1","1","1","0","0","0","1","5","4","4","2","4","1","2","5","4","2","1","741960766508503041","张","696","","","","","","","","","","","","","","","","","","","","","","","","","","","","","","","","","","","","","","","","","",""
"473","<p style=""color:white; font-size: 35px;"">不孝</p>","i","categorize-html","51","140473","0.0-6.0-1.0-4.0-1.8","3","4","4","4","4","3","3","1","4","4","4","4","2","4","4","5","5","2","5","4","2","2","1","1","1","2","4","5","1","1","0","1","1","0","1","0","1","1","1","1","0","0","0","1","5","4","4","2","4","1","2","5","4","2","1","741960766508503041","张","696","","","","","","","","","","","","","","","","","","","true","12","2","moral","473","negative","不孝","","","","","","","","","","","","","","","","",""
"null","","null","html-keyboard-response","52","140724","0.0-6.0-1.0-4.0-0.9","3","4","4","4","4","3","3","1","4","4","4","4","2","4","4","5","5","2","5","4","2","2","1","1","1","2","4","5","1","1","0","1","1","0","1","0","1","1","1","1","0","0","0","1","5","4","4","2","4","1","2","5","4","2","1","741960766508503041","张","696","","","","","","","","","","","","","","","","","","","","","","","","","","","","","","","","","","","","","","","","","",""
"490","<p style=""color:white; font-size: 35px;"">诚信</p>","e","categorize-html","53","141220","0.0-6.0-1.0-4.0-1.9","3","4","4","4","4","3","3","1","4","4","4","4","2","4","4","5","5","2","5","4","2","2","1","1","1","2","4","5","1","1","0","1","1","0","1","0","1","1","1","1","0","0","0","1","5","4","4","2","4","1","2","5","4","2","1","741960766508503041","张","696","","","","","","","","","","","","","","","","","","","true","12","2","moral","490","positive","诚信","","","","","","","","","","","","","","","","",""
"null","","null","html-keyboard-response","54","141471","0.0-6.0-1.0-4.0-0.10","3","4","4","4","4","3","3","1","4","4","4","4","2","4","4","5","5","2","5","4","2","2","1","1","1","2","4","5","1","1","0","1","1","0","1","0","1","1","1","1","0","0","0","1","5","4","4","2","4","1","2","5","4","2","1","741960766508503041","张","696","","","","","","","","","","","","","","","","","","","","","","","","","","","","","","","","","","","","","","","","","",""
"489","<p style=""color:white; font-size: 35px;"">卑鄙</p>","i","categorize-html","55","141966","0.0-6.0-1.0-4.0-1.10","3","4","4","4","4","3","3","1","4","4","4","4","2","4","4","5","5","2","5","4","2","2","1","1","1","2","4","5","1","1","0","1","1","0","1","0","1","1","1","1","0","0","0","1","5","4","4","2","4","1","2","5","4","2","1","741960766508503041","张","696","","","","","","","","","","","","","","","","","","","true","12","2","moral","489","negative","卑鄙","","","","","","","","","","","","","","","","",""
"null","","null","html-keyboard-response","56","142217","0.0-6.0-1.0-4.0-0.11","3","4","4","4","4","3","3","1","4","4","4","4","2","4","4","5","5","2","5","4","2","2","1","1","1","2","4","5","1","1","0","1","1","0","1","0","1","1","1","1","0","0","0","1","5","4","4","2","4","1","2","5","4","2","1","741960766508503041","张","696","","","","","","","","","","","","","","","","","","","","","","","","","","","","","","","","","","","","","","","","","",""
"495","<p style=""color:white; font-size: 35px;"">黑心</p>","i","categorize-html","57","142715","0.0-6.0-1.0-4.0-1.11","3","4","4","4","4","3","3","1","4","4","4","4","2","4","4","5","5","2","5","4","2","2","1","1","1","2","4","5","1","1","0","1","1","0","1","0","1","1","1","1","0","0","0","1","5","4","4","2","4","1","2","5","4","2","1","741960766508503041","张","696","","","","","","","","","","","","","","","","","","","true","12","2","moral","495","negative","黑心","","","","","","","","","","","","","","","","",""
"7710","
    <div class=""tag-bottom""><p>
    —— 任务3：对“他人/积极”词和“自我/消极”词分类 ——<p/>
    <span style=""color:#78DCE8""><b>注意上方，之前的四类词语将混合在一起交替呈现</b></span><p/>
    <span style=""color:#FFD866""><b>请根据上方标签的提示，尽可能正确并且快速地做出按键反应</b></span><p/>
    当按键错误时屏幕中会出现<span style=""color:red""> X </span>，需要按另一个键纠正才能继续<br/><p/>
    请把双手食指分别放在键盘的“E”键和“I”键上<p/>
    按<空格键>开始
    </p></div>"," ","html-keyboard-response","58","150427","0.0-6.0-1.0-5.0","3","4","4","4","4","3","3","1","4","4","4","4","2","4","4","5","5","2","5","4","2","2","1","1","1","2","4","5","1","1","0","1","1","0","1","0","1","1","1","1","0","0","0","1","5","4","4","2","4","1","2","5","4","2","1","741960766508503041","张","696","","","","","","","","","","","","","","","","","","","","","","","","","","","","","","","","","","","","","","","","","",""
"null","","null","html-keyboard-response","59","150679","0.0-6.0-1.0-6.0-0.0","3","4","4","4","4","3","3","1","4","4","4","4","2","4","4","5","5","2","5","4","2","2","1","1","1","2","4","5","1","1","0","1","1","0","1","0","1","1","1","1","0","0","0","1","5","4","4","2","4","1","2","5","4","2","1","741960766508503041","张","696","","","","","","","","","","","","","","","","","","","","","","","","","","","","","","","","","","","","","","","","","",""
"894","<p style=""color:rgb(150, 250, 100); font-size: 35px;"">他人的</p>","e","categorize-html","60","151581","0.0-6.0-1.0-6.0-1.0","3","4","4","4","4","3","3","1","4","4","4","4","2","4","4","5","5","2","5","4","2","2","1","1","1","2","4","5","1","1","0","1","1","0","1","0","1","1","1","1","0","0","0","1","5","4","4","2","4","1","2","5","4","2","1","741960766508503041","张","696","","","","","","","","","","","","","","","","","","","true","13","3","moral","894","other","他人的","","","","","","","","","","","","","","","","",""
"null","","null","html-keyboard-response","61","151833","0.0-6.0-1.0-6.0-0.1","3","4","4","4","4","3","3","1","4","4","4","4","2","4","4","5","5","2","5","4","2","2","1","1","1","2","4","5","1","1","0","1","1","0","1","0","1","1","1","1","0","0","0","1","5","4","4","2","4","1","2","5","4","2","1","741960766508503041","张","696","","","","","","","","","","","","","","","","","","","","","","","","","","","","","","","","","","","","","","","","","",""
"1481","<p style=""color:white; font-size: 35px;"">高尚</p>","e","categorize-html","62","153320","0.0-6.0-1.0-6.0-1.1","3","4","4","4","4","3","3","1","4","4","4","4","2","4","4","5","5","2","5","4","2","2","1","1","1","2","4","5","1","1","0","1","1","0","1","0","1","1","1","1","0","0","0","1","5","4","4","2","4","1","2","5","4","2","1","741960766508503041","张","696","","","","","","","","","","","","","","","","","","","true","13","3","moral","1481","positive","高尚","","","","","","","","","","","","","","","","",""
"null","","null","html-keyboard-response","63","153572","0.0-6.0-1.0-6.0-0.2","3","4","4","4","4","3","3","1","4","4","4","4","2","4","4","5","5","2","5","4","2","2","1","1","1","2","4","5","1","1","0","1","1","0","1","0","1","1","1","1","0","0","0","1","5","4","4","2","4","1","2","5","4","2","1","741960766508503041","张","696","","","","","","","","","","","","","","","","","","","","","","","","","","","","","","","","","","","","","","","","","",""
"612","<p style=""color:rgb(150, 250, 100); font-size: 35px;"">本人</p>","i","categorize-html","64","154188","0.0-6.0-1.0-6.0-1.2","3","4","4","4","4","3","3","1","4","4","4","4","2","4","4","5","5","2","5","4","2","2","1","1","1","2","4","5","1","1","0","1","1","0","1","0","1","1","1","1","0","0","0","1","5","4","4","2","4","1","2","5","4","2","1","741960766508503041","张","696","","","","","","","","","","","","","","","","","","","true","13","3","moral","612","self","本人","","","","","","","","","","","","","","","","",""
"null","","null","html-keyboard-response","65","154440","0.0-6.0-1.0-6.0-0.3","3","4","4","4","4","3","3","1","4","4","4","4","2","4","4","5","5","2","5","4","2","2","1","1","1","2","4","5","1","1","0","1","1","0","1","0","1","1","1","1","0","0","0","1","5","4","4","2","4","1","2","5","4","2","1","741960766508503041","张","696","","","","","","","","","","","","","","","","","","","","","","","","","","","","","","","","","","","","","","","","","",""
"1533","<p style=""color:white; font-size: 35px;"">缺德</p>","i","categorize-html","66","155979","0.0-6.0-1.0-6.0-1.3","3","4","4","4","4","3","3","1","4","4","4","4","2","4","4","5","5","2","5","4","2","2","1","1","1","2","4","5","1","1","0","1","1","0","1","0","1","1","1","1","0","0","0","1","5","4","4","2","4","1","2","5","4","2","1","741960766508503041","张","696","","","","","","","","","","","","","","","","","","","true","13","3","moral","1533","negative","缺德","","","","","","","","","","","","","","","","",""
"null","","null","html-keyboard-response","67","156231","0.0-6.0-1.0-6.0-0.4","3","4","4","4","4","3","3","1","4","4","4","4","2","4","4","5","5","2","5","4","2","2","1","1","1","2","4","5","1","1","0","1","1","0","1","0","1","1","1","1","0","0","0","1","5","4","4","2","4","1","2","5","4","2","1","741960766508503041","张","696","","","","","","","","","","","","","","","","","","","","","","","","","","","","","","","","","","","","","","","","","",""
"1355","<p style=""color:rgb(150, 250, 100); font-size: 35px;"">别人</p>","e","categorize-html","68","157593","0.0-6.0-1.0-6.0-1.4","3","4","4","4","4","3","3","1","4","4","4","4","2","4","4","5","5","2","5","4","2","2","1","1","1","2","4","5","1","1","0","1","1","0","1","0","1","1","1","1","0","0","0","1","5","4","4","2","4","1","2","5","4","2","1","741960766508503041","张","696","","","","","","","","","","","","","","","","","","","true","13","3","moral","1355","other","别人","","","","","","","","","","","","","","","","",""
"null","","null","html-keyboard-response","69","157844","0.0-6.0-1.0-6.0-0.5","3","4","4","4","4","3","3","1","4","4","4","4","2","4","4","5","5","2","5","4","2","2","1","1","1","2","4","5","1","1","0","1","1","0","1","0","1","1","1","1","0","0","0","1","5","4","4","2","4","1","2","5","4","2","1","741960766508503041","张","696","","","","","","","","","","","","","","","","","","","","","","","","","","","","","","","","","","","","","","","","","",""
"1068","<p style=""color:white; font-size: 35px;"">不仁</p>","i","categorize-html","70","158918","0.0-6.0-1.0-6.0-1.5","3","4","4","4","4","3","3","1","4","4","4","4","2","4","4","5","5","2","5","4","2","2","1","1","1","2","4","5","1","1","0","1","1","0","1","0","1","1","1","1","0","0","0","1","5","4","4","2","4","1","2","5","4","2","1","741960766508503041","张","696","","","","","","","","","","","","","","","","","","","true","13","3","moral","1068","negative","不仁","","","","","","","","","","","","","","","","",""
"null","","null","html-keyboard-response","71","159170","0.0-6.0-1.0-6.0-0.6","3","4","4","4","4","3","3","1","4","4","4","4","2","4","4","5","5","2","5","4","2","2","1","1","1","2","4","5","1","1","0","1","1","0","1","0","1","1","1","1","0","0","0","1","5","4","4","2","4","1","2","5","4","2","1","741960766508503041","张","696","","","","","","","","","","","","","","","","","","","","","","","","","","","","","","","","","","","","","","","","","",""
"680","<p style=""color:rgb(150, 250, 100); font-size: 35px;"">自己的</p>","i","categorize-html","72","159857","0.0-6.0-1.0-6.0-1.6","3","4","4","4","4","3","3","1","4","4","4","4","2","4","4","5","5","2","5","4","2","2","1","1","1","2","4","5","1","1","0","1","1","0","1","0","1","1","1","1","0","0","0","1","5","4","4","2","4","1","2","5","4","2","1","741960766508503041","张","696","","","","","","","","","","","","","","","","","","","true","13","3","moral","680","self","自己的","","","","","","","","","","","","","","","","",""
"null","","null","html-keyboard-response","73","160109","0.0-6.0-1.0-6.0-0.7","3","4","4","4","4","3","3","1","4","4","4","4","2","4","4","5","5","2","5","4","2","2","1","1","1","2","4","5","1","1","0","1","1","0","1","0","1","1","1","1","0","0","0","1","5","4","4","2","4","1","2","5","4","2","1","741960766508503041","张","696","","","","","","","","","","","","","","","","","","","","","","","","","","","","","","","","","","","","","","","","","",""
"600","<p style=""color:white; font-size: 35px;"">正直</p>","e","categorize-html","74","160712","0.0-6.0-1.0-6.0-1.7","3","4","4","4","4","3","3","1","4","4","4","4","2","4","4","5","5","2","5","4","2","2","1","1","1","2","4","5","1","1","0","1","1","0","1","0","1","1","1","1","0","0","0","1","5","4","4","2","4","1","2","5","4","2","1","741960766508503041","张","696","","","","","","","","","","","","","","","","","","","true","13","3","moral","600","positive","正直","","","","","","","","","","","","","","","","",""
"null","","null","html-keyboard-response","75","160964","0.0-6.0-1.0-6.0-0.8","3","4","4","4","4","3","3","1","4","4","4","4","2","4","4","5","5","2","5","4","2","2","1","1","1","2","4","5","1","1","0","1","1","0","1","0","1","1","1","1","0","0","0","1","5","4","4","2","4","1","2","5","4","2","1","741960766508503041","张","696","","","","","","","","","","","","","","","","","","","","","","","","","","","","","","","","","","","","","","","","","",""
"703","<p style=""color:rgb(150, 250, 100); font-size: 35px;"">自己</p>","i","categorize-html","76","161674","0.0-6.0-1.0-6.0-1.8","3","4","4","4","4","3","3","1","4","4","4","4","2","4","4","5","5","2","5","4","2","2","1","1","1","2","4","5","1","1","0","1","1","0","1","0","1","1","1","1","0","0","0","1","5","4","4","2","4","1","2","5","4","2","1","741960766508503041","张","696","","","","","","","","","","","","","","","","","","","true","13","3","moral","703","self","自己","","","","","","","","","","","","","","","","",""
"null","","null","html-keyboard-response","77","161926","0.0-6.0-1.0-6.0-0.9","3","4","4","4","4","3","3","1","4","4","4","4","2","4","4","5","5","2","5","4","2","2","1","1","1","2","4","5","1","1","0","1","1","0","1","0","1","1","1","1","0","0","0","1","5","4","4","2","4","1","2","5","4","2","1","741960766508503041","张","696","","","","","","","","","","","","","","","","","","","","","","","","","","","","","","","","","","","","","","","","","",""
"1042","<p style=""color:white; font-size: 35px;"">小人</p>","i","categorize-html","78","162975","0.0-6.0-1.0-6.0-1.9","3","4","4","4","4","3","3","1","4","4","4","4","2","4","4","5","5","2","5","4","2","2","1","1","1","2","4","5","1","1","0","1","1","0","1","0","1","1","1","1","0","0","0","1","5","4","4","2","4","1","2","5","4","2","1","741960766508503041","张","696","","","","","","","","","","","","","","","","","","","true","13","3","moral","1042","negative","小人","","","","","","","","","","","","","","","","",""
"null","","null","html-keyboard-response","79","163227","0.0-6.0-1.0-6.0-0.10","3","4","4","4","4","3","3","1","4","4","4","4","2","4","4","5","5","2","5","4","2","2","1","1","1","2","4","5","1","1","0","1","1","0","1","0","1","1","1","1","0","0","0","1","5","4","4","2","4","1","2","5","4","2","1","741960766508503041","张","696","","","","","","","","","","","","","","","","","","","","","","","","","","","","","","","","","","","","","","","","","",""
"622","<p style=""color:rgb(150, 250, 100); font-size: 35px;"">他人</p>","e","categorize-html","80","163856","0.0-6.0-1.0-6.0-1.10","3","4","4","4","4","3","3","1","4","4","4","4","2","4","4","5","5","2","5","4","2","2","1","1","1","2","4","5","1","1","0","1","1","0","1","0","1","1","1","1","0","0","0","1","5","4","4","2","4","1","2","5","4","2","1","741960766508503041","张","696","","","","","","","","","","","","","","","","","","","true","13","3","moral","622","other","他人","","","","","","","","","","","","","","","","",""
"null","","null","html-keyboard-response","81","164108","0.0-6.0-1.0-6.0-0.11","3","4","4","4","4","3","3","1","4","4","4","4","2","4","4","5","5","2","5","4","2","2","1","1","1","2","4","5","1","1","0","1","1","0","1","0","1","1","1","1","0","0","0","1","5","4","4","2","4","1","2","5","4","2","1","741960766508503041","张","696","","","","","","","","","","","","","","","","","","","","","","","","","","","","","","","","","","","","","","","","","",""
"661","<p style=""color:white; font-size: 35px;"">善良</p>","e","categorize-html","82","164775","0.0-6.0-1.0-6.0-1.11","3","4","4","4","4","3","3","1","4","4","4","4","2","4","4","5","5","2","5","4","2","2","1","1","1","2","4","5","1","1","0","1","1","0","1","0","1","1","1","1","0","0","0","1","5","4","4","2","4","1","2","5","4","2","1","741960766508503041","张","696","","","","","","","","","","","","","","","","","","","true","13","3","moral","661","positive","善良","","","","","","","","","","","","","","","","",""
"null","","null","html-keyboard-response","83","165037","0.0-6.0-1.0-6.0-0.12","3","4","4","4","4","3","3","1","4","4","4","4","2","4","4","5","5","2","5","4","2","2","1","1","1","2","4","5","1","1","0","1","1","0","1","0","1","1","1","1","0","0","0","1","5","4","4","2","4","1","2","5","4","2","1","741960766508503041","张","696","","","","","","","","","","","","","","","","","","","","","","","","","","","","","","","","","","","","","","","","","",""
"788","<p style=""color:rgb(150, 250, 100); font-size: 35px;"">我的</p>","i","categorize-html","84","165831","0.0-6.0-1.0-6.0-1.12","3","4","4","4","4","3","3","1","4","4","4","4","2","4","4","5","5","2","5","4","2","2","1","1","1","2","4","5","1","1","0","1","1","0","1","0","1","1","1","1","0","0","0","1","5","4","4","2","4","1","2","5","4","2","1","741960766508503041","张","696","","","","","","","","","","","","","","","","","","","true","13","3","moral","788","self","我的","","","","","","","","","","","","","","","","",""
"null","","null","html-keyboard-response","85","166083","0.0-6.0-1.0-6.0-0.13","3","4","4","4","4","3","3","1","4","4","4","4","2","4","4","5","5","2","5","4","2","2","1","1","1","2","4","5","1","1","0","1","1","0","1","0","1","1","1","1","0","0","0","1","5","4","4","2","4","1","2","5","4","2","1","741960766508503041","张","696","","","","","","","","","","","","","","","","","","","","","","","","","","","","","","","","","","","","","","","","","",""
"874","<p style=""color:white; font-size: 35px;"">黑心</p>","i","categorize-html","86","166961","0.0-6.0-1.0-6.0-1.13","3","4","4","4","4","3","3","1","4","4","4","4","2","4","4","5","5","2","5","4","2","2","1","1","1","2","4","5","1","1","0","1","1","0","1","0","1","1","1","1","0","0","0","1","5","4","4","2","4","1","2","5","4","2","1","741960766508503041","张","696","","","","","","","","","","","","","","","","","","","true","13","3","moral","874","negative","黑心","","","","","","","","","","","","","","","","",""
"null","","null","html-keyboard-response","87","167213","0.0-6.0-1.0-6.0-0.14","3","4","4","4","4","3","3","1","4","4","4","4","2","4","4","5","5","2","5","4","2","2","1","1","1","2","4","5","1","1","0","1","1","0","1","0","1","1","1","1","0","0","0","1","5","4","4","2","4","1","2","5","4","2","1","741960766508503041","张","696","","","","","","","","","","","","","","","","","","","","","","","","","","","","","","","","","","","","","","","","","",""
"631","<p style=""color:rgb(150, 250, 100); font-size: 35px;"">别人的</p>","e","categorize-html","88","167850","0.0-6.0-1.0-6.0-1.14","3","4","4","4","4","3","3","1","4","4","4","4","2","4","4","5","5","2","5","4","2","2","1","1","1","2","4","5","1","1","0","1","1","0","1","0","1","1","1","1","0","0","0","1","5","4","4","2","4","1","2","5","4","2","1","741960766508503041","张","696","","","","","","","","","","","","","","","","","","","true","13","3","moral","631","other","别人的","","","","","","","","","","","","","","","","",""
"null","","null","html-keyboard-response","89","168102","0.0-6.0-1.0-6.0-0.15","3","4","4","4","4","3","3","1","4","4","4","4","2","4","4","5","5","2","5","4","2","2","1","1","1","2","4","5","1","1","0","1","1","0","1","0","1","1","1","1","0","0","0","1","5","4","4","2","4","1","2","5","4","2","1","741960766508503041","张","696","","","","","","","","","","","","","","","","","","","","","","","","","","","","","","","","","","","","","","","","","",""
"849","<p style=""color:white; font-size: 35px;"">君子</p>","e","categorize-html","90","168957","0.0-6.0-1.0-6.0-1.15","3","4","4","4","4","3","3","1","4","4","4","4","2","4","4","5","5","2","5","4","2","2","1","1","1","2","4","5","1","1","0","1","1","0","1","0","1","1","1","1","0","0","0","1","5","4","4","2","4","1","2","5","4","2","1","741960766508503041","张","696","","","","","","","","","","","","","","","","","","","true","13","3","moral","849","positive","君子","","","","","","","","","","","","","","","","",""
"null","","null","html-keyboard-response","91","169209","0.0-6.0-1.0-6.0-0.16","3","4","4","4","4","3","3","1","4","4","4","4","2","4","4","5","5","2","5","4","2","2","1","1","1","2","4","5","1","1","0","1","1","0","1","0","1","1","1","1","0","0","0","1","5","4","4","2","4","1","2","5","4","2","1","741960766508503041","张","696","","","","","","","","","","","","","","","","","","","","","","","","","","","","","","","","","","","","","","","","","",""
"548","<p style=""color:rgb(150, 250, 100); font-size: 35px;"">他的</p>","e","categorize-html","92","169763","0.0-6.0-1.0-6.0-1.16","3","4","4","4","4","3","3","1","4","4","4","4","2","4","4","5","5","2","5","4","2","2","1","1","1","2","4","5","1","1","0","1","1","0","1","0","1","1","1","1","0","0","0","1","5","4","4","2","4","1","2","5","4","2","1","741960766508503041","张","696","","","","","","","","","","","","","","","","","","","true","13","3","moral","548","other","他的","","","","","","","","","","","","","","","","",""
"null","","null","html-keyboard-response","93","170018","0.0-6.0-1.0-6.0-0.17","3","4","4","4","4","3","3","1","4","4","4","4","2","4","4","5","5","2","5","4","2","2","1","1","1","2","4","5","1","1","0","1","1","0","1","0","1","1","1","1","0","0","0","1","5","4","4","2","4","1","2","5","4","2","1","741960766508503041","张","696","","","","","","","","","","","","","","","","","","","","","","","","","","","","","","","","","","","","","","","","","",""
"481","<p style=""color:white; font-size: 35px;"">廉正</p>","e","categorize-html","94","170506","0.0-6.0-1.0-6.0-1.17","3","4","4","4","4","3","3","1","4","4","4","4","2","4","4","5","5","2","5","4","2","2","1","1","1","2","4","5","1","1","0","1","1","0","1","0","1","1","1","1","0","0","0","1","5","4","4","2","4","1","2","5","4","2","1","741960766508503041","张","696","","","","","","","","","","","","","","","","","","","true","13","3","moral","481","positive","廉正","","","","","","","","","","","","","","","","",""
"null","","null","html-keyboard-response","95","170759","0.0-6.0-1.0-6.0-0.18","3","4","4","4","4","3","3","1","4","4","4","4","2","4","4","5","5","2","5","4","2","2","1","1","1","2","4","5","1","1","0","1","1","0","1","0","1","1","1","1","0","0","0","1","5","4","4","2","4","1","2","5","4","2","1","741960766508503041","张","696","","","","","","","","","","","","","","","","","","","","","","","","","","","","","","","","","","","","","","","","","",""
"514","<p style=""color:rgb(150, 250, 100); font-size: 35px;"">我</p>","i","categorize-html","96","171277","0.0-6.0-1.0-6.0-1.18","3","4","4","4","4","3","3","1","4","4","4","4","2","4","4","5","5","2","5","4","2","2","1","1","1","2","4","5","1","1","0","1","1","0","1","0","1","1","1","1","0","0","0","1","5","4","4","2","4","1","2","5","4","2","1","741960766508503041","张","696","","","","","","","","","","","","","","","","","","","true","13","3","moral","514","self","我","","","","","","","","","","","","","","","","",""
"null","","null","html-keyboard-response","97","171530","0.0-6.0-1.0-6.0-0.19","3","4","4","4","4","3","3","1","4","4","4","4","2","4","4","5","5","2","5","4","2","2","1","1","1","2","4","5","1","1","0","1","1","0","1","0","1","1","1","1","0","0","0","1","5","4","4","2","4","1","2","5","4","2","1","741960766508503041","张","696","","","","","","","","","","","","","","","","","","","","","","","","","","","","","","","","","","","","","","","","","",""
"612","<p style=""color:white; font-size: 35px;"">不孝</p>","i","categorize-html","98","172148","0.0-6.0-1.0-6.0-1.19","3","4","4","4","4","3","3","1","4","4","4","4","2","4","4","5","5","2","5","4","2","2","1","1","1","2","4","5","1","1","0","1","1","0","1","0","1","1","1","1","0","0","0","1","5","4","4","2","4","1","2","5","4","2","1","741960766508503041","张","696","","","","","","","","","","","","","","","","","","","true","13","3","moral","612","negative","不孝","","","","","","","","","","","","","","","","",""
"null","","null","html-keyboard-response","99","172400","0.0-6.0-1.0-6.0-0.20","3","4","4","4","4","3","3","1","4","4","4","4","2","4","4","5","5","2","5","4","2","2","1","1","1","2","4","5","1","1","0","1","1","0","1","0","1","1","1","1","0","0","0","1","5","4","4","2","4","1","2","5","4","2","1","741960766508503041","张","696","","","","","","","","","","","","","","","","","","","","","","","","","","","","","","","","","","","","","","","","","",""
"509","<p style=""color:rgb(150, 250, 100); font-size: 35px;"">本人的</p>","i","categorize-html","100","172916","0.0-6.0-1.0-6.0-1.20","3","4","4","4","4","3","3","1","4","4","4","4","2","4","4","5","5","2","5","4","2","2","1","1","1","2","4","5","1","1","0","1","1","0","1","0","1","1","1","1","0","0","0","1","5","4","4","2","4","1","2","5","4","2","1","741960766508503041","张","696","","","","","","","","","","","","","","","","","","","true","13","3","moral","509","self","本人的","","","","","","","","","","","","","","","","",""
"null","","null","html-keyboard-response","101","173180","0.0-6.0-1.0-6.0-0.21","3","4","4","4","4","3","3","1","4","4","4","4","2","4","4","5","5","2","5","4","2","2","1","1","1","2","4","5","1","1","0","1","1","0","1","0","1","1","1","1","0","0","0","1","5","4","4","2","4","1","2","5","4","2","1","741960766508503041","张","696","","","","","","","","","","","","","","","","","","","","","","","","","","","","","","","","","","","","","","","","","",""
"774","<p style=""color:white; font-size: 35px;"">卑鄙</p>","i","categorize-html","102","173963","0.0-6.0-1.0-6.0-1.21","3","4","4","4","4","3","3","1","4","4","4","4","2","4","4","5","5","2","5","4","2","2","1","1","1","2","4","5","1","1","0","1","1","0","1","0","1","1","1","1","0","0","0","1","5","4","4","2","4","1","2","5","4","2","1","741960766508503041","张","696","","","","","","","","","","","","","","","","","","","true","13","3","moral","774","negative","卑鄙","","","","","","","","","","","","","","","","",""
"null","","null","html-keyboard-response","103","174216","0.0-6.0-1.0-6.0-0.22","3","4","4","4","4","3","3","1","4","4","4","4","2","4","4","5","5","2","5","4","2","2","1","1","1","2","4","5","1","1","0","1","1","0","1","0","1","1","1","1","0","0","0","1","5","4","4","2","4","1","2","5","4","2","1","741960766508503041","张","696","","","","","","","","","","","","","","","","","","","","","","","","","","","","","","","","","","","","","","","","","",""
"533","<p style=""color:rgb(150, 250, 100); font-size: 35px;"">他</p>","e","categorize-html","104","174755","0.0-6.0-1.0-6.0-1.22","3","4","4","4","4","3","3","1","4","4","4","4","2","4","4","5","5","2","5","4","2","2","1","1","1","2","4","5","1","1","0","1","1","0","1","0","1","1","1","1","0","0","0","1","5","4","4","2","4","1","2","5","4","2","1","741960766508503041","张","696","","","","","","","","","","","","","","","","","","","true","13","3","moral","533","other","他","","","","","","","","","","","","","","","","",""
"null","","null","html-keyboard-response","105","175008","0.0-6.0-1.0-6.0-0.23","3","4","4","4","4","3","3","1","4","4","4","4","2","4","4","5","5","2","5","4","2","2","1","1","1","2","4","5","1","1","0","1","1","0","1","0","1","1","1","1","0","0","0","1","5","4","4","2","4","1","2","5","4","2","1","741960766508503041","张","696","","","","","","","","","","","","","","","","","","","","","","","","","","","","","","","","","","","","","","","","","",""
"535","<p style=""color:white; font-size: 35px;"">诚信</p>","e","categorize-html","106","175550","0.0-6.0-1.0-6.0-1.23","3","4","4","4","4","3","3","1","4","4","4","4","2","4","4","5","5","2","5","4","2","2","1","1","1","2","4","5","1","1","0","1","1","0","1","0","1","1","1","1","0","0","0","1","5","4","4","2","4","1","2","5","4","2","1","741960766508503041","张","696","","","","","","","","","","","","","","","","","","","true","13","3","moral","535","positive","诚信","","","","","","","","","","","","","","","","",""
"153599","
    <div class=""tag-bottom""><p>
    —— 任务4：对“他人/积极”词和“自我/消极”词分类 ——<p/>
    <span style=""color:#78DCE8""><b>与刚才的任务完全相同，请再次对这四类词语分类</b></span><p/>
    <span style=""color:#FFD866""><b>请根据上方标签的提示，尽可能正确并且快速地做出按键反应</b></span><p/>
    当按键错误时屏幕中会出现<span style=""color:red""> X </span>，需要按另一个键纠正才能继续<br/><p/>
    请把双手食指分别放在键盘的“E”键和“I”键上<p/>
    按<空格键>开始
    </p></div>"," ","html-keyboard-response","107","329150","0.0-6.0-1.0-7.0","3","4","4","4","4","3","3","1","4","4","4","4","2","4","4","5","5","2","5","4","2","2","1","1","1","2","4","5","1","1","0","1","1","0","1","0","1","1","1","1","0","0","0","1","5","4","4","2","4","1","2","5","4","2","1","741960766508503041","张","696","","","","","","","","","","","","","","","","","","","","","","","","","","","","","","","","","","","","","","","","","",""
"null","","null","html-keyboard-response","108","329404","0.0-6.0-1.0-8.0-0.0","3","4","4","4","4","3","3","1","4","4","4","4","2","4","4","5","5","2","5","4","2","2","1","1","1","2","4","5","1","1","0","1","1","0","1","0","1","1","1","1","0","0","0","1","5","4","4","2","4","1","2","5","4","2","1","741960766508503041","张","696","","","","","","","","","","","","","","","","","","","","","","","","","","","","","","","","","","","","","","","","","",""
"714","<p style=""color:rgb(150, 250, 100); font-size: 35px;"">他人</p>","e","categorize-html","109","330125","0.0-6.0-1.0-8.0-1.0","3","4","4","4","4","3","3","1","4","4","4","4","2","4","4","5","5","2","5","4","2","2","1","1","1","2","4","5","1","1","0","1","1","0","1","0","1","1","1","1","0","0","0","1","5","4","4","2","4","1","2","5","4","2","1","741960766508503041","张","696","","","","","","","","","","","","","","","","","","","true","14","4","moral","714","other","他人","","","","","","","","","","","","","","","","",""
"null","","null","html-keyboard-response","110","330388","0.0-6.0-1.0-8.0-0.1","3","4","4","4","4","3","3","1","4","4","4","4","2","4","4","5","5","2","5","4","2","2","1","1","1","2","4","5","1","1","0","1","1","0","1","0","1","1","1","1","0","0","0","1","5","4","4","2","4","1","2","5","4","2","1","741960766508503041","张","696","","","","","","","","","","","","","","","","","","","","","","","","","","","","","","","","","","","","","","","","","",""
"551","<p style=""color:white; font-size: 35px;"">君子</p>","e","categorize-html","111","330945","0.0-6.0-1.0-8.0-1.1","3","4","4","4","4","3","3","1","4","4","4","4","2","4","4","5","5","2","5","4","2","2","1","1","1","2","4","5","1","1","0","1","1","0","1","0","1","1","1","1","0","0","0","1","5","4","4","2","4","1","2","5","4","2","1","741960766508503041","张","696","","","","","","","","","","","","","","","","","","","true","14","4","moral","551","positive","君子","","","","","","","","","","","","","","","","",""
"null","","null","html-keyboard-response","112","331196","0.0-6.0-1.0-8.0-0.2","3","4","4","4","4","3","3","1","4","4","4","4","2","4","4","5","5","2","5","4","2","2","1","1","1","2","4","5","1","1","0","1","1","0","1","0","1","1","1","1","0","0","0","1","5","4","4","2","4","1","2","5","4","2","1","741960766508503041","张","696","","","","","","","","","","","","","","","","","","","","","","","","","","","","","","","","","","","","","","","","","",""
"421","<p style=""color:rgb(150, 250, 100); font-size: 35px;"">我</p>","i","categorize-html","113","331624","0.0-6.0-1.0-8.0-1.2","3","4","4","4","4","3","3","1","4","4","4","4","2","4","4","5","5","2","5","4","2","2","1","1","1","2","4","5","1","1","0","1","1","0","1","0","1","1","1","1","0","0","0","1","5","4","4","2","4","1","2","5","4","2","1","741960766508503041","张","696","","","","","","","","","","","","","","","","","","","true","14","4","moral","421","self","我","","","","","","","","","","","","","","","","",""
"null","","null","html-keyboard-response","114","331876","0.0-6.0-1.0-8.0-0.3","3","4","4","4","4","3","3","1","4","4","4","4","2","4","4","5","5","2","5","4","2","2","1","1","1","2","4","5","1","1","0","1","1","0","1","0","1","1","1","1","0","0","0","1","5","4","4","2","4","1","2","5","4","2","1","741960766508503041","张","696","","","","","","","","","","","","","","","","","","","","","","","","","","","","","","","","","","","","","","","","","",""
"573","<p style=""color:white; font-size: 35px;"">不孝</p>","i","categorize-html","115","332452","0.0-6.0-1.0-8.0-1.3","3","4","4","4","4","3","3","1","4","4","4","4","2","4","4","5","5","2","5","4","2","2","1","1","1","2","4","5","1","1","0","1","1","0","1","0","1","1","1","1","0","0","0","1","5","4","4","2","4","1","2","5","4","2","1","741960766508503041","张","696","","","","","","","","","","","","","","","","","","","true","14","4","moral","573","negative","不孝","","","","","","","","","","","","","","","","",""
"null","","null","html-keyboard-response","116","332705","0.0-6.0-1.0-8.0-0.4","3","4","4","4","4","3","3","1","4","4","4","4","2","4","4","5","5","2","5","4","2","2","1","1","1","2","4","5","1","1","0","1","1","0","1","0","1","1","1","1","0","0","0","1","5","4","4","2","4","1","2","5","4","2","1","741960766508503041","张","696","","","","","","","","","","","","","","","","","","","","","","","","","","","","","","","","","","","","","","","","","",""
"608","<p style=""color:rgb(150, 250, 100); font-size: 35px;"">自己的</p>","i","categorize-html","117","333319","0.0-6.0-1.0-8.0-1.4","3","4","4","4","4","3","3","1","4","4","4","4","2","4","4","5","5","2","5","4","2","2","1","1","1","2","4","5","1","1","0","1","1","0","1","0","1","1","1","1","0","0","0","1","5","4","4","2","4","1","2","5","4","2","1","741960766508503041","张","696","","","","","","","","","","","","","","","","","","","true","14","4","moral","608","self","自己的","","","","","","","","","","","","","","","","",""
"null","","null","html-keyboard-response","118","333571","0.0-6.0-1.0-8.0-0.5","3","4","4","4","4","3","3","1","4","4","4","4","2","4","4","5","5","2","5","4","2","2","1","1","1","2","4","5","1","1","0","1","1","0","1","0","1","1","1","1","0","0","0","1","5","4","4","2","4","1","2","5","4","2","1","741960766508503041","张","696","","","","","","","","","","","","","","","","","","","","","","","","","","","","","","","","","","","","","","","","","",""
"525","<p style=""color:white; font-size: 35px;"">缺德</p>","e","categorize-html","119","334943","0.0-6.0-1.0-8.0-1.5","3","4","4","4","4","3","3","1","4","4","4","4","2","4","4","5","5","2","5","4","2","2","1","1","1","2","4","5","1","1","0","1","1","0","1","0","1","1","1","1","0","0","0","1","5","4","4","2","4","1","2","5","4","2","1","741960766508503041","张","696","","","","","","","","","","","","","","","","","","","false","14","4","moral","1197.6666666666665","negative","缺德","","","","","","","","","","","","","","","","",""
"null","","null","html-keyboard-response","120","335195","0.0-6.0-1.0-8.0-0.6","3","4","4","4","4","3","3","1","4","4","4","4","2","4","4","5","5","2","5","4","2","2","1","1","1","2","4","5","1","1","0","1","1","0","1","0","1","1","1","1","0","0","0","1","5","4","4","2","4","1","2","5","4","2","1","741960766508503041","张","696","","","","","","","","","","","","","","","","","","","","","","","","","","","","","","","","","","","","","","","","","",""
"664","<p style=""color:rgb(150, 250, 100); font-size: 35px;"">别人</p>","e","categorize-html","121","335866","0.0-6.0-1.0-8.0-1.6","3","4","4","4","4","3","3","1","4","4","4","4","2","4","4","5","5","2","5","4","2","2","1","1","1","2","4","5","1","1","0","1","1","0","1","0","1","1","1","1","0","0","0","1","5","4","4","2","4","1","2","5","4","2","1","741960766508503041","张","696","","","","","","","","","","","","","","","","","","","true","14","4","moral","664","other","别人","","","","","","","","","","","","","","","","",""
"null","","null","html-keyboard-response","122","336118","0.0-6.0-1.0-8.0-0.7","3","4","4","4","4","3","3","1","4","4","4","4","2","4","4","5","5","2","5","4","2","2","1","1","1","2","4","5","1","1","0","1","1","0","1","0","1","1","1","1","0","0","0","1","5","4","4","2","4","1","2","5","4","2","1","741960766508503041","张","696","","","","","","","","","","","","","","","","","","","","","","","","","","","","","","","","","","","","","","","","","",""
"578","<p style=""color:white; font-size: 35px;"">诚信</p>","e","categorize-html","123","336703","0.0-6.0-1.0-8.0-1.7","3","4","4","4","4","3","3","1","4","4","4","4","2","4","4","5","5","2","5","4","2","2","1","1","1","2","4","5","1","1","0","1","1","0","1","0","1","1","1","1","0","0","0","1","5","4","4","2","4","1","2","5","4","2","1","741960766508503041","张","696","","","","","","","","","","","","","","","","","","","true","14","4","moral","578","positive","诚信","","","","","","","","","","","","","","","","",""
"null","","null","html-keyboard-response","124","336955","0.0-6.0-1.0-8.0-0.8","3","4","4","4","4","3","3","1","4","4","4","4","2","4","4","5","5","2","5","4","2","2","1","1","1","2","4","5","1","1","0","1","1","0","1","0","1","1","1","1","0","0","0","1","5","4","4","2","4","1","2","5","4","2","1","741960766508503041","张","696","","","","","","","","","","","","","","","","","","","","","","","","","","","","","","","","","","","","","","","","","",""
"531","<p style=""color:rgb(150, 250, 100); font-size: 35px;"">他</p>","e","categorize-html","125","337493","0.0-6.0-1.0-8.0-1.8","3","4","4","4","4","3","3","1","4","4","4","4","2","4","4","5","5","2","5","4","2","2","1","1","1","2","4","5","1","1","0","1","1","0","1","0","1","1","1","1","0","0","0","1","5","4","4","2","4","1","2","5","4","2","1","741960766508503041","张","696","","","","","","","","","","","","","","","","","","","true","14","4","moral","531","other","他","","","","","","","","","","","","","","","","",""
"null","","null","html-keyboard-response","126","337745","0.0-6.0-1.0-8.0-0.9","3","4","4","4","4","3","3","1","4","4","4","4","2","4","4","5","5","2","5","4","2","2","1","1","1","2","4","5","1","1","0","1","1","0","1","0","1","1","1","1","0","0","0","1","5","4","4","2","4","1","2","5","4","2","1","741960766508503041","张","696","","","","","","","","","","","","","","","","","","","","","","","","","","","","","","","","","","","","","","","","","",""
"453","<p style=""color:white; font-size: 35px;"">高尚</p>","e","categorize-html","127","338205","0.0-6.0-1.0-8.0-1.9","3","4","4","4","4","3","3","1","4","4","4","4","2","4","4","5","5","2","5","4","2","2","1","1","1","2","4","5","1","1","0","1","1","0","1","0","1","1","1","1","0","0","0","1","5","4","4","2","4","1","2","5","4","2","1","741960766508503041","张","696","","","","","","","","","","","","","","","","","","","true","14","4","moral","453","positive","高尚","","","","","","","","","","","","","","","","",""
"null","","null","html-keyboard-response","128","338457","0.0-6.0-1.0-8.0-0.10","3","4","4","4","4","3","3","1","4","4","4","4","2","4","4","5","5","2","5","4","2","2","1","1","1","2","4","5","1","1","0","1","1","0","1","0","1","1","1","1","0","0","0","1","5","4","4","2","4","1","2","5","4","2","1","741960766508503041","张","696","","","","","","","","","","","","","","","","","","","","","","","","","","","","","","","","","","","","","","","","","",""
"493","<p style=""color:rgb(150, 250, 100); font-size: 35px;"">本人的</p>","i","categorize-html","129","338957","0.0-6.0-1.0-8.0-1.10","3","4","4","4","4","3","3","1","4","4","4","4","2","4","4","5","5","2","5","4","2","2","1","1","1","2","4","5","1","1","0","1","1","0","1","0","1","1","1","1","0","0","0","1","5","4","4","2","4","1","2","5","4","2","1","741960766508503041","张","696","","","","","","","","","","","","","","","","","","","true","14","4","moral","493","self","本人的","","","","","","","","","","","","","","","","",""
"null","","null","html-keyboard-response","130","339208","0.0-6.0-1.0-8.0-0.11","3","4","4","4","4","3","3","1","4","4","4","4","2","4","4","5","5","2","5","4","2","2","1","1","1","2","4","5","1","1","0","1","1","0","1","0","1","1","1","1","0","0","0","1","5","4","4","2","4","1","2","5","4","2","1","741960766508503041","张","696","","","","","","","","","","","","","","","","","","","","","","","","","","","","","","","","","","","","","","","","","",""
"480","<p style=""color:white; font-size: 35px;"">不仁</p>","i","categorize-html","131","339695","0.0-6.0-1.0-8.0-1.11","3","4","4","4","4","3","3","1","4","4","4","4","2","4","4","5","5","2","5","4","2","2","1","1","1","2","4","5","1","1","0","1","1","0","1","0","1","1","1","1","0","0","0","1","5","4","4","2","4","1","2","5","4","2","1","741960766508503041","张","696","","","","","","","","","","","","","","","","","","","true","14","4","moral","480","negative","不仁","","","","","","","","","","","","","","","","",""
"null","","null","html-keyboard-response","132","339949","0.0-6.0-1.0-8.0-0.12","3","4","4","4","4","3","3","1","4","4","4","4","2","4","4","5","5","2","5","4","2","2","1","1","1","2","4","5","1","1","0","1","1","0","1","0","1","1","1","1","0","0","0","1","5","4","4","2","4","1","2","5","4","2","1","741960766508503041","张","696","","","","","","","","","","","","","","","","","","","","","","","","","","","","","","","","","","","","","","","","","",""
"419","<p style=""color:rgb(150, 250, 100); font-size: 35px;"">本人的</p>","i","categorize-html","133","340375","0.0-6.0-1.0-8.0-1.12","3","4","4","4","4","3","3","1","4","4","4","4","2","4","4","5","5","2","5","4","2","2","1","1","1","2","4","5","1","1","0","1","1","0","1","0","1","1","1","1","0","0","0","1","5","4","4","2","4","1","2","5","4","2","1","741960766508503041","张","696","","","","","","","","","","","","","","","","","","","true","14","4","moral","419","self","本人的","","","","","","","","","","","","","","","","",""
"null","","null","html-keyboard-response","134","340627","0.0-6.0-1.0-8.0-0.13","3","4","4","4","4","3","3","1","4","4","4","4","2","4","4","5","5","2","5","4","2","2","1","1","1","2","4","5","1","1","0","1","1","0","1","0","1","1","1","1","0","0","0","1","5","4","4","2","4","1","2","5","4","2","1","741960766508503041","张","696","","","","","","","","","","","","","","","","","","","","","","","","","","","","","","","","","","","","","","","","","",""
"497","<p style=""color:white; font-size: 35px;"">不孝</p>","i","categorize-html","135","341130","0.0-6.0-1.0-8.0-1.13","3","4","4","4","4","3","3","1","4","4","4","4","2","4","4","5","5","2","5","4","2","2","1","1","1","2","4","5","1","1","0","1","1","0","1","0","1","1","1","1","0","0","0","1","5","4","4","2","4","1","2","5","4","2","1","741960766508503041","张","696","","","","","","","","","","","","","","","","","","","true","14","4","moral","497","negative","不孝","","","","","","","","","","","","","","","","",""
"null","","null","html-keyboard-response","136","341384","0.0-6.0-1.0-8.0-0.14","3","4","4","4","4","3","3","1","4","4","4","4","2","4","4","5","5","2","5","4","2","2","1","1","1","2","4","5","1","1","0","1","1","0","1","0","1","1","1","1","0","0","0","1","5","4","4","2","4","1","2","5","4","2","1","741960766508503041","张","696","","","","","","","","","","","","","","","","","","","","","","","","","","","","","","","","","","","","","","","","","",""
"474","<p style=""color:rgb(150, 250, 100); font-size: 35px;"">别人的</p>","e","categorize-html","137","341864","0.0-6.0-1.0-8.0-1.14","3","4","4","4","4","3","3","1","4","4","4","4","2","4","4","5","5","2","5","4","2","2","1","1","1","2","4","5","1","1","0","1","1","0","1","0","1","1","1","1","0","0","0","1","5","4","4","2","4","1","2","5","4","2","1","741960766508503041","张","696","","","","","","","","","","","","","","","","","","","true","14","4","moral","474","other","别人的","","","","","","","","","","","","","","","","",""
"null","","null","html-keyboard-response","138","342116","0.0-6.0-1.0-8.0-0.15","3","4","4","4","4","3","3","1","4","4","4","4","2","4","4","5","5","2","5","4","2","2","1","1","1","2","4","5","1","1","0","1","1","0","1","0","1","1","1","1","0","0","0","1","5","4","4","2","4","1","2","5","4","2","1","741960766508503041","张","696","","","","","","","","","","","","","","","","","","","","","","","","","","","","","","","","","","","","","","","","","",""
"509","<p style=""color:white; font-size: 35px;"">诚信</p>","e","categorize-html","139","342632","0.0-6.0-1.0-8.0-1.15","3","4","4","4","4","3","3","1","4","4","4","4","2","4","4","5","5","2","5","4","2","2","1","1","1","2","4","5","1","1","0","1","1","0","1","0","1","1","1","1","0","0","0","1","5","4","4","2","4","1","2","5","4","2","1","741960766508503041","张","696","","","","","","","","","","","","","","","","","","","true","14","4","moral","509","positive","诚信","","","","","","","","","","","","","","","","",""
"null","","null","html-keyboard-response","140","342884","0.0-6.0-1.0-8.0-0.16","3","4","4","4","4","3","3","1","4","4","4","4","2","4","4","5","5","2","5","4","2","2","1","1","1","2","4","5","1","1","0","1","1","0","1","0","1","1","1","1","0","0","0","1","5","4","4","2","4","1","2","5","4","2","1","741960766508503041","张","696","","","","","","","","","","","","","","","","","","","","","","","","","","","","","","","","","","","","","","","","","",""
"482","<p style=""color:rgb(150, 250, 100); font-size: 35px;"">我的</p>","i","categorize-html","141","343373","0.0-6.0-1.0-8.0-1.16","3","4","4","4","4","3","3","1","4","4","4","4","2","4","4","5","5","2","5","4","2","2","1","1","1","2","4","5","1","1","0","1","1","0","1","0","1","1","1","1","0","0","0","1","5","4","4","2","4","1","2","5","4","2","1","741960766508503041","张","696","","","","","","","","","","","","","","","","","","","true","14","4","moral","482","self","我的","","","","","","","","","","","","","","","","",""
"null","","null","html-keyboard-response","142","343624","0.0-6.0-1.0-8.0-0.17","3","4","4","4","4","3","3","1","4","4","4","4","2","4","4","5","5","2","5","4","2","2","1","1","1","2","4","5","1","1","0","1","1","0","1","0","1","1","1","1","0","0","0","1","5","4","4","2","4","1","2","5","4","2","1","741960766508503041","张","696","","","","","","","","","","","","","","","","","","","","","","","","","","","","","","","","","","","","","","","","","",""
"453","<p style=""color:white; font-size: 35px;"">高尚</p>","e","categorize-html","143","344082","0.0-6.0-1.0-8.0-1.17","3","4","4","4","4","3","3","1","4","4","4","4","2","4","4","5","5","2","5","4","2","2","1","1","1","2","4","5","1","1","0","1","1","0","1","0","1","1","1","1","0","0","0","1","5","4","4","2","4","1","2","5","4","2","1","741960766508503041","张","696","","","","","","","","","","","","","","","","","","","true","14","4","moral","453","positive","高尚","","","","","","","","","","","","","","","","",""
"null","","null","html-keyboard-response","144","344333","0.0-6.0-1.0-8.0-0.18","3","4","4","4","4","3","3","1","4","4","4","4","2","4","4","5","5","2","5","4","2","2","1","1","1","2","4","5","1","1","0","1","1","0","1","0","1","1","1","1","0","0","0","1","5","4","4","2","4","1","2","5","4","2","1","741960766508503041","张","696","","","","","","","","","","","","","","","","","","","","","","","","","","","","","","","","","","","","","","","","","",""
"2442","<p style=""color:rgb(150, 250, 100); font-size: 35px;"">他人的</p>","e","categorize-html","145","346782","0.0-6.0-1.0-8.0-1.18","3","4","4","4","4","3","3","1","4","4","4","4","2","4","4","5","5","2","5","4","2","2","1","1","1","2","4","5","1","1","0","1","1","0","1","0","1","1","1","1","0","0","0","1","5","4","4","2","4","1","2","5","4","2","1","741960766508503041","张","696","","","","","","","","","","","","","","","","","","","true","14","4","moral","2442","other","他人的","","","","","","","","","","","","","","","","",""
"null","","null","html-keyboard-response","146","347033","0.0-6.0-1.0-8.0-0.19","3","4","4","4","4","3","3","1","4","4","4","4","2","4","4","5","5","2","5","4","2","2","1","1","1","2","4","5","1","1","0","1","1","0","1","0","1","1","1","1","0","0","0","1","5","4","4","2","4","1","2","5","4","2","1","741960766508503041","张","696","","","","","","","","","","","","","","","","","","","","","","","","","","","","","","","","","","","","","","","","","",""
"637","<p style=""color:white; font-size: 35px;"">黑心</p>","i","categorize-html","147","347672","0.0-6.0-1.0-8.0-1.19","3","4","4","4","4","3","3","1","4","4","4","4","2","4","4","5","5","2","5","4","2","2","1","1","1","2","4","5","1","1","0","1","1","0","1","0","1","1","1","1","0","0","0","1","5","4","4","2","4","1","2","5","4","2","1","741960766508503041","张","696","","","","","","","","","","","","","","","","","","","true","14","4","moral","637","negative","黑心","","","","","","","","","","","","","","","","",""
"null","","null","html-keyboard-response","148","347923","0.0-6.0-1.0-8.0-0.20","3","4","4","4","4","3","3","1","4","4","4","4","2","4","4","5","5","2","5","4","2","2","1","1","1","2","4","5","1","1","0","1","1","0","1","0","1","1","1","1","0","0","0","1","5","4","4","2","4","1","2","5","4","2","1","741960766508503041","张","696","","","","","","","","","","","","","","","","","","","","","","","","","","","","","","","","","","","","","","","","","",""
"561","<p style=""color:rgb(150, 250, 100); font-size: 35px;"">自己</p>","i","categorize-html","149","348489","0.0-6.0-1.0-8.0-1.20","3","4","4","4","4","3","3","1","4","4","4","4","2","4","4","5","5","2","5","4","2","2","1","1","1","2","4","5","1","1","0","1","1","0","1","0","1","1","1","1","0","0","0","1","5","4","4","2","4","1","2","5","4","2","1","741960766508503041","张","696","","","","","","","","","","","","","","","","","","","true","14","4","moral","561","self","自己","","","","","","","","","","","","","","","","",""
"null","","null","html-keyboard-response","150","348745","0.0-6.0-1.0-8.0-0.21","3","4","4","4","4","3","3","1","4","4","4","4","2","4","4","5","5","2","5","4","2","2","1","1","1","2","4","5","1","1","0","1","1","0","1","0","1","1","1","1","0","0","0","1","5","4","4","2","4","1","2","5","4","2","1","741960766508503041","张","696","","","","","","","","","","","","","","","","","","","","","","","","","","","","","","","","","","","","","","","","","",""
"475","<p style=""color:white; font-size: 35px;"">善良</p>","e","categorize-html","151","349225","0.0-6.0-1.0-8.0-1.21","3","4","4","4","4","3","3","1","4","4","4","4","2","4","4","5","5","2","5","4","2","2","1","1","1","2","4","5","1","1","0","1","1","0","1","0","1","1","1","1","0","0","0","1","5","4","4","2","4","1","2","5","4","2","1","741960766508503041","张","696","","","","","","","","","","","","","","","","","","","true","14","4","moral","475","positive","善良","","","","","","","","","","","","","","","","",""
"null","","null","html-keyboard-response","152","349476","0.0-6.0-1.0-8.0-0.22","3","4","4","4","4","3","3","1","4","4","4","4","2","4","4","5","5","2","5","4","2","2","1","1","1","2","4","5","1","1","0","1","1","0","1","0","1","1","1","1","0","0","0","1","5","4","4","2","4","1","2","5","4","2","1","741960766508503041","张","696","","","","","","","","","","","","","","","","","","","","","","","","","","","","","","","","","","","","","","","","","",""
"533","<p style=""color:rgb(150, 250, 100); font-size: 35px;"">别人的</p>","e","categorize-html","153","350016","0.0-6.0-1.0-8.0-1.22","3","4","4","4","4","3","3","1","4","4","4","4","2","4","4","5","5","2","5","4","2","2","1","1","1","2","4","5","1","1","0","1","1","0","1","0","1","1","1","1","0","0","0","1","5","4","4","2","4","1","2","5","4","2","1","741960766508503041","张","696","","","","","","","","","","","","","","","","","","","true","14","4","moral","533","other","别人的","","","","","","","","","","","","","","","","",""
"null","","null","html-keyboard-response","154","350271","0.0-6.0-1.0-8.0-0.23","3","4","4","4","4","3","3","1","4","4","4","4","2","4","4","5","5","2","5","4","2","2","1","1","1","2","4","5","1","1","0","1","1","0","1","0","1","1","1","1","0","0","0","1","5","4","4","2","4","1","2","5","4","2","1","741960766508503041","张","696","","","","","","","","","","","","","","","","","","","","","","","","","","","","","","","","","","","","","","","","","",""
"452","<p style=""color:white; font-size: 35px;"">不仁</p>","i","categorize-html","155","350729","0.0-6.0-1.0-8.0-1.23","3","4","4","4","4","3","3","1","4","4","4","4","2","4","4","5","5","2","5","4","2","2","1","1","1","2","4","5","1","1","0","1","1","0","1","0","1","1","1","1","0","0","0","1","5","4","4","2","4","1","2","5","4","2","1","741960766508503041","张","696","","","","","","","","","","","","","","","","","","","true","14","4","moral","452","negative","不仁","","","","","","","","","","","","","","","","",""
"null","","null","html-keyboard-response","156","350981","0.0-6.0-1.0-8.0-0.24","3","4","4","4","4","3","3","1","4","4","4","4","2","4","4","5","5","2","5","4","2","2","1","1","1","2","4","5","1","1","0","1","1","0","1","0","1","1","1","1","0","0","0","1","5","4","4","2","4","1","2","5","4","2","1","741960766508503041","张","696","","","","","","","","","","","","","","","","","","","","","","","","","","","","","","","","","","","","","","","","","",""
"450","<p style=""color:rgb(150, 250, 100); font-size: 35px;"">他</p>","e","categorize-html","157","351437","0.0-6.0-1.0-8.0-1.24","3","4","4","4","4","3","3","1","4","4","4","4","2","4","4","5","5","2","5","4","2","2","1","1","1","2","4","5","1","1","0","1","1","0","1","0","1","1","1","1","0","0","0","1","5","4","4","2","4","1","2","5","4","2","1","741960766508503041","张","696","","","","","","","","","","","","","","","","","","","true","14","4","moral","450","other","他","","","","","","","","","","","","","","","","",""
"null","","null","html-keyboard-response","158","351689","0.0-6.0-1.0-8.0-0.25","3","4","4","4","4","3","3","1","4","4","4","4","2","4","4","5","5","2","5","4","2","2","1","1","1","2","4","5","1","1","0","1","1","0","1","0","1","1","1","1","0","0","0","1","5","4","4","2","4","1","2","5","4","2","1","741960766508503041","张","696","","","","","","","","","","","","","","","","","","","","","","","","","","","","","","","","","","","","","","","","","",""
"501","<p style=""color:white; font-size: 35px;"">廉正</p>","e","categorize-html","159","352196","0.0-6.0-1.0-8.0-1.25","3","4","4","4","4","3","3","1","4","4","4","4","2","4","4","5","5","2","5","4","2","2","1","1","1","2","4","5","1","1","0","1","1","0","1","0","1","1","1","1","0","0","0","1","5","4","4","2","4","1","2","5","4","2","1","741960766508503041","张","696","","","","","","","","","","","","","","","","","","","true","14","4","moral","501","positive","廉正","","","","","","","","","","","","","","","","",""
"null","","null","html-keyboard-response","160","352447","0.0-6.0-1.0-8.0-0.26","3","4","4","4","4","3","3","1","4","4","4","4","2","4","4","5","5","2","5","4","2","2","1","1","1","2","4","5","1","1","0","1","1","0","1","0","1","1","1","1","0","0","0","1","5","4","4","2","4","1","2","5","4","2","1","741960766508503041","张","696","","","","","","","","","","","","","","","","","","","","","","","","","","","","","","","","","","","","","","","","","",""
"365","<p style=""color:rgb(150, 250, 100); font-size: 35px;"">我</p>","i","categorize-html","161","352818","0.0-6.0-1.0-8.0-1.26","3","4","4","4","4","3","3","1","4","4","4","4","2","4","4","5","5","2","5","4","2","2","1","1","1","2","4","5","1","1","0","1","1","0","1","0","1","1","1","1","0","0","0","1","5","4","4","2","4","1","2","5","4","2","1","741960766508503041","张","696","","","","","","","","","","","","","","","","","","","true","14","4","moral","365","self","我","","","","","","","","","","","","","","","","",""
"null","","null","html-keyboard-response","162","353070","0.0-6.0-1.0-8.0-0.27","3","4","4","4","4","3","3","1","4","4","4","4","2","4","4","5","5","2","5","4","2","2","1","1","1","2","4","5","1","1","0","1","1","0","1","0","1","1","1","1","0","0","0","1","5","4","4","2","4","1","2","5","4","2","1","741960766508503041","张","696","","","","","","","","","","","","","","","","","","","","","","","","","","","","","","","","","","","","","","","","","",""
"517","<p style=""color:white; font-size: 35px;"">卑鄙</p>","i","categorize-html","163","353593","0.0-6.0-1.0-8.0-1.27","3","4","4","4","4","3","3","1","4","4","4","4","2","4","4","5","5","2","5","4","2","2","1","1","1","2","4","5","1","1","0","1","1","0","1","0","1","1","1","1","0","0","0","1","5","4","4","2","4","1","2","5","4","2","1","741960766508503041","张","696","","","","","","","","","","","","","","","","","","","true","14","4","moral","517","negative","卑鄙","","","","","","","","","","","","","","","","",""
"null","","null","html-keyboard-response","164","353845","0.0-6.0-1.0-8.0-0.28","3","4","4","4","4","3","3","1","4","4","4","4","2","4","4","5","5","2","5","4","2","2","1","1","1","2","4","5","1","1","0","1","1","0","1","0","1","1","1","1","0","0","0","1","5","4","4","2","4","1","2","5","4","2","1","741960766508503041","张","696","","","","","","","","","","","","","","","","","","","","","","","","","","","","","","","","","","","","","","","","","",""
"926","<p style=""color:rgb(150, 250, 100); font-size: 35px;"">本人</p>","i","categorize-html","165","354778","0.0-6.0-1.0-8.0-1.28","3","4","4","4","4","3","3","1","4","4","4","4","2","4","4","5","5","2","5","4","2","2","1","1","1","2","4","5","1","1","0","1","1","0","1","0","1","1","1","1","0","0","0","1","5","4","4","2","4","1","2","5","4","2","1","741960766508503041","张","696","","","","","","","","","","","","","","","","","","","true","14","4","moral","926","self","本人","","","","","","","","","","","","","","","","",""
"null","","null","html-keyboard-response","166","355030","0.0-6.0-1.0-8.0-0.29","3","4","4","4","4","3","3","1","4","4","4","4","2","4","4","5","5","2","5","4","2","2","1","1","1","2","4","5","1","1","0","1","1","0","1","0","1","1","1","1","0","0","0","1","5","4","4","2","4","1","2","5","4","2","1","741960766508503041","张","696","","","","","","","","","","","","","","","","","","","","","","","","","","","","","","","","","","","","","","","","","",""
"507","<p style=""color:white; font-size: 35px;"">君子</p>","e","categorize-html","167","355543","0.0-6.0-1.0-8.0-1.29","3","4","4","4","4","3","3","1","4","4","4","4","2","4","4","5","5","2","5","4","2","2","1","1","1","2","4","5","1","1","0","1","1","0","1","0","1","1","1","1","0","0","0","1","5","4","4","2","4","1","2","5","4","2","1","741960766508503041","张","696","","","","","","","","","","","","","","","","","","","true","14","4","moral","507","positive","君子","","","","","","","","","","","","","","","","",""
"null","","null","html-keyboard-response","168","355795","0.0-6.0-1.0-8.0-0.30","3","4","4","4","4","3","3","1","4","4","4","4","2","4","4","5","5","2","5","4","2","2","1","1","1","2","4","5","1","1","0","1","1","0","1","0","1","1","1","1","0","0","0","1","5","4","4","2","4","1","2","5","4","2","1","741960766508503041","张","696","","","","","","","","","","","","","","","","","","","","","","","","","","","","","","","","","","","","","","","","","",""
"560","<p style=""color:rgb(150, 250, 100); font-size: 35px;"">他的</p>","e","categorize-html","169","356361","0.0-6.0-1.0-8.0-1.30","3","4","4","4","4","3","3","1","4","4","4","4","2","4","4","5","5","2","5","4","2","2","1","1","1","2","4","5","1","1","0","1","1","0","1","0","1","1","1","1","0","0","0","1","5","4","4","2","4","1","2","5","4","2","1","741960766508503041","张","696","","","","","","","","","","","","","","","","","","","true","14","4","moral","560","other","他的","","","","","","","","","","","","","","","","",""
"null","","null","html-keyboard-response","170","356613","0.0-6.0-1.0-8.0-0.31","3","4","4","4","4","3","3","1","4","4","4","4","2","4","4","5","5","2","5","4","2","2","1","1","1","2","4","5","1","1","0","1","1","0","1","0","1","1","1","1","0","0","0","1","5","4","4","2","4","1","2","5","4","2","1","741960766508503041","张","696","","","","","","","","","","","","","","","","","","","","","","","","","","","","","","","","","","","","","","","","","",""
"630","<p style=""color:white; font-size: 35px;"">小人</p>","i","categorize-html","171","357250","0.0-6.0-1.0-8.0-1.31","3","4","4","4","4","3","3","1","4","4","4","4","2","4","4","5","5","2","5","4","2","2","1","1","1","2","4","5","1","1","0","1","1","0","1","0","1","1","1","1","0","0","0","1","5","4","4","2","4","1","2","5","4","2","1","741960766508503041","张","696","","","","","","","","","","","","","","","","","","","true","14","4","moral","630","negative","小人","","","","","","","","","","","","","","","","",""
"null","","null","html-keyboard-response","172","357501","0.0-6.0-1.0-8.0-0.32","3","4","4","4","4","3","3","1","4","4","4","4","2","4","4","5","5","2","5","4","2","2","1","1","1","2","4","5","1","1","0","1","1","0","1","0","1","1","1","1","0","0","0","1","5","4","4","2","4","1","2","5","4","2","1","741960766508503041","张","696","","","","","","","","","","","","","","","","","","","","","","","","","","","","","","","","","","","","","","","","","",""
"349","<p style=""color:rgb(150, 250, 100); font-size: 35px;"">我的</p>","i","categorize-html","173","357856","0.0-6.0-1.0-8.0-1.32","3","4","4","4","4","3","3","1","4","4","4","4","2","4","4","5","5","2","5","4","2","2","1","1","1","2","4","5","1","1","0","1","1","0","1","0","1","1","1","1","0","0","0","1","5","4","4","2","4","1","2","5","4","2","1","741960766508503041","张","696","","","","","","","","","","","","","","","","","","","true","14","4","moral","349","self","我的","","","","","","","","","","","","","","","","",""
"null","","null","html-keyboard-response","174","358108","0.0-6.0-1.0-8.0-0.33","3","4","4","4","4","3","3","1","4","4","4","4","2","4","4","5","5","2","5","4","2","2","1","1","1","2","4","5","1","1","0","1","1","0","1","0","1","1","1","1","0","0","0","1","5","4","4","2","4","1","2","5","4","2","1","741960766508503041","张","696","","","","","","","","","","","","","","","","","","","","","","","","","","","","","","","","","","","","","","","","","",""
"489","<p style=""color:white; font-size: 35px;"">黑心</p>","e","categorize-html","175","359136","0.0-6.0-1.0-8.0-1.33","3","4","4","4","4","3","3","1","4","4","4","4","2","4","4","5","5","2","5","4","2","2","1","1","1","2","4","5","1","1","0","1","1","0","1","0","1","1","1","1","0","0","0","1","5","4","4","2","4","1","2","5","4","2","1","741960766508503041","张","696","","","","","","","","","","","","","","","","","","","false","14","4","moral","1197.6666666666665","negative","黑心","","","","","","","","","","","","","","","","",""
"null","","null","html-keyboard-response","176","359388","0.0-6.0-1.0-8.0-0.34","3","4","4","4","4","3","3","1","4","4","4","4","2","4","4","5","5","2","5","4","2","2","1","1","1","2","4","5","1","1","0","1","1","0","1","0","1","1","1","1","0","0","0","1","5","4","4","2","4","1","2","5","4","2","1","741960766508503041","张","696","","","","","","","","","","","","","","","","","","","","","","","","","","","","","","","","","","","","","","","","","",""
"776","<p style=""color:rgb(150, 250, 100); font-size: 35px;"">别人</p>","e","categorize-html","177","360170","0.0-6.0-1.0-8.0-1.34","3","4","4","4","4","3","3","1","4","4","4","4","2","4","4","5","5","2","5","4","2","2","1","1","1","2","4","5","1","1","0","1","1","0","1","0","1","1","1","1","0","0","0","1","5","4","4","2","4","1","2","5","4","2","1","741960766508503041","张","696","","","","","","","","","","","","","","","","","","","true","14","4","moral","776","other","别人","","","","","","","","","","","","","","","","",""
"null","","null","html-keyboard-response","178","360423","0.0-6.0-1.0-8.0-0.35","3","4","4","4","4","3","3","1","4","4","4","4","2","4","4","5","5","2","5","4","2","2","1","1","1","2","4","5","1","1","0","1","1","0","1","0","1","1","1","1","0","0","0","1","5","4","4","2","4","1","2","5","4","2","1","741960766508503041","张","696","","","","","","","","","","","","","","","","","","","","","","","","","","","","","","","","","","","","","","","","","",""
"1009","<p style=""color:white; font-size: 35px;"">廉正</p>","e","categorize-html","179","361437","0.0-6.0-1.0-8.0-1.35","3","4","4","4","4","3","3","1","4","4","4","4","2","4","4","5","5","2","5","4","2","2","1","1","1","2","4","5","1","1","0","1","1","0","1","0","1","1","1","1","0","0","0","1","5","4","4","2","4","1","2","5","4","2","1","741960766508503041","张","696","","","","","","","","","","","","","","","","","","","true","14","4","moral","1009","positive","廉正","","","","","","","","","","","","","","","","",""
"null","","null","html-keyboard-response","180","361688","0.0-6.0-1.0-8.0-0.36","3","4","4","4","4","3","3","1","4","4","4","4","2","4","4","5","5","2","5","4","2","2","1","1","1","2","4","5","1","1","0","1","1","0","1","0","1","1","1","1","0","0","0","1","5","4","4","2","4","1","2","5","4","2","1","741960766508503041","张","696","","","","","","","","","","","","","","","","","","","","","","","","","","","","","","","","","","","","","","","","","",""
"678","<p style=""color:rgb(150, 250, 100); font-size: 35px;"">本人</p>","e","categorize-html","181","362712","0.0-6.0-1.0-8.0-1.36","3","4","4","4","4","3","3","1","4","4","4","4","2","4","4","5","5","2","5","4","2","2","1","1","1","2","4","5","1","1","0","1","1","0","1","0","1","1","1","1","0","0","0","1","5","4","4","2","4","1","2","5","4","2","1","741960766508503041","张","696","","","","","","","","","","","","","","","","","","","false","14","4","moral","1197.6666666666665","self","本人","","","","","","","","","","","","","","","","",""
"null","","null","html-keyboard-response","182","362964","0.0-6.0-1.0-8.0-0.37","3","4","4","4","4","3","3","1","4","4","4","4","2","4","4","5","5","2","5","4","2","2","1","1","1","2","4","5","1","1","0","1","1","0","1","0","1","1","1","1","0","0","0","1","5","4","4","2","4","1","2","5","4","2","1","741960766508503041","张","696","","","","","","","","","","","","","","","","","","","","","","","","","","","","","","","","","","","","","","","","","",""
"575","<p style=""color:white; font-size: 35px;"">小人</p>","i","categorize-html","183","363546","0.0-6.0-1.0-8.0-1.37","3","4","4","4","4","3","3","1","4","4","4","4","2","4","4","5","5","2","5","4","2","2","1","1","1","2","4","5","1","1","0","1","1","0","1","0","1","1","1","1","0","0","0","1","5","4","4","2","4","1","2","5","4","2","1","741960766508503041","张","696","","","","","","","","","","","","","","","","","","","true","14","4","moral","575","negative","小人","","","","","","","","","","","","","","","","",""
"null","","null","html-keyboard-response","184","363796","0.0-6.0-1.0-8.0-0.38","3","4","4","4","4","3","3","1","4","4","4","4","2","4","4","5","5","2","5","4","2","2","1","1","1","2","4","5","1","1","0","1","1","0","1","0","1","1","1","1","0","0","0","1","5","4","4","2","4","1","2","5","4","2","1","741960766508503041","张","696","","","","","","","","","","","","","","","","","","","","","","","","","","","","","","","","","","","","","","","","","",""
"608","<p style=""color:rgb(150, 250, 100); font-size: 35px;"">他的</p>","e","categorize-html","185","364410","0.0-6.0-1.0-8.0-1.38","3","4","4","4","4","3","3","1","4","4","4","4","2","4","4","5","5","2","5","4","2","2","1","1","1","2","4","5","1","1","0","1","1","0","1","0","1","1","1","1","0","0","0","1","5","4","4","2","4","1","2","5","4","2","1","741960766508503041","张","696","","","","","","","","","","","","","","","","","","","true","14","4","moral","608","other","他的","","","","","","","","","","","","","","","","",""
"null","","null","html-keyboard-response","186","364662","0.0-6.0-1.0-8.0-0.39","3","4","4","4","4","3","3","1","4","4","4","4","2","4","4","5","5","2","5","4","2","2","1","1","1","2","4","5","1","1","0","1","1","0","1","0","1","1","1","1","0","0","0","1","5","4","4","2","4","1","2","5","4","2","1","741960766508503041","张","696","","","","","","","","","","","","","","","","","","","","","","","","","","","","","","","","","","","","","","","","","",""
"519","<p style=""color:white; font-size: 35px;"">善良</p>","e","categorize-html","187","365188","0.0-6.0-1.0-8.0-1.39","3","4","4","4","4","3","3","1","4","4","4","4","2","4","4","5","5","2","5","4","2","2","1","1","1","2","4","5","1","1","0","1","1","0","1","0","1","1","1","1","0","0","0","1","5","4","4","2","4","1","2","5","4","2","1","741960766508503041","张","696","","","","","","","","","","","","","","","","","","","true","14","4","moral","519","positive","善良","","","","","","","","","","","","","","","","",""
"null","","null","html-keyboard-response","188","365440","0.0-6.0-1.0-8.0-0.40","3","4","4","4","4","3","3","1","4","4","4","4","2","4","4","5","5","2","5","4","2","2","1","1","1","2","4","5","1","1","0","1","1","0","1","0","1","1","1","1","0","0","0","1","5","4","4","2","4","1","2","5","4","2","1","741960766508503041","张","696","","","","","","","","","","","","","","","","","","","","","","","","","","","","","","","","","","","","","","","","","",""
"614","<p style=""color:rgb(150, 250, 100); font-size: 35px;"">他人的</p>","e","categorize-html","189","366060","0.0-6.0-1.0-8.0-1.40","3","4","4","4","4","3","3","1","4","4","4","4","2","4","4","5","5","2","5","4","2","2","1","1","1","2","4","5","1","1","0","1","1","0","1","0","1","1","1","1","0","0","0","1","5","4","4","2","4","1","2","5","4","2","1","741960766508503041","张","696","","","","","","","","","","","","","","","","","","","true","14","4","moral","614","other","他人的","","","","","","","","","","","","","","","","",""
"null","","null","html-keyboard-response","190","366313","0.0-6.0-1.0-8.0-0.41","3","4","4","4","4","3","3","1","4","4","4","4","2","4","4","5","5","2","5","4","2","2","1","1","1","2","4","5","1","1","0","1","1","0","1","0","1","1","1","1","0","0","0","1","5","4","4","2","4","1","2","5","4","2","1","741960766508503041","张","696","","","","","","","","","","","","","","","","","","","","","","","","","","","","","","","","","","","","","","","","","",""
"532","<p style=""color:white; font-size: 35px;"">缺德</p>","i","categorize-html","191","366851","0.0-6.0-1.0-8.0-1.41","3","4","4","4","4","3","3","1","4","4","4","4","2","4","4","5","5","2","5","4","2","2","1","1","1","2","4","5","1","1","0","1","1","0","1","0","1","1","1","1","0","0","0","1","5","4","4","2","4","1","2","5","4","2","1","741960766508503041","张","696","","","","","","","","","","","","","","","","","","","true","14","4","moral","532","negative","缺德","","","","","","","","","","","","","","","","",""
"null","","null","html-keyboard-response","192","367103","0.0-6.0-1.0-8.0-0.42","3","4","4","4","4","3","3","1","4","4","4","4","2","4","4","5","5","2","5","4","2","2","1","1","1","2","4","5","1","1","0","1","1","0","1","0","1","1","1","1","0","0","0","1","5","4","4","2","4","1","2","5","4","2","1","741960766508503041","张","696","","","","","","","","","","","","","","","","","","","","","","","","","","","","","","","","","","","","","","","","","",""
"430","<p style=""color:rgb(150, 250, 100); font-size: 35px;"">自己</p>","i","categorize-html","193","367539","0.0-6.0-1.0-8.0-1.42","3","4","4","4","4","3","3","1","4","4","4","4","2","4","4","5","5","2","5","4","2","2","1","1","1","2","4","5","1","1","0","1","1","0","1","0","1","1","1","1","0","0","0","1","5","4","4","2","4","1","2","5","4","2","1","741960766508503041","张","696","","","","","","","","","","","","","","","","","","","true","14","4","moral","430","self","自己","","","","","","","","","","","","","","","","",""
