"rt","stimulus","response","trial_type","trial_index","time_elapsed","internal_node_id","ses_1","ses_2","ses_3","ses_4","ses_5","ses_6","ses_7","ses_8","ses_9","ses_10","coreself_1","coreself_2","coreself_3","coreself_4","coreself_5","coreself_6","coreself_7","coreself_8","coreself_9","coreself_10","SGPS_1","SGPS_2","SGPS_3","SGPS_4","SGPS_5","SGPS_6","SGPS_7","SGPS_8","SGPS_9","NPI1","NPI2","NPI3","NPI4","NPI5","NPI6","NPI7","NPI8","NPI9","NPI10","NPI11","NPI12","NPI13","NPI14","NPI15","hsns_1","hsns_2","hsns_3","hsns_4","hsns_5","trap1","hsns_6","hsns_7","hsns_8","hsns_9","hsns_10","subj_idx","friend_name","ParticipantID","value","success","user_agent","responses","item_order","radio_event_ids","radio_event_times","key_event_times","mouse_event_times","straightlining","zigzagging","honeypot","timeout","failed_images","failed_audio","failed_video","view_history","response_type","key_press","avg_frame_time","center_x","center_y","correct_response","correct","identity","Image","word","condition","task_id","screen_id","time_stamp","version_attrib2","version_target2","IAT","RT","varname","summary","version_attrib","version_target","question_order","correct_answer","trap1_item"
"31539","
   <p><div style = ""color: white;font-size:25px;"">您好，欢迎参加本次实验。</div> </p>
   <p><div style = ""color: white;font-size:25px;"">为充分保障您的权利，请确保您已经知晓并同意《参与实验同意书》以及《数据公开知情同意书》。</div></p>
   <p><div style = ""color: white;font-size:25px;"">如果您未见过上述内容，请咨询实验员。</div></p>
   <p><div style = ""color: white;font-size:25px;"">如果您选择继续实验，则表示您已经清楚两份知情同意书的内容并同意。</div></p>
   <p><div style = ""color: pink;font-size:30px;"">请确保您记得day0的实验编号，您将在本次实验输入该编号，若您忘记，请咨询实验员后作答。</div></p>
   <p><div style = ""color: lightblue;font-size:25px;"">请您尽可能认真地作答，我们将依据您在各问卷和按键任务中的作答质量发放报酬。</div></p>
   <p> <div style = ""color: green;font-size:25px;""><按空格键至下页></div> </p>
   "," ","html-keyboard-response","0","31541","0.0-0.0","3","3","4","3","3","3","3","4","4","4","4","4","2","3","4","4","4","4","4","4","2","2","2","2","2","2","2","1","1","1","0","1","1","0","0","1","1","1","1","1","0","1","0","1","4","2","2","2","2","","3","2","2","1","2","789499511558115329","林","652","","","","","","","","","","","","","","","","","","","","","","","","","","","","","","","","","","","","","","","","","",""
"","","","call-function","1","31542","0.0-1.0-0.0","3","3","4","3","3","3","3","4","4","4","4","4","2","3","4","4","4","4","4","4","2","2","2","2","2","2","2","1","1","1","0","1","1","0","0","1","1","1","1","1","0","1","0","1","4","2","2","2","2","","3","2","2","1","2","789499511558115329","林","652","","","","","","","","","","","","","","","","","","","","","","","","","","","","","","","","","","","","","","","","","",""
"15764","","{""friend_name"":""林"",""ParticipantID"":""652""}","survey-html-form","2","47307","0.0-1.0-1.0","3","3","4","3","3","3","3","4","4","4","4","4","2","3","4","4","4","4","4","4","2","2","2","2","2","2","2","1","1","1","0","1","1","0","0","1","1","1","1","1","0","1","0","1","4","2","2","2","2","","3","2","2","1","2","789499511558115329","林","652","","","","","","","","","","","","","","","","","","","","","","","","","","","","","","","","","","","","","","","","","",""
"","","","fullscreen","3","54249","0.0-2.0","3","3","4","3","3","3","3","4","4","4","4","4","2","3","4","4","4","4","4","4","2","2","2","2","2","2","2","1","1","1","0","1","1","0","0","1","1","1","1","1","0","1","0","1","4","2","2","2","2","","3","2","2","1","2","789499511558115329","林","652","","true","{}","","","","","","","","","","","","","","","","","","","","","","","","","","","","","","","","","","","","","","",""
"29308.89999999851","","{""Q01"":""3"",""Q02"":""3"",""Q03"":""4"",""Q04"":""3"",""Q05"":""3"",""Q06"":""3"",""Q07"":""3"",""Q08"":""4"",""Q09"":""4"",""Q10"":""4""}","survey-template","4","83560","0.0-3.0","3","3","4","3","3","3","3","4","4","4","4","4","2","3","4","4","4","4","4","4","2","2","2","2","2","2","2","1","1","1","0","1","1","0","0","1","1","1","1","1","0","1","0","1","4","2","2","2","2","","3","2","2","1","2","789499511558115329","林","652","","","","{""Q01"":""3"",""Q02"":""3"",""Q03"":""4"",""Q04"":""3"",""Q05"":""3"",""Q06"":""3"",""Q07"":""3"",""Q08"":""4"",""Q09"":""4"",""Q10"":""4""}","[0,1,2,3,4,5,6,7,8,9]","[""Q01"",""Q02"",""Q03"",""Q04"",""Q05"",""Q05"",""Q06"",""Q07"",""Q08"",""Q09"",""Q10""]","[5249.89999999851,6071.80000000447,8457.89999999851,9667.89999999851,11384.10000000149,14362,16646.80000000447,17215.89999999851,20525.89999999851,21596,22989.89999999851]","[]","[5249.89999999851,6071.80000000447,8457.89999999851,9667.89999999851,11384.10000000149,14362,15554.10000000149,16646.80000000447,17215.89999999851,20525.89999999851,21596,22989.89999999851,29307.89999999851]","0.5","0.2222222222222222","0","","","","","","","","","","","","","","","","","","","","","","","","","","","","","",""
"34342.20000000298","","{""Q01"":""4"",""Q02"":""4"",""Q03"":""2"",""Q04"":""3"",""Q05"":""4"",""Q06"":""4"",""Q07"":""4"",""Q08"":""4"",""Q09"":""4"",""Q10"":""4""}","survey-template","5","117905","0.0-4.0","3","3","4","3","3","3","3","4","4","4","4","4","2","3","4","4","4","4","4","4","2","2","2","2","2","2","2","1","1","1","0","1","1","0","0","1","1","1","1","1","0","1","0","1","4","2","2","2","2","","3","2","2","1","2","789499511558115329","林","652","","","","{""Q01"":""4"",""Q02"":""4"",""Q03"":""2"",""Q04"":""3"",""Q05"":""4"",""Q06"":""4"",""Q07"":""4"",""Q08"":""4"",""Q09"":""4"",""Q10"":""4""}","[0,1,2,3,4,5,6,7,8,9]","[""Q01"",""Q02"",""Q02"",""Q03"",""Q04"",""Q05"",""Q06"",""Q07"",""Q08"",""Q09"",""Q10""]","[2395.5,3993.39999999851,4935.39999999851,10157.30000000447,12389.30000000447,15333.39999999851,19795.39999999851,22501.30000000447,25585.39999999851,28168.30000000447,30985.5]","[]","[2395.5,3993.39999999851,4935.39999999851,6421.39999999851,10157.30000000447,12389.30000000447,15333.39999999851,19795.39999999851,22501.30000000447,25585.39999999851,28168.30000000447,29533.30000000447,30985.5,34341.30000000447]","0.5","0.2222222222222222","0","","","","","","","","","","","","","","","","","","","","","","","","","","","","","",""
"","","","preload","6","118225","0.0-5.0","3","3","4","3","3","3","3","4","4","4","4","4","2","3","4","4","4","4","4","4","2","2","2","2","2","2","2","1","1","1","0","1","1","0","0","1","1","1","1","1","0","1","0","1","4","2","2","2","2","","3","2","2","1","2","789499511558115329","林","652","","true","","","","","","","","","","","false","[]","[]","[]","","","","","","","","","","","","","","","","","","","","","","","","","",""
"39939","","","instructions","7","158164","0.0-6.0","3","3","4","3","3","3","3","4","4","4","4","4","2","3","4","4","4","4","4","4","2","2","2","2","2","2","2","1","1","1","0","1","1","0","0","1","1","1","1","1","0","1","0","1","4","2","2","2","2","","3","2","2","1","2","789499511558115329","林","652","","","","","","","","","","","","","","","","","[{""page_index"":0,""viewing_time"":39939}]","","","","","","","","","","","","","","","","","","","","","","","","",""
"33113","","","instructions","8","191278","0.0-7.0-1.0-0.0","3","3","4","3","3","3","3","4","4","4","4","4","2","3","4","4","4","4","4","4","2","2","2","2","2","2","2","1","1","1","0","1","1","0","0","1","1","1","1","1","0","1","0","1","4","2","2","2","2","","3","2","2","1","2","789499511558115329","林","652","","","","","","","","","","","","","","","","","[{""page_index"":0,""viewing_time"":24473},{""page_index"":1,""viewing_time"":5976},{""page_index"":2,""viewing_time"":2664}]","","","","","","","","","","","","","","","","","","","","","","","","",""
"null","","null","psychophysics","9","193488","0.0-7.0-1.0-1.0-0.0-0.0","3","3","4","3","3","3","3","4","4","4","4","4","2","3","4","4","4","4","4","4","2","2","2","2","2","2","2","1","1","1","0","1","1","0","0","1","1","1","1","1","0","1","0","1","4","2","2","2","2","","3","2","2","1","2","789499511558115329","林","652","","","","null","","","","","","","","","","","","","","key","null","31.192300000000145","1280","716","j","false","nonmatch","img/triangle.png","梯形","三角","ALT1_2","prac_ALT1_2","","","","","","","","","","","",""
"null","<span class='add_' style='color:yellow; font-size: 70px;'> 太慢! </span>","null","html-keyboard-response","10","193989","0.0-7.0-1.0-1.0-0.0-1.0","3","3","4","3","3","3","3","4","4","4","4","4","2","3","4","4","4","4","4","4","2","2","2","2","2","2","2","1","1","1","0","1","1","0","0","1","1","1","1","1","0","1","0","1","4","2","2","2","2","","3","2","2","1","2","789499511558115329","林","652","","","","","","","","","","","","","","","","","","","","","","","","","","","","","","feedback_test","","","","","","","","","","","",""
"null","","null","psychophysics","11","196197","0.0-7.0-1.0-1.0-0.0-0.1","3","3","4","3","3","3","3","4","4","4","4","4","2","3","4","4","4","4","4","4","2","2","2","2","2","2","2","1","1","1","0","1","1","0","0","1","1","1","1","1","0","1","0","1","4","2","2","2","2","","3","2","2","1","2","789499511558115329","林","652","","","","null","","","","","","","","","","","","","","key","null","31.40226086956513","1280","716","j","false","nonmatch","img/trapezoid.png","三角","梯形","ALT1_2","prac_ALT1_2","","","","","","","","","","","",""
"null","<span class='add_' style='color:yellow; font-size: 70px;'> 太慢! </span>","null","html-keyboard-response","12","196697","0.0-7.0-1.0-1.0-0.0-1.1","3","3","4","3","3","3","3","4","4","4","4","4","2","3","4","4","4","4","4","4","2","2","2","2","2","2","2","1","1","1","0","1","1","0","0","1","1","1","1","1","0","1","0","1","4","2","2","2","2","","3","2","2","1","2","789499511558115329","林","652","","","","","","","","","","","","","","","","","","","","","","","","","","","","","","feedback_test","","","","","","","","","","","",""
"921","","f","psychophysics","13","198620","0.0-7.0-1.0-1.0-0.0-0.2","3","3","4","3","3","3","3","4","4","4","4","4","2","3","4","4","4","4","4","4","2","2","2","2","2","2","2","1","1","1","0","1","1","0","0","1","1","1","1","1","0","1","0","1","4","2","2","2","2","","3","2","2","1","2","789499511558115329","林","652","","","","match","","","","","","","","","","","","","","key","f","33.039438596491095","1280","716","f","true","match","img/triangle.png","三角","三角","ALT1_2","prac_ALT1_2","","","","","","","","","","","",""
"null","<span style='color:GreenYellow; font-size: 70px;'>正确! </span>","null","html-keyboard-response","14","199121","0.0-7.0-1.0-1.0-0.0-1.2","3","3","4","3","3","3","3","4","4","4","4","4","2","3","4","4","4","4","4","4","2","2","2","2","2","2","2","1","1","1","0","1","1","0","0","1","1","1","1","1","0","1","0","1","4","2","2","2","2","","3","2","2","1","2","789499511558115329","林","652","","","","","","","","","","","","","","","","","","","","","","","","","","","","","","feedback_test","","","","","","","","","","","",""
"753","","j","psychophysics","15","200876","0.0-7.0-1.0-1.0-0.0-0.3","3","3","4","3","3","3","3","4","4","4","4","4","2","3","4","4","4","4","4","4","2","2","2","2","2","2","2","1","1","1","0","1","1","0","0","1","1","1","1","1","0","1","0","1","4","2","2","2","2","","3","2","2","1","2","789499511558115329","林","652","","","","nonmatch","","","","","","","","","","","","","","key","j","30.952678571428674","1280","716","f","false","match","img/pentagon.png","五边","五边","ALT1_2","prac_ALT1_2","","","","","","","","","","","",""
"null","<span style='color:red; font-size: 70px;'>错误! </span>","null","html-keyboard-response","16","201377","0.0-7.0-1.0-1.0-0.0-1.3","3","3","4","3","3","3","3","4","4","4","4","4","2","3","4","4","4","4","4","4","2","2","2","2","2","2","2","1","1","1","0","1","1","0","0","1","1","1","1","1","0","1","0","1","4","2","2","2","2","","3","2","2","1","2","789499511558115329","林","652","","","","","","","","","","","","","","","","","","","","","","","","","","","","","","feedback_test","","","","","","","","","","","",""
"1035","","j","psychophysics","17","203413","0.0-7.0-1.0-1.0-0.0-0.4","3","3","4","3","3","3","3","4","4","4","4","4","2","3","4","4","4","4","4","4","2","2","2","2","2","2","2","1","1","1","0","1","1","0","0","1","1","1","1","1","0","1","0","1","4","2","2","2","2","","3","2","2","1","2","789499511558115329","林","652","","","","nonmatch","","","","","","","","","","","","","","key","j","30.555848484848728","1280","716","j","true","nonmatch","img/ellipse.png","五边","椭圆","ALT1_2","prac_ALT1_2","","","","","","","","","","","",""
"null","<span style='color:GreenYellow; font-size: 70px;'>正确! </span>","null","html-keyboard-response","18","203914","0.0-7.0-1.0-1.0-0.0-1.4","3","3","4","3","3","3","3","4","4","4","4","4","2","3","4","4","4","4","4","4","2","2","2","2","2","2","2","1","1","1","0","1","1","0","0","1","1","1","1","1","0","1","0","1","4","2","2","2","2","","3","2","2","1","2","789499511558115329","林","652","","","","","","","","","","","","","","","","","","","","","","","","","","","","","","feedback_test","","","","","","","","","","","",""
"968","","f","psychophysics","19","205884","0.0-7.0-1.0-1.0-0.0-0.5","3","3","4","3","3","3","3","4","4","4","4","4","2","3","4","4","4","4","4","4","2","2","2","2","2","2","2","1","1","1","0","1","1","0","0","1","1","1","1","1","0","1","0","1","4","2","2","2","2","","3","2","2","1","2","789499511558115329","林","652","","","","match","","","","","","","","","","","","","","key","f","31.184516129032296","1280","716","j","false","nonmatch","img/ellipse.png","梯形","椭圆","ALT1_2","prac_ALT1_2","","","","","","","","","","","",""
"null","<span style='color:red; font-size: 70px;'>错误! </span>","null","html-keyboard-response","20","206386","0.0-7.0-1.0-1.0-0.0-1.5","3","3","4","3","3","3","3","4","4","4","4","4","2","3","4","4","4","4","4","4","2","2","2","2","2","2","2","1","1","1","0","1","1","0","0","1","1","1","1","1","0","1","0","1","4","2","2","2","2","","3","2","2","1","2","789499511558115329","林","652","","","","","","","","","","","","","","","","","","","","","","","","","","","","","","feedback_test","","","","","","","","","","","",""
"777","","j","psychophysics","21","208164","0.0-7.0-1.0-1.0-0.0-0.6","3","3","4","3","3","3","3","4","4","4","4","4","2","3","4","4","4","4","4","4","2","2","2","2","2","2","2","1","1","1","0","1","1","0","0","1","1","1","1","1","0","1","0","1","4","2","2","2","2","","3","2","2","1","2","789499511558115329","林","652","","","","nonmatch","","","","","","","","","","","","","","key","j","30.95278571428571","1280","716","f","false","match","img/trapezoid.png","梯形","梯形","ALT1_2","prac_ALT1_2","","","","","","","","","","","",""
"null","<span style='color:red; font-size: 70px;'>错误! </span>","null","html-keyboard-response","22","208666","0.0-7.0-1.0-1.0-0.0-1.6","3","3","4","3","3","3","3","4","4","4","4","4","2","3","4","4","4","4","4","4","2","2","2","2","2","2","2","1","1","1","0","1","1","0","0","1","1","1","1","1","0","1","0","1","4","2","2","2","2","","3","2","2","1","2","789499511558115329","林","652","","","","","","","","","","","","","","","","","","","","","","","","","","","","","","feedback_test","","","","","","","","","","","",""
"null","","null","psychophysics","23","210873","0.0-7.0-1.0-1.0-0.0-0.7","3","3","4","3","3","3","3","4","4","4","4","4","2","3","4","4","4","4","4","4","2","2","2","2","2","2","2","1","1","1","0","1","1","0","0","1","1","1","1","1","0","1","0","1","4","2","2","2","2","","3","2","2","1","2","789499511558115329","林","652","","","","null","","","","","","","","","","","","","","key","null","31.192928571428222","1280","716","f","false","match","img/ellipse.png","椭圆","椭圆","ALT1_2","prac_ALT1_2","","","","","","","","","","","",""
"null","<span class='add_' style='color:yellow; font-size: 70px;'> 太慢! </span>","null","html-keyboard-response","24","211373","0.0-7.0-1.0-1.0-0.0-1.7","3","3","4","3","3","3","3","4","4","4","4","4","2","3","4","4","4","4","4","4","2","2","2","2","2","2","2","1","1","1","0","1","1","0","0","1","1","1","1","1","0","1","0","1","4","2","2","2","2","","3","2","2","1","2","789499511558115329","林","652","","","","","","","","","","","","","","","","","","","","","","","","","","","","","","feedback_test","","","","","","","","","","","",""
"1006","","j","psychophysics","25","213380","0.0-7.0-1.0-1.0-0.0-0.8","3","3","4","3","3","3","3","4","4","4","4","4","2","3","4","4","4","4","4","4","2","2","2","2","2","2","2","1","1","1","0","1","1","0","0","1","1","1","1","1","0","1","0","1","4","2","2","2","2","","3","2","2","1","2","789499511558115329","林","652","","","","nonmatch","","","","","","","","","","","","","","key","j","30.514030769230494","1280","716","j","true","nonmatch","img/pentagon.png","三角","五边","ALT1_2","prac_ALT1_2","","","","","","","","","","","",""
"null","<span style='color:GreenYellow; font-size: 70px;'>正确! </span>","null","html-keyboard-response","26","213881","0.0-7.0-1.0-1.0-0.0-1.8","3","3","4","3","3","3","3","4","4","4","4","4","2","3","4","4","4","4","4","4","2","2","2","2","2","2","2","1","1","1","0","1","1","0","0","1","1","1","1","1","0","1","0","1","4","2","2","2","2","","3","2","2","1","2","789499511558115329","林","652","","","","","","","","","","","","","","","","","","","","","","","","","","","","","","feedback_test","","","","","","","","","","","",""
"768","","f","psychophysics","27","215652","0.0-7.0-1.0-1.0-0.0-0.9","3","3","4","3","3","3","3","4","4","4","4","4","2","3","4","4","4","4","4","4","2","2","2","2","2","2","2","1","1","1","0","1","1","0","0","1","1","1","1","1","0","1","0","1","4","2","2","2","2","","3","2","2","1","2","789499511558115329","林","652","","","","match","","","","","","","","","","","","","","key","f","30.4102631578949","1280","716","f","true","match","img/ellipse.png","椭圆","椭圆","ALT1_2","prac_ALT1_2","","","","","","","","","","","",""
"null","<span style='color:GreenYellow; font-size: 70px;'>正确! </span>","null","html-keyboard-response","28","216153","0.0-7.0-1.0-1.0-0.0-1.9","3","3","4","3","3","3","3","4","4","4","4","4","2","3","4","4","4","4","4","4","2","2","2","2","2","2","2","1","1","1","0","1","1","0","0","1","1","1","1","1","0","1","0","1","4","2","2","2","2","","3","2","2","1","2","789499511558115329","林","652","","","","","","","","","","","","","","","","","","","","","","","","","","","","","","feedback_test","","","","","","","","","","","",""
"771","","j","psychophysics","29","217925","0.0-7.0-1.0-1.0-0.0-0.10","3","3","4","3","3","3","3","4","4","4","4","4","2","3","4","4","4","4","4","4","2","2","2","2","2","2","2","1","1","1","0","1","1","0","0","1","1","1","1","1","0","1","0","1","4","2","2","2","2","","3","2","2","1","2","789499511558115329","林","652","","","","nonmatch","","","","","","","","","","","","","","key","j","30.953607142857177","1280","716","f","false","match","img/pentagon.png","五边","五边","ALT1_2","prac_ALT1_2","","","","","","","","","","","",""
"null","<span style='color:red; font-size: 70px;'>错误! </span>","null","html-keyboard-response","30","218425","0.0-7.0-1.0-1.0-0.0-1.10","3","3","4","3","3","3","3","4","4","4","4","4","2","3","4","4","4","4","4","4","2","2","2","2","2","2","2","1","1","1","0","1","1","0","0","1","1","1","1","1","0","1","0","1","4","2","2","2","2","","3","2","2","1","2","789499511558115329","林","652","","","","","","","","","","","","","","","","","","","","","","","","","","","","","","feedback_test","","","","","","","","","","","",""
"754","","f","psychophysics","31","220180","0.0-7.0-1.0-1.0-0.0-0.11","3","3","4","3","3","3","3","4","4","4","4","4","2","3","4","4","4","4","4","4","2","2","2","2","2","2","2","1","1","1","0","1","1","0","0","1","1","1","1","1","0","1","0","1","4","2","2","2","2","","3","2","2","1","2","789499511558115329","林","652","","","","match","","","","","","","","","","","","","","key","f","30.409263157894888","1280","716","f","true","match","img/pentagon.png","五边","五边","ALT1_2","prac_ALT1_2","","","","","","","","","","","",""
"null","<span style='color:GreenYellow; font-size: 70px;'>正确! </span>","null","html-keyboard-response","32","220682","0.0-7.0-1.0-1.0-0.0-1.11","3","3","4","3","3","3","3","4","4","4","4","4","2","3","4","4","4","4","4","4","2","2","2","2","2","2","2","1","1","1","0","1","1","0","0","1","1","1","1","1","0","1","0","1","4","2","2","2","2","","3","2","2","1","2","789499511558115329","林","652","","","","","","","","","","","","","","","","","","","","","","","","","","","","","","feedback_test","","","","","","","","","","","",""
"1009","","j","psychophysics","33","222692","0.0-7.0-1.0-1.0-0.0-0.12","3","3","4","3","3","3","3","4","4","4","4","4","2","3","4","4","4","4","4","4","2","2","2","2","2","2","2","1","1","1","0","1","1","0","0","1","1","1","1","1","0","1","0","1","4","2","2","2","2","","3","2","2","1","2","789499511558115329","林","652","","","","nonmatch","","","","","","","","","","","","","","key","j","31.219888888888935","1280","716","j","true","nonmatch","img/pentagon.png","椭圆","五边","ALT1_2","prac_ALT1_2","","","","","","","","","","","",""
"null","<span style='color:GreenYellow; font-size: 70px;'>正确! </span>","null","html-keyboard-response","34","223193","0.0-7.0-1.0-1.0-0.0-1.12","3","3","4","3","3","3","3","4","4","4","4","4","2","3","4","4","4","4","4","4","2","2","2","2","2","2","2","1","1","1","0","1","1","0","0","1","1","1","1","1","0","1","0","1","4","2","2","2","2","","3","2","2","1","2","789499511558115329","林","652","","","","","","","","","","","","","","","","","","","","","","","","","","","","","","feedback_test","","","","","","","","","","","",""
"1026","","j","psychophysics","35","225220","0.0-7.0-1.0-1.0-0.0-0.13","3","3","4","3","3","3","3","4","4","4","4","4","2","3","4","4","4","4","4","4","2","2","2","2","2","2","2","1","1","1","0","1","1","0","0","1","1","1","1","1","0","1","0","1","4","2","2","2","2","","3","2","2","1","2","789499511558115329","林","652","","","","nonmatch","","","","","","","","","","","","","","key","j","30.771153846153847","1280","716","j","true","nonmatch","img/triangle.png","五边","三角","ALT1_2","prac_ALT1_2","","","","","","","","","","","",""
"null","<span style='color:GreenYellow; font-size: 70px;'>正确! </span>","null","html-keyboard-response","36","225721","0.0-7.0-1.0-1.0-0.0-1.13","3","3","4","3","3","3","3","4","4","4","4","4","2","3","4","4","4","4","4","4","2","2","2","2","2","2","2","1","1","1","0","1","1","0","0","1","1","1","1","1","0","1","0","1","4","2","2","2","2","","3","2","2","1","2","789499511558115329","林","652","","","","","","","","","","","","","","","","","","","","","","","","","","","","","","feedback_test","","","","","","","","","","","",""
"1035","","f","psychophysics","37","227756","0.0-7.0-1.0-1.0-0.0-0.14","3","3","4","3","3","3","3","4","4","4","4","4","2","3","4","4","4","4","4","4","2","2","2","2","2","2","2","1","1","1","0","1","1","0","0","1","1","1","1","1","0","1","0","1","4","2","2","2","2","","3","2","2","1","2","789499511558115329","林","652","","","","match","","","","","","","","","","","","","","key","f","31.24900000000025","1280","716","f","true","match","img/trapezoid.png","梯形","梯形","ALT1_2","prac_ALT1_2","","","","","","","","","","","",""
"null","<span style='color:GreenYellow; font-size: 70px;'>正确! </span>","null","html-keyboard-response","38","228257","0.0-7.0-1.0-1.0-0.0-1.14","3","3","4","3","3","3","3","4","4","4","4","4","2","3","4","4","4","4","4","4","2","2","2","2","2","2","2","1","1","1","0","1","1","0","0","1","1","1","1","1","0","1","0","1","4","2","2","2","2","","3","2","2","1","2","789499511558115329","林","652","","","","","","","","","","","","","","","","","","","","","","","","","","","","","","feedback_test","","","","","","","","","","","",""
"825","","f","psychophysics","39","230084","0.0-7.0-1.0-1.0-0.0-0.15","3","3","4","3","3","3","3","4","4","4","4","4","2","3","4","4","4","4","4","4","2","2","2","2","2","2","2","1","1","1","0","1","1","0","0","1","1","1","1","1","0","1","0","1","4","2","2","2","2","","3","2","2","1","2","789499511558115329","林","652","","","","match","","","","","","","","","","","","","","key","f","30.510677966101774","1280","716","f","true","match","img/ellipse.png","椭圆","椭圆","ALT1_2","prac_ALT1_2","","","","","","","","","","","",""
"null","<span style='color:GreenYellow; font-size: 70px;'>正确! </span>","null","html-keyboard-response","40","230585","0.0-7.0-1.0-1.0-0.0-1.15","3","3","4","3","3","3","3","4","4","4","4","4","2","3","4","4","4","4","4","4","2","2","2","2","2","2","2","1","1","1","0","1","1","0","0","1","1","1","1","1","0","1","0","1","4","2","2","2","2","","3","2","2","1","2","789499511558115329","林","652","","","","","","","","","","","","","","","","","","","","","","","","","","","","","","feedback_test","","","","","","","","","","","",""
"937","","j","psychophysics","41","232524","0.0-7.0-1.0-1.0-0.0-0.16","3","3","4","3","3","3","3","4","4","4","4","4","2","3","4","4","4","4","4","4","2","2","2","2","2","2","2","1","1","1","0","1","1","0","0","1","1","1","1","1","0","1","0","1","4","2","2","2","2","","3","2","2","1","2","789499511558115329","林","652","","","","nonmatch","","","","","","","","","","","","","","key","j","31.147360655737728","1280","716","j","true","nonmatch","img/trapezoid.png","椭圆","梯形","ALT1_2","prac_ALT1_2","","","","","","","","","","","",""
"null","<span style='color:GreenYellow; font-size: 70px;'>正确! </span>","null","html-keyboard-response","42","233025","0.0-7.0-1.0-1.0-0.0-1.16","3","3","4","3","3","3","3","4","4","4","4","4","2","3","4","4","4","4","4","4","2","2","2","2","2","2","2","1","1","1","0","1","1","0","0","1","1","1","1","1","0","1","0","1","4","2","2","2","2","","3","2","2","1","2","789499511558115329","林","652","","","","","","","","","","","","","","","","","","","","","","","","","","","","","","feedback_test","","","","","","","","","","","",""
"1138","","f","psychophysics","43","235165","0.0-7.0-1.0-1.0-0.0-0.17","3","3","4","3","3","3","3","4","4","4","4","4","2","3","4","4","4","4","4","4","2","2","2","2","2","2","2","1","1","1","0","1","1","0","0","1","1","1","1","1","0","1","0","1","4","2","2","2","2","","3","2","2","1","2","789499511558115329","林","652","","","","match","","","","","","","","","","","","","","key","f","30.88332352941164","1280","716","j","false","nonmatch","img/trapezoid.png","五边","梯形","ALT1_2","prac_ALT1_2","","","","","","","","","","","",""
"null","<span style='color:red; font-size: 70px;'>错误! </span>","null","html-keyboard-response","44","235666","0.0-7.0-1.0-1.0-0.0-1.17","3","3","4","3","3","3","3","4","4","4","4","4","2","3","4","4","4","4","4","4","2","2","2","2","2","2","2","1","1","1","0","1","1","0","0","1","1","1","1","1","0","1","0","1","4","2","2","2","2","","3","2","2","1","2","789499511558115329","林","652","","","","","","","","","","","","","","","","","","","","","","","","","","","","","","feedback_test","","","","","","","","","","","",""
"881","","j","psychophysics","45","237548","0.0-7.0-1.0-1.0-0.0-0.18","3","3","4","3","3","3","3","4","4","4","4","4","2","3","4","4","4","4","4","4","2","2","2","2","2","2","2","1","1","1","0","1","1","0","0","1","1","1","1","1","0","1","0","1","4","2","2","2","2","","3","2","2","1","2","789499511558115329","林","652","","","","nonmatch","","","","","","","","","","","","","","key","j","30.83244999999976","1280","716","j","true","nonmatch","img/ellipse.png","三角","椭圆","ALT1_2","prac_ALT1_2","","","","","","","","","","","",""
"null","<span style='color:GreenYellow; font-size: 70px;'>正确! </span>","null","html-keyboard-response","46","238049","0.0-7.0-1.0-1.0-0.0-1.18","3","3","4","3","3","3","3","4","4","4","4","4","2","3","4","4","4","4","4","4","2","2","2","2","2","2","2","1","1","1","0","1","1","0","0","1","1","1","1","1","0","1","0","1","4","2","2","2","2","","3","2","2","1","2","789499511558115329","林","652","","","","","","","","","","","","","","","","","","","","","","","","","","","","","","feedback_test","","","","","","","","","","","",""
"898","","j","psychophysics","47","239948","0.0-7.0-1.0-1.0-0.0-0.19","3","3","4","3","3","3","3","4","4","4","4","4","2","3","4","4","4","4","4","4","2","2","2","2","2","2","2","1","1","1","0","1","1","0","0","1","1","1","1","1","0","1","0","1","4","2","2","2","2","","3","2","2","1","2","789499511558115329","林","652","","","","nonmatch","","","","","","","","","","","","","","key","j","31.111116666666444","1280","716","j","true","nonmatch","img/pentagon.png","梯形","五边","ALT1_2","prac_ALT1_2","","","","","","","","","","","",""
"null","<span style='color:GreenYellow; font-size: 70px;'>正确! </span>","null","html-keyboard-response","48","240449","0.0-7.0-1.0-1.0-0.0-1.19","3","3","4","3","3","3","3","4","4","4","4","4","2","3","4","4","4","4","4","4","2","2","2","2","2","2","2","1","1","1","0","1","1","0","0","1","1","1","1","1","0","1","0","1","4","2","2","2","2","","3","2","2","1","2","789499511558115329","林","652","","","","","","","","","","","","","","","","","","","","","","","","","","","","","","feedback_test","","","","","","","","","","","",""
"1122","","f","psychophysics","49","242573","0.0-7.0-1.0-1.0-0.0-0.20","3","3","4","3","3","3","3","4","4","4","4","4","2","3","4","4","4","4","4","4","2","2","2","2","2","2","2","1","1","1","0","1","1","0","0","1","1","1","1","1","0","1","0","1","4","2","2","2","2","","3","2","2","1","2","789499511558115329","林","652","","","","match","","","","","","","","","","","","","","key","f","31.313984848485262","1280","716","f","true","match","img/trapezoid.png","梯形","梯形","ALT1_2","prac_ALT1_2","","","","","","","","","","","",""
"null","<span style='color:GreenYellow; font-size: 70px;'>正确! </span>","null","html-keyboard-response","50","243075","0.0-7.0-1.0-1.0-0.0-1.20","3","3","4","3","3","3","3","4","4","4","4","4","2","3","4","4","4","4","4","4","2","2","2","2","2","2","2","1","1","1","0","1","1","0","0","1","1","1","1","1","0","1","0","1","4","2","2","2","2","","3","2","2","1","2","789499511558115329","林","652","","","","","","","","","","","","","","","","","","","","","","","","","","","","","","feedback_test","","","","","","","","","","","",""
"1033","","f","psychophysics","51","245108","0.0-7.0-1.0-1.0-0.0-0.21","3","3","4","3","3","3","3","4","4","4","4","4","2","3","4","4","4","4","4","4","2","2","2","2","2","2","2","1","1","1","0","1","1","0","0","1","1","1","1","1","0","1","0","1","4","2","2","2","2","","3","2","2","1","2","789499511558115329","林","652","","","","match","","","","","","","","","","","","","","key","f","30.557409090908937","1280","716","f","true","match","img/triangle.png","三角","三角","ALT1_2","prac_ALT1_2","","","","","","","","","","","",""
"null","<span style='color:GreenYellow; font-size: 70px;'>正确! </span>","null","html-keyboard-response","52","245609","0.0-7.0-1.0-1.0-0.0-1.21","3","3","4","3","3","3","3","4","4","4","4","4","2","3","4","4","4","4","4","4","2","2","2","2","2","2","2","1","1","1","0","1","1","0","0","1","1","1","1","1","0","1","0","1","4","2","2","2","2","","3","2","2","1","2","789499511558115329","林","652","","","","","","","","","","","","","","","","","","","","","","","","","","","","","","feedback_test","","","","","","","","","","","",""
"857","","f","psychophysics","53","247468","0.0-7.0-1.0-1.0-0.0-0.22","3","3","4","3","3","3","3","4","4","4","4","4","2","3","4","4","4","4","4","4","2","2","2","2","2","2","2","1","1","1","0","1","1","0","0","1","1","1","1","1","0","1","0","1","4","2","2","2","2","","3","2","2","1","2","789499511558115329","林","652","","","","match","","","","","","","","","","","","","","key","f","30.279166666666665","1280","716","f","true","match","img/triangle.png","三角","三角","ALT1_2","prac_ALT1_2","","","","","","","","","","","",""
"null","<span style='color:GreenYellow; font-size: 70px;'>正确! </span>","null","html-keyboard-response","54","247970","0.0-7.0-1.0-1.0-0.0-1.22","3","3","4","3","3","3","3","4","4","4","4","4","2","3","4","4","4","4","4","4","2","2","2","2","2","2","2","1","1","1","0","1","1","0","0","1","1","1","1","1","0","1","0","1","4","2","2","2","2","","3","2","2","1","2","789499511558115329","林","652","","","","","","","","","","","","","","","","","","","","","","","","","","","","","","feedback_test","","","","","","","","","","","",""
"897","","j","psychophysics","55","249868","0.0-7.0-1.0-1.0-0.0-0.23","3","3","4","3","3","3","3","4","4","4","4","4","2","3","4","4","4","4","4","4","2","2","2","2","2","2","2","1","1","1","0","1","1","0","0","1","1","1","1","1","0","1","0","1","4","2","2","2","2","","3","2","2","1","2","789499511558115329","林","652","","","","nonmatch","","","","","","","","","","","","","","key","j","30.834166666666956","1280","716","j","true","nonmatch","img/triangle.png","椭圆","三角","ALT1_2","prac_ALT1_2","","","","","","","","","","","",""
"null","<span style='color:GreenYellow; font-size: 70px;'>正确! </span>","null","html-keyboard-response","56","250369","0.0-7.0-1.0-1.0-0.0-1.23","3","3","4","3","3","3","3","4","4","4","4","4","2","3","4","4","4","4","4","4","2","2","2","2","2","2","2","1","1","1","0","1","1","0","0","1","1","1","1","1","0","1","0","1","4","2","2","2","2","","3","2","2","1","2","789499511558115329","林","652","","","","","","","","","","","","","","","","","","","","","","","","","","","","","","feedback_test","","","","","","","","","","","",""
"1010","","j","psychophysics","57","252380","0.0-7.0-1.0-1.0-0.0-0.24","3","3","4","3","3","3","3","4","4","4","4","4","2","3","4","4","4","4","4","4","2","2","2","2","2","2","2","1","1","1","0","1","1","0","0","1","1","1","1","1","0","1","0","1","4","2","2","2","2","","3","2","2","1","2","789499511558115329","林","652","","","","nonmatch","","","","","","","","","","","","","","key","j","30.9900312499999","1280","716","j","true","nonmatch","img/ellipse.png","五边","椭圆","ALT1_2","prac_ALT1_2","","","","","","","","","","","",""
"null","<span style='color:GreenYellow; font-size: 70px;'>正确! </span>","null","html-keyboard-response","58","252881","0.0-7.0-1.0-1.0-0.0-1.24","3","3","4","3","3","3","3","4","4","4","4","4","2","3","4","4","4","4","4","4","2","2","2","2","2","2","2","1","1","1","0","1","1","0","0","1","1","1","1","1","0","1","0","1","4","2","2","2","2","","3","2","2","1","2","789499511558115329","林","652","","","","","","","","","","","","","","","","","","","","","","","","","","","","","","feedback_test","","","","","","","","","","","",""
"835","","f","psychophysics","59","254716","0.0-7.0-1.0-1.0-0.0-0.25","3","3","4","3","3","3","3","4","4","4","4","4","2","3","4","4","4","4","4","4","2","2","2","2","2","2","2","1","1","1","0","1","1","0","0","1","1","1","1","1","0","1","0","1","4","2","2","2","2","","3","2","2","1","2","789499511558115329","林","652","","","","match","","","","","","","","","","","","","","key","f","30.49528813559337","1280","716","f","true","match","img/trapezoid.png","梯形","梯形","ALT1_2","prac_ALT1_2","","","","","","","","","","","",""
"null","<span style='color:GreenYellow; font-size: 70px;'>正确! </span>","null","html-keyboard-response","60","255217","0.0-7.0-1.0-1.0-0.0-1.25","3","3","4","3","3","3","3","4","4","4","4","4","2","3","4","4","4","4","4","4","2","2","2","2","2","2","2","1","1","1","0","1","1","0","0","1","1","1","1","1","0","1","0","1","4","2","2","2","2","","3","2","2","1","2","789499511558115329","林","652","","","","","","","","","","","","","","","","","","","","","","","","","","","","","","feedback_test","","","","","","","","","","","",""
"810","","f","psychophysics","61","257028","0.0-7.0-1.0-1.0-0.0-0.26","3","3","4","3","3","3","3","4","4","4","4","4","2","3","4","4","4","4","4","4","2","2","2","2","2","2","2","1","1","1","0","1","1","0","0","1","1","1","1","1","0","1","0","1","4","2","2","2","2","","3","2","2","1","2","789499511558115329","林","652","","","","match","","","","","","","","","","","","","","key","f","30.995719298245508","1280","716","f","true","match","img/triangle.png","三角","三角","ALT1_2","prac_ALT1_2","","","","","","","","","","","",""
"null","<span style='color:GreenYellow; font-size: 70px;'>正确! </span>","null","html-keyboard-response","62","257529","0.0-7.0-1.0-1.0-0.0-1.26","3","3","4","3","3","3","3","4","4","4","4","4","2","3","4","4","4","4","4","4","2","2","2","2","2","2","2","1","1","1","0","1","1","0","0","1","1","1","1","1","0","1","0","1","4","2","2","2","2","","3","2","2","1","2","789499511558115329","林","652","","","","","","","","","","","","","","","","","","","","","","","","","","","","","","feedback_test","","","","","","","","","","","",""
"778","","f","psychophysics","63","259308","0.0-7.0-1.0-1.0-0.0-0.27","3","3","4","3","3","3","3","4","4","4","4","4","2","3","4","4","4","4","4","4","2","2","2","2","2","2","2","1","1","1","0","1","1","0","0","1","1","1","1","1","0","1","0","1","4","2","2","2","2","","3","2","2","1","2","789499511558115329","林","652","","","","match","","","","","","","","","","","","","","key","f","30.462275862069056","1280","716","f","true","match","img/ellipse.png","椭圆","椭圆","ALT1_2","prac_ALT1_2","","","","","","","","","","","",""
"null","<span style='color:GreenYellow; font-size: 70px;'>正确! </span>","null","html-keyboard-response","64","259809","0.0-7.0-1.0-1.0-0.0-1.27","3","3","4","3","3","3","3","4","4","4","4","4","2","3","4","4","4","4","4","4","2","2","2","2","2","2","2","1","1","1","0","1","1","0","0","1","1","1","1","1","0","1","0","1","4","2","2","2","2","","3","2","2","1","2","789499511558115329","林","652","","","","","","","","","","","","","","","","","","","","","","","","","","","","","","feedback_test","","","","","","","","","","","",""
"914","","f","psychophysics","65","261725","0.0-7.0-1.0-1.0-0.0-0.28","3","3","4","3","3","3","3","4","4","4","4","4","2","3","4","4","4","4","4","4","2","2","2","2","2","2","2","1","1","1","0","1","1","0","0","1","1","1","1","1","0","1","0","1","4","2","2","2","2","","3","2","2","1","2","789499511558115329","林","652","","","","match","","","","","","","","","","","","","","key","f","30.37516129032226","1280","716","f","true","match","img/trapezoid.png","梯形","梯形","ALT1_2","prac_ALT1_2","","","","","","","","","","","",""
"null","<span style='color:GreenYellow; font-size: 70px;'>正确! </span>","null","html-keyboard-response","66","262227","0.0-7.0-1.0-1.0-0.0-1.28","3","3","4","3","3","3","3","4","4","4","4","4","2","3","4","4","4","4","4","4","2","2","2","2","2","2","2","1","1","1","0","1","1","0","0","1","1","1","1","1","0","1","0","1","4","2","2","2","2","","3","2","2","1","2","789499511558115329","林","652","","","","","","","","","","","","","","","","","","","","","","","","","","","","","","feedback_test","","","","","","","","","","","",""
"880","","j","psychophysics","67","264108","0.0-7.0-1.0-1.0-0.0-0.29","3","3","4","3","3","3","3","4","4","4","4","4","2","3","4","4","4","4","4","4","2","2","2","2","2","2","2","1","1","1","0","1","1","0","0","1","1","1","1","1","0","1","0","1","4","2","2","2","2","","3","2","2","1","2","789499511558115329","林","652","","","","nonmatch","","","","","","","","","","","","","","key","j","30.60413114754025","1280","716","j","true","nonmatch","img/ellipse.png","三角","椭圆","ALT1_2","prac_ALT1_2","","","","","","","","","","","",""
"null","<span style='color:GreenYellow; font-size: 70px;'>正确! </span>","null","html-keyboard-response","68","264610","0.0-7.0-1.0-1.0-0.0-1.29","3","3","4","3","3","3","3","4","4","4","4","4","2","3","4","4","4","4","4","4","2","2","2","2","2","2","2","1","1","1","0","1","1","0","0","1","1","1","1","1","0","1","0","1","4","2","2","2","2","","3","2","2","1","2","789499511558115329","林","652","","","","","","","","","","","","","","","","","","","","","","","","","","","","","","feedback_test","","","","","","","","","","","",""
"993","","j","psychophysics","69","266604","0.0-7.0-1.0-1.0-0.0-0.30","3","3","4","3","3","3","3","4","4","4","4","4","2","3","4","4","4","4","4","4","2","2","2","2","2","2","2","1","1","1","0","1","1","0","0","1","1","1","1","1","0","1","0","1","4","2","2","2","2","","3","2","2","1","2","789499511558115329","林","652","","","","nonmatch","","","","","","","","","","","","","","key","j","30.470874999999978","1280","716","f","false","match","img/trapezoid.png","梯形","梯形","ALT1_2","prac_ALT1_2","","","","","","","","","","","",""
"null","<span style='color:red; font-size: 70px;'>错误! </span>","null","html-keyboard-response","70","267105","0.0-7.0-1.0-1.0-0.0-1.30","3","3","4","3","3","3","3","4","4","4","4","4","2","3","4","4","4","4","4","4","2","2","2","2","2","2","2","1","1","1","0","1","1","0","0","1","1","1","1","1","0","1","0","1","4","2","2","2","2","","3","2","2","1","2","789499511558115329","林","652","","","","","","","","","","","","","","","","","","","","","","","","","","","","","","feedback_test","","","","","","","","","","","",""
"778","","f","psychophysics","71","268884","0.0-7.0-1.0-1.0-0.0-0.31","3","3","4","3","3","3","3","4","4","4","4","4","2","3","4","4","4","4","4","4","2","2","2","2","2","2","2","1","1","1","0","1","1","0","0","1","1","1","1","1","0","1","0","1","4","2","2","2","2","","3","2","2","1","2","789499511558115329","林","652","","","","match","","","","","","","","","","","","","","key","f","31.249714285714226","1280","716","f","true","match","img/ellipse.png","椭圆","椭圆","ALT1_2","prac_ALT1_2","","","","","","","","","","","",""
"null","<span style='color:GreenYellow; font-size: 70px;'>正确! </span>","null","html-keyboard-response","72","269384","0.0-7.0-1.0-1.0-0.0-1.31","3","3","4","3","3","3","3","4","4","4","4","4","2","3","4","4","4","4","4","4","2","2","2","2","2","2","2","1","1","1","0","1","1","0","0","1","1","1","1","1","0","1","0","1","4","2","2","2","2","","3","2","2","1","2","789499511558115329","林","652","","","","","","","","","","","","","","","","","","","","","","","","","","","","","","feedback_test","","","","","","","","","","","",""
"1107","","j","psychophysics","73","271492","0.0-7.0-1.0-1.0-0.0-0.32","3","3","4","3","3","3","3","4","4","4","4","4","2","3","4","4","4","4","4","4","2","2","2","2","2","2","2","1","1","1","0","1","1","0","0","1","1","1","1","1","0","1","0","1","4","2","2","2","2","","3","2","2","1","2","789499511558115329","林","652","","","","nonmatch","","","","","","","","","","","","","","key","j","31.314909090908866","1280","716","j","true","nonmatch","img/trapezoid.png","五边","梯形","ALT1_2","prac_ALT1_2","","","","","","","","","","","",""
"null","<span style='color:GreenYellow; font-size: 70px;'>正确! </span>","null","html-keyboard-response","74","271993","0.0-7.0-1.0-1.0-0.0-1.32","3","3","4","3","3","3","3","4","4","4","4","4","2","3","4","4","4","4","4","4","2","2","2","2","2","2","2","1","1","1","0","1","1","0","0","1","1","1","1","1","0","1","0","1","4","2","2","2","2","","3","2","2","1","2","789499511558115329","林","652","","","","","","","","","","","","","","","","","","","","","","","","","","","","","","feedback_test","","","","","","","","","","","",""
"833","","j","psychophysics","75","273828","0.0-7.0-1.0-1.0-0.0-0.33","3","3","4","3","3","3","3","4","4","4","4","4","2","3","4","4","4","4","4","4","2","2","2","2","2","2","2","1","1","1","0","1","1","0","0","1","1","1","1","1","0","1","0","1","4","2","2","2","2","","3","2","2","1","2","789499511558115329","林","652","","","","nonmatch","","","","","","","","","","","","","","key","j","32.72981818181844","1280","716","f","false","match","img/pentagon.png","五边","五边","ALT1_2","prac_ALT1_2","","","","","","","","","","","",""
"null","<span style='color:red; font-size: 70px;'>错误! </span>","null","html-keyboard-response","76","274330","0.0-7.0-1.0-1.0-0.0-1.33","3","3","4","3","3","3","3","4","4","4","4","4","2","3","4","4","4","4","4","4","2","2","2","2","2","2","2","1","1","1","0","1","1","0","0","1","1","1","1","1","0","1","0","1","4","2","2","2","2","","3","2","2","1","2","789499511558115329","林","652","","","","","","","","","","","","","","","","","","","","","","","","","","","","","","feedback_test","","","","","","","","","","","",""
"897","","f","psychophysics","77","276228","0.0-7.0-1.0-1.0-0.0-0.34","3","3","4","3","3","3","3","4","4","4","4","4","2","3","4","4","4","4","4","4","2","2","2","2","2","2","2","1","1","1","0","1","1","0","0","1","1","1","1","1","0","1","0","1","4","2","2","2","2","","3","2","2","1","2","789499511558115329","林","652","","","","match","","","","","","","","","","","","","","key","f","30.604327868852483","1280","716","f","true","match","img/pentagon.png","五边","五边","ALT1_2","prac_ALT1_2","","","","","","","","","","","",""
"null","<span style='color:GreenYellow; font-size: 70px;'>正确! </span>","null","html-keyboard-response","78","276729","0.0-7.0-1.0-1.0-0.0-1.34","3","3","4","3","3","3","3","4","4","4","4","4","2","3","4","4","4","4","4","4","2","2","2","2","2","2","2","1","1","1","0","1","1","0","0","1","1","1","1","1","0","1","0","1","4","2","2","2","2","","3","2","2","1","2","789499511558115329","林","652","","","","","","","","","","","","","","","","","","","","","","","","","","","","","","feedback_test","","","","","","","","","","","",""
"690","","f","psychophysics","79","278420","0.0-7.0-1.0-1.0-0.0-0.35","3","3","4","3","3","3","3","4","4","4","4","4","2","3","4","4","4","4","4","4","2","2","2","2","2","2","2","1","1","1","0","1","1","0","0","1","1","1","1","1","0","1","0","1","4","2","2","2","2","","3","2","2","1","2","789499511558115329","林","652","","","","match","","","","","","","","","","","","","","key","f","32.68247058823495","1280","716","f","true","match","img/ellipse.png","椭圆","椭圆","ALT1_2","prac_ALT1_2","","","","","","","","","","","",""
"null","<span style='color:GreenYellow; font-size: 70px;'>正确! </span>","null","html-keyboard-response","80","278920","0.0-7.0-1.0-1.0-0.0-1.35","3","3","4","3","3","3","3","4","4","4","4","4","2","3","4","4","4","4","4","4","2","2","2","2","2","2","2","1","1","1","0","1","1","0","0","1","1","1","1","1","0","1","0","1","4","2","2","2","2","","3","2","2","1","2","789499511558115329","林","652","","","","","","","","","","","","","","","","","","","","","","","","","","","","","","feedback_test","","","","","","","","","","","",""
"762","","f","psychophysics","81","280684","0.0-7.0-1.0-1.0-0.0-0.36","3","3","4","3","3","3","3","4","4","4","4","4","2","3","4","4","4","4","4","4","2","2","2","2","2","2","2","1","1","1","0","1","1","0","0","1","1","1","1","1","0","1","0","1","4","2","2","2","2","","3","2","2","1","2","789499511558115329","林","652","","","","match","","","","","","","","","","","","","","key","f","30.953196428571705","1280","716","j","false","nonmatch","img/pentagon.png","三角","五边","ALT1_2","prac_ALT1_2","","","","","","","","","","","",""
"null","<span style='color:red; font-size: 70px;'>错误! </span>","null","html-keyboard-response","82","281186","0.0-7.0-1.0-1.0-0.0-1.36","3","3","4","3","3","3","3","4","4","4","4","4","2","3","4","4","4","4","4","4","2","2","2","2","2","2","2","1","1","1","0","1","1","0","0","1","1","1","1","1","0","1","0","1","4","2","2","2","2","","3","2","2","1","2","789499511558115329","林","652","","","","","","","","","","","","","","","","","","","","","","","","","","","","","","feedback_test","","","","","","","","","","","",""
"913","","j","psychophysics","83","283100","0.0-7.0-1.0-1.0-0.0-0.37","3","3","4","3","3","3","3","4","4","4","4","4","2","3","4","4","4","4","4","4","2","2","2","2","2","2","2","1","1","1","0","1","1","0","0","1","1","1","1","1","0","1","0","1","4","2","2","2","2","","3","2","2","1","2","789499511558115329","林","652","","","","nonmatch","","","","","","","","","","","","","","key","j","31.113433333334008","1280","716","j","true","nonmatch","img/triangle.png","椭圆","三角","ALT1_2","prac_ALT1_2","","","","","","","","","","","",""
"null","<span style='color:GreenYellow; font-size: 70px;'>正确! </span>","null","html-keyboard-response","84","283601","0.0-7.0-1.0-1.0-0.0-1.37","3","3","4","3","3","3","3","4","4","4","4","4","2","3","4","4","4","4","4","4","2","2","2","2","2","2","2","1","1","1","0","1","1","0","0","1","1","1","1","1","0","1","0","1","4","2","2","2","2","","3","2","2","1","2","789499511558115329","林","652","","","","","","","","","","","","","","","","","","","","","","","","","","","","","","feedback_test","","","","","","","","","","","",""
"914","","j","psychophysics","85","285516","0.0-7.0-1.0-1.0-0.0-0.38","3","3","4","3","3","3","3","4","4","4","4","4","2","3","4","4","4","4","4","4","2","2","2","2","2","2","2","1","1","1","0","1","1","0","0","1","1","1","1","1","0","1","0","1","4","2","2","2","2","","3","2","2","1","2","789499511558115329","林","652","","","","nonmatch","","","","","","","","","","","","","","key","j","30.87385245901628","1280","716","j","true","nonmatch","img/pentagon.png","椭圆","五边","ALT1_2","prac_ALT1_2","","","","","","","","","","","",""
"null","<span style='color:GreenYellow; font-size: 70px;'>正确! </span>","null","html-keyboard-response","86","286018","0.0-7.0-1.0-1.0-0.0-1.38","3","3","4","3","3","3","3","4","4","4","4","4","2","3","4","4","4","4","4","4","2","2","2","2","2","2","2","1","1","1","0","1","1","0","0","1","1","1","1","1","0","1","0","1","4","2","2","2","2","","3","2","2","1","2","789499511558115329","林","652","","","","","","","","","","","","","","","","","","","","","","","","","","","","","","feedback_test","","","","","","","","","","","",""
"null","","null","psychophysics","87","288225","0.0-7.0-1.0-1.0-0.0-0.39","3","3","4","3","3","3","3","4","4","4","4","4","2","3","4","4","4","4","4","4","2","2","2","2","2","2","2","1","1","1","0","1","1","0","0","1","1","1","1","1","0","1","0","1","4","2","2","2","2","","3","2","2","1","2","789499511558115329","林","652","","","","null","","","","","","","","","","","","","","key","null","31.402869565217532","1280","716","f","false","match","img/pentagon.png","五边","五边","ALT1_2","prac_ALT1_2","","","","","","","","","","","",""
"null","<span class='add_' style='color:yellow; font-size: 70px;'> 太慢! </span>","null","html-keyboard-response","88","288727","0.0-7.0-1.0-1.0-0.0-1.39","3","3","4","3","3","3","3","4","4","4","4","4","2","3","4","4","4","4","4","4","2","2","2","2","2","2","2","1","1","1","0","1","1","0","0","1","1","1","1","1","0","1","0","1","4","2","2","2","2","","3","2","2","1","2","789499511558115329","林","652","","","","","","","","","","","","","","","","","","","","","","","","","","","","","","feedback_test","","","","","","","","","","","",""
"973","","j","psychophysics","89","290700","0.0-7.0-1.0-1.0-0.0-0.40","3","3","4","3","3","3","3","4","4","4","4","4","2","3","4","4","4","4","4","4","2","2","2","2","2","2","2","1","1","1","0","1","1","0","0","1","1","1","1","1","0","1","0","1","4","2","2","2","2","","3","2","2","1","2","789499511558115329","林","652","","","","nonmatch","","","","","","","","","","","","","","key","j","30.689095238095245","1280","716","j","true","nonmatch","img/trapezoid.png","三角","梯形","ALT1_2","prac_ALT1_2","","","","","","","","","","","",""
"null","<span style='color:GreenYellow; font-size: 70px;'>正确! </span>","null","html-keyboard-response","90","291202","0.0-7.0-1.0-1.0-0.0-1.40","3","3","4","3","3","3","3","4","4","4","4","4","2","3","4","4","4","4","4","4","2","2","2","2","2","2","2","1","1","1","0","1","1","0","0","1","1","1","1","1","0","1","0","1","4","2","2","2","2","","3","2","2","1","2","789499511558115329","林","652","","","","","","","","","","","","","","","","","","","","","","","","","","","","","","feedback_test","","","","","","","","","","","",""
"881","","j","psychophysics","91","293083","0.0-7.0-1.0-1.0-0.0-0.41","3","3","4","3","3","3","3","4","4","4","4","4","2","3","4","4","4","4","4","4","2","2","2","2","2","2","2","1","1","1","0","1","1","0","0","1","1","1","1","1","0","1","0","1","4","2","2","2","2","","3","2","2","1","2","789499511558115329","林","652","","","","nonmatch","","","","","","","","","","","","","","key","j","30.834266666667343","1280","716","j","true","nonmatch","img/trapezoid.png","椭圆","梯形","ALT1_2","prac_ALT1_2","","","","","","","","","","","",""
"null","<span style='color:GreenYellow; font-size: 70px;'>正确! </span>","null","html-keyboard-response","92","293584","0.0-7.0-1.0-1.0-0.0-1.41","3","3","4","3","3","3","3","4","4","4","4","4","2","3","4","4","4","4","4","4","2","2","2","2","2","2","2","1","1","1","0","1","1","0","0","1","1","1","1","1","0","1","0","1","4","2","2","2","2","","3","2","2","1","2","789499511558115329","林","652","","","","","","","","","","","","","","","","","","","","","","","","","","","","","","feedback_test","","","","","","","","","","","",""
"938","","j","psychophysics","93","295523","0.0-7.0-1.0-1.0-0.0-0.42","3","3","4","3","3","3","3","4","4","4","4","4","2","3","4","4","4","4","4","4","2","2","2","2","2","2","2","1","1","1","0","1","1","0","0","1","1","1","1","1","0","1","0","1","4","2","2","2","2","","3","2","2","1","2","789499511558115329","林","652","","","","nonmatch","","","","","","","","","","","","","","key","j","31.147065573770814","1280","716","j","true","nonmatch","img/triangle.png","五边","三角","ALT1_2","prac_ALT1_2","","","","","","","","","","","",""
"null","<span style='color:GreenYellow; font-size: 70px;'>正确! </span>","null","html-keyboard-response","94","296024","0.0-7.0-1.0-1.0-0.0-1.42","3","3","4","3","3","3","3","4","4","4","4","4","2","3","4","4","4","4","4","4","2","2","2","2","2","2","2","1","1","1","0","1","1","0","0","1","1","1","1","1","0","1","0","1","4","2","2","2","2","","3","2","2","1","2","789499511558115329","林","652","","","","","","","","","","","","","","","","","","","","","","","","","","","","","","feedback_test","","","","","","","","","","","",""
"1051","","j","psychophysics","95","298075","0.0-7.0-1.0-1.0-0.0-0.43","3","3","4","3","3","3","3","4","4","4","4","4","2","3","4","4","4","4","4","4","2","2","2","2","2","2","2","1","1","1","0","1","1","0","0","1","1","1","1","1","0","1","0","1","4","2","2","2","2","","3","2","2","1","2","789499511558115329","林","652","","","","nonmatch","","","","","","","","","","","","","","key","j","31.282861538461518","1280","716","j","true","nonmatch","img/triangle.png","梯形","三角","ALT1_2","prac_ALT1_2","","","","","","","","","","","",""
"null","<span style='color:GreenYellow; font-size: 70px;'>正确! </span>","null","html-keyboard-response","96","298576","0.0-7.0-1.0-1.0-0.0-1.43","3","3","4","3","3","3","3","4","4","4","4","4","2","3","4","4","4","4","4","4","2","2","2","2","2","2","2","1","1","1","0","1","1","0","0","1","1","1","1","1","0","1","0","1","4","2","2","2","2","","3","2","2","1","2","789499511558115329","林","652","","","","","","","","","","","","","","","","","","","","","","","","","","","","","","feedback_test","","","","","","","","","","","",""
"1010","","f","psychophysics","97","300587","0.0-7.0-1.0-1.0-0.0-0.44","3","3","4","3","3","3","3","4","4","4","4","4","2","3","4","4","4","4","4","4","2","2","2","2","2","2","2","1","1","1","0","1","1","0","0","1","1","1","1","1","0","1","0","1","4","2","2","2","2","","3","2","2","1","2","789499511558115329","林","652","","","","match","","","","","","","","","","","","","","key","f","30.51410769230704","1280","716","j","false","nonmatch","img/pentagon.png","梯形","五边","ALT1_2","prac_ALT1_2","","","","","","","","","","","",""
"null","<span style='color:red; font-size: 70px;'>错误! </span>","null","html-keyboard-response","98","301088","0.0-7.0-1.0-1.0-0.0-1.44","3","3","4","3","3","3","3","4","4","4","4","4","2","3","4","4","4","4","4","4","2","2","2","2","2","2","2","1","1","1","0","1","1","0","0","1","1","1","1","1","0","1","0","1","4","2","2","2","2","","3","2","2","1","2","789499511558115329","林","652","","","","","","","","","","","","","","","","","","","","","","","","","","","","","","feedback_test","","","","","","","","","","","",""
"818","","f","psychophysics","99","302908","0.0-7.0-1.0-1.0-0.0-0.45","3","3","4","3","3","3","3","4","4","4","4","4","2","3","4","4","4","4","4","4","2","2","2","2","2","2","2","1","1","1","0","1","1","0","0","1","1","1","1","1","0","1","0","1","4","2","2","2","2","","3","2","2","1","2","789499511558115329","林","652","","","","match","","","","","","","","","","","","","","key","f","30.99319298245552","1280","716","f","true","match","img/triangle.png","三角","三角","ALT1_2","prac_ALT1_2","","","","","","","","","","","",""
"null","<span style='color:GreenYellow; font-size: 70px;'>正确! </span>","null","html-keyboard-response","100","303409","0.0-7.0-1.0-1.0-0.0-1.45","3","3","4","3","3","3","3","4","4","4","4","4","2","3","4","4","4","4","4","4","2","2","2","2","2","2","2","1","1","1","0","1","1","0","0","1","1","1","1","1","0","1","0","1","4","2","2","2","2","","3","2","2","1","2","789499511558115329","林","652","","","","","","","","","","","","","","","","","","","","","","","","","","","","","","feedback_test","","","","","","","","","","","",""
"785","","f","psychophysics","101","305196","0.0-7.0-1.0-1.0-0.0-0.46","3","3","4","3","3","3","3","4","4","4","4","4","2","3","4","4","4","4","4","4","2","2","2","2","2","2","2","1","1","1","0","1","1","0","0","1","1","1","1","1","0","1","0","1","4","2","2","2","2","","3","2","2","1","2","789499511558115329","林","652","","","","match","","","","","","","","","","","","","","key","f","30.174620689655622","1280","716","f","true","match","img/triangle.png","三角","三角","ALT1_2","prac_ALT1_2","","","","","","","","","","","",""
"null","<span style='color:GreenYellow; font-size: 70px;'>正确! </span>","null","html-keyboard-response","102","305697","0.0-7.0-1.0-1.0-0.0-1.46","3","3","4","3","3","3","3","4","4","4","4","4","2","3","4","4","4","4","4","4","2","2","2","2","2","2","2","1","1","1","0","1","1","0","0","1","1","1","1","1","0","1","0","1","4","2","2","2","2","","3","2","2","1","2","789499511558115329","林","652","","","","","","","","","","","","","","","","","","","","","","","","","","","","","","feedback_test","","","","","","","","","","","",""
"752","","j","psychophysics","103","307451","0.0-7.0-1.0-1.0-0.0-0.47","3","3","4","3","3","3","3","4","4","4","4","4","2","3","4","4","4","4","4","4","2","2","2","2","2","2","2","1","1","1","0","1","1","0","0","1","1","1","1","1","0","1","0","1","4","2","2","2","2","","3","2","2","1","2","789499511558115329","林","652","","","","nonmatch","","","","","","","","","","","","","","key","j","30.094999999999633","1280","716","j","true","nonmatch","img/ellipse.png","梯形","椭圆","ALT1_2","prac_ALT1_2","","","","","","","","","","","",""
"null","<span style='color:GreenYellow; font-size: 70px;'>正确! </span>","null","html-keyboard-response","104","307953","0.0-7.0-1.0-1.0-0.0-1.47","3","3","4","3","3","3","3","4","4","4","4","4","2","3","4","4","4","4","4","4","2","2","2","2","2","2","2","1","1","1","0","1","1","0","0","1","1","1","1","1","0","1","0","1","4","2","2","2","2","","3","2","2","1","2","789499511558115329","林","652","","","","","","","","","","","","","","","","","","","","","","","","","","","","","","feedback_test","","","","","","","","","","","",""
"85793","<style>.context{color:white; font-size: 35px; line-height:40px}</style>                          <div><p class='context'>您正确回答了73% 的试次。</p><p class='context'>您的平均反应时为907毫秒。</p><p class='context'>恭喜您完成练习。按空格键进入正式实验。</p><p class='footer' style='font-size: 35px; line-height:40px;'>请在进入正式实验实验之前将您的<span style='color: lightgreen;'>食指</span>放在电脑键盘的相应键位上进行按键。</p>","enter","html-keyboard-response","105","393748","0.0-7.0-1.0-2.0","3","3","4","3","3","3","3","4","4","4","4","4","2","3","4","4","4","4","4","4","2","2","2","2","2","2","2","1","1","1","0","1","1","0","0","1","1","1","1","1","0","1","0","1","4","2","2","2","2","","3","2","2","1","2","789499511558115329","林","652","","","","","","","","","","","","","","","","","","","","","","","","","","","","","","","","","","","","","","","","","",""
"4222","
  <p style='color: white; font-size: 22px'>请您将手指放在按键上，准备进入正式的匹配任务。</p>
  <p> <div style = ""color: green""><按空格键进入下一阶段的匹配任务></div></p>
  "," ","html-keyboard-response","106","397973","0.0-7.0-1.0-3.0","3","3","4","3","3","3","3","4","4","4","4","4","2","3","4","4","4","4","4","4","2","2","2","2","2","2","2","1","1","1","0","1","1","0","0","1","1","1","1","1","0","1","0","1","4","2","2","2","2","","3","2","2","1","2","789499511558115329","林","652","","","","","","","","","","","","","","","","","","","","","","","","","","","","","","","","","","","","","","","","","",""
"862","","j","psychophysics","107","399835","0.0-7.0-1.0-4.0-0.0-0.0","3","3","4","3","3","3","3","4","4","4","4","4","2","3","4","4","4","4","4","4","2","2","2","2","2","2","2","1","1","1","0","1","1","0","0","1","1","1","1","1","0","1","0","1","4","2","2","2","2","","3","2","2","1","2","789499511558115329","林","652","","","","nonmatch","","","","","","","","","","","","","","key","j","30.789966101695043","1280","716","f","false","match","img/pentagon.png","五边","五边","ALT1","formal_ALT1_2","","","","","","","","","","","",""
"null","<span style='color:red; font-size: 70px;'>错误! </span>","null","html-keyboard-response","108","400338","0.0-7.0-1.0-4.0-0.0-1.0","3","3","4","3","3","3","3","4","4","4","4","4","2","3","4","4","4","4","4","4","2","2","2","2","2","2","2","1","1","1","0","1","1","0","0","1","1","1","1","1","0","1","0","1","4","2","2","2","2","","3","2","2","1","2","789499511558115329","林","652","","","","","","","","","","","","","","","","","","","","","","","","","","","","","","feedback_test","","","","","","","","","","","",""
"703","","f","psychophysics","109","402044","0.0-7.0-1.0-4.0-0.0-0.1","3","3","4","3","3","3","3","4","4","4","4","4","2","3","4","4","4","4","4","4","2","2","2","2","2","2","2","1","1","1","0","1","1","0","0","1","1","1","1","1","0","1","0","1","4","2","2","2","2","","3","2","2","1","2","789499511558115329","林","652","","","","match","","","","","","","","","","","","","","key","f","30.605727272727314","1280","716","j","false","nonmatch","img/ellipse.png","梯形","椭圆","ALT1","formal_ALT1_2","","","","","","","","","","","",""
"null","<span style='color:red; font-size: 70px;'>错误! </span>","null","html-keyboard-response","110","402544","0.0-7.0-1.0-4.0-0.0-1.1","3","3","4","3","3","3","3","4","4","4","4","4","2","3","4","4","4","4","4","4","2","2","2","2","2","2","2","1","1","1","0","1","1","0","0","1","1","1","1","1","0","1","0","1","4","2","2","2","2","","3","2","2","1","2","789499511558115329","林","652","","","","","","","","","","","","","","","","","","","","","","","","","","","","","","feedback_test","","","","","","","","","","","",""
"1154","","f","psychophysics","111","404700","0.0-7.0-1.0-4.0-0.0-0.2","3","3","4","3","3","3","3","4","4","4","4","4","2","3","4","4","4","4","4","4","2","2","2","2","2","2","2","1","1","1","0","1","1","0","0","1","1","1","1","1","0","1","0","1","4","2","2","2","2","","3","2","2","1","2","789499511558115329","林","652","","","","match","","","","","","","","","","","","","","key","f","30.676405797101747","1280","716","j","false","nonmatch","img/trapezoid.png","五边","梯形","ALT1","formal_ALT1_2","","","","","","","","","","","",""
"null","<span style='color:red; font-size: 70px;'>错误! </span>","null","html-keyboard-response","112","405202","0.0-7.0-1.0-4.0-0.0-1.2","3","3","4","3","3","3","3","4","4","4","4","4","2","3","4","4","4","4","4","4","2","2","2","2","2","2","2","1","1","1","0","1","1","0","0","1","1","1","1","1","0","1","0","1","4","2","2","2","2","","3","2","2","1","2","789499511558115329","林","652","","","","","","","","","","","","","","","","","","","","","","","","","","","","","","feedback_test","","","","","","","","","","","",""
"818","","f","psychophysics","113","407021","0.0-7.0-1.0-4.0-0.0-0.3","3","3","4","3","3","3","3","4","4","4","4","4","2","3","4","4","4","4","4","4","2","2","2","2","2","2","2","1","1","1","0","1","1","0","0","1","1","1","1","1","0","1","0","1","4","2","2","2","2","","3","2","2","1","2","789499511558115329","林","652","","","","match","","","","","","","","","","","","","","key","f","30.7458103448283","1280","716","f","true","match","img/trapezoid.png","梯形","梯形","ALT1","formal_ALT1_2","","","","","","","","","","","",""
"null","<span style='color:GreenYellow; font-size: 70px;'>正确! </span>","null","html-keyboard-response","114","407521","0.0-7.0-1.0-4.0-0.0-1.3","3","3","4","3","3","3","3","4","4","4","4","4","2","3","4","4","4","4","4","4","2","2","2","2","2","2","2","1","1","1","0","1","1","0","0","1","1","1","1","1","0","1","0","1","4","2","2","2","2","","3","2","2","1","2","789499511558115329","林","652","","","","","","","","","","","","","","","","","","","","","","","","","","","","","","feedback_test","","","","","","","","","","","",""
"953","","j","psychophysics","115","409476","0.0-7.0-1.0-4.0-0.0-0.4","3","3","4","3","3","3","3","4","4","4","4","4","2","3","4","4","4","4","4","4","2","2","2","2","2","2","2","1","1","1","0","1","1","0","0","1","1","1","1","1","0","1","0","1","4","2","2","2","2","","3","2","2","1","2","789499511558115329","林","652","","","","nonmatch","","","","","","","","","","","","","","key","j","31.184516129032296","1280","716","j","true","nonmatch","img/triangle.png","梯形","三角","ALT1","formal_ALT1_2","","","","","","","","","","","",""
"null","<span style='color:GreenYellow; font-size: 70px;'>正确! </span>","null","html-keyboard-response","116","409977","0.0-7.0-1.0-4.0-0.0-1.4","3","3","4","3","3","3","3","4","4","4","4","4","2","3","4","4","4","4","4","4","2","2","2","2","2","2","2","1","1","1","0","1","1","0","0","1","1","1","1","1","0","1","0","1","4","2","2","2","2","","3","2","2","1","2","789499511558115329","林","652","","","","","","","","","","","","","","","","","","","","","","","","","","","","","","feedback_test","","","","","","","","","","","",""
"777","","f","psychophysics","117","411755","0.0-7.0-1.0-4.0-0.0-0.5","3","3","4","3","3","3","3","4","4","4","4","4","2","3","4","4","4","4","4","4","2","2","2","2","2","2","2","1","1","1","0","1","1","0","0","1","1","1","1","1","0","1","0","1","4","2","2","2","2","","3","2","2","1","2","789499511558115329","林","652","","","","match","","","","","","","","","","","","","","key","f","30.17224137931119","1280","716","f","true","match","img/ellipse.png","椭圆","椭圆","ALT1","formal_ALT1_2","","","","","","","","","","","",""
"null","<span style='color:GreenYellow; font-size: 70px;'>正确! </span>","null","html-keyboard-response","118","412257","0.0-7.0-1.0-4.0-0.0-1.5","3","3","4","3","3","3","3","4","4","4","4","4","2","3","4","4","4","4","4","4","2","2","2","2","2","2","2","1","1","1","0","1","1","0","0","1","1","1","1","1","0","1","0","1","4","2","2","2","2","","3","2","2","1","2","789499511558115329","林","652","","","","","","","","","","","","","","","","","","","","","","","","","","","","","","feedback_test","","","","","","","","","","","",""
"1074","","f","psychophysics","119","414332","0.0-7.0-1.0-4.0-0.0-0.6","3","3","4","3","3","3","3","4","4","4","4","4","2","3","4","4","4","4","4","4","2","2","2","2","2","2","2","1","1","1","0","1","1","0","0","1","1","1","1","1","0","1","0","1","4","2","2","2","2","","3","2","2","1","2","789499511558115329","林","652","","","","match","","","","","","","","","","","","","","key","f","31.28144615384607","1280","716","j","false","nonmatch","img/trapezoid.png","椭圆","梯形","ALT1","formal_ALT1_2","","","","","","","","","","","",""
"null","<span style='color:red; font-size: 70px;'>错误! </span>","null","html-keyboard-response","120","414833","0.0-7.0-1.0-4.0-0.0-1.6","3","3","4","3","3","3","3","4","4","4","4","4","2","3","4","4","4","4","4","4","2","2","2","2","2","2","2","1","1","1","0","1","1","0","0","1","1","1","1","1","0","1","0","1","4","2","2","2","2","","3","2","2","1","2","789499511558115329","林","652","","","","","","","","","","","","","","","","","","","","","","","","","","","","","","feedback_test","","","","","","","","","","","",""
"994","","j","psychophysics","121","416828","0.0-7.0-1.0-4.0-0.0-0.7","3","3","4","3","3","3","3","4","4","4","4","4","2","3","4","4","4","4","4","4","2","2","2","2","2","2","2","1","1","1","0","1","1","0","0","1","1","1","1","1","0","1","0","1","4","2","2","2","2","","3","2","2","1","2","789499511558115329","林","652","","","","nonmatch","","","","","","","","","","","","","","key","j","30.953873015873665","1280","716","j","true","nonmatch","img/pentagon.png","椭圆","五边","ALT1","formal_ALT1_2","","","","","","","","","","","",""
"null","<span style='color:GreenYellow; font-size: 70px;'>正确! </span>","null","html-keyboard-response","122","417329","0.0-7.0-1.0-4.0-0.0-1.7","3","3","4","3","3","3","3","4","4","4","4","4","2","3","4","4","4","4","4","4","2","2","2","2","2","2","2","1","1","1","0","1","1","0","0","1","1","1","1","1","0","1","0","1","4","2","2","2","2","","3","2","2","1","2","789499511558115329","林","652","","","","","","","","","","","","","","","","","","","","","","","","","","","","","","feedback_test","","","","","","","","","","","",""
"970","","j","psychophysics","123","419300","0.0-7.0-1.0-4.0-0.0-0.8","3","3","4","3","3","3","3","4","4","4","4","4","2","3","4","4","4","4","4","4","2","2","2","2","2","2","2","1","1","1","0","1","1","0","0","1","1","1","1","1","0","1","0","1","4","2","2","2","2","","3","2","2","1","2","789499511558115329","林","652","","","","nonmatch","","","","","","","","","","","","","","key","j","30.688253968253747","1280","716","j","true","nonmatch","img/ellipse.png","三角","椭圆","ALT1","formal_ALT1_2","","","","","","","","","","","",""
"null","<span style='color:GreenYellow; font-size: 70px;'>正确! </span>","null","html-keyboard-response","124","419801","0.0-7.0-1.0-4.0-0.0-1.8","3","3","4","3","3","3","3","4","4","4","4","4","2","3","4","4","4","4","4","4","2","2","2","2","2","2","2","1","1","1","0","1","1","0","0","1","1","1","1","1","0","1","0","1","4","2","2","2","2","","3","2","2","1","2","789499511558115329","林","652","","","","","","","","","","","","","","","","","","","","","","","","","","","","","","feedback_test","","","","","","","","","","","",""
"1146","","f","psychophysics","125","421948","0.0-7.0-1.0-4.0-0.0-0.9","3","3","4","3","3","3","3","4","4","4","4","4","2","3","4","4","4","4","4","4","2","2","2","2","2","2","2","1","1","1","0","1","1","0","0","1","1","1","1","1","0","1","0","1","4","2","2","2","2","","3","2","2","1","2","789499511558115329","林","652","","","","match","","","","","","","","","","","","","","key","f","31.126617647059476","1280","716","f","true","match","img/pentagon.png","五边","五边","ALT1","formal_ALT1_2","","","","","","","","","","","",""
"null","<span style='color:GreenYellow; font-size: 70px;'>正确! </span>","null","html-keyboard-response","126","422450","0.0-7.0-1.0-4.0-0.0-1.9","3","3","4","3","3","3","3","4","4","4","4","4","2","3","4","4","4","4","4","4","2","2","2","2","2","2","2","1","1","1","0","1","1","0","0","1","1","1","1","1","0","1","0","1","4","2","2","2","2","","3","2","2","1","2","789499511558115329","林","652","","","","","","","","","","","","","","","","","","","","","","","","","","","","","","feedback_test","","","","","","","","","","","",""
"1000","","f","psychophysics","127","424451","0.0-7.0-1.0-4.0-0.0-0.10","3","3","4","3","3","3","3","4","4","4","4","4","2","3","4","4","4","4","4","4","2","2","2","2","2","2","2","1","1","1","0","1","1","0","0","1","1","1","1","1","0","1","0","1","4","2","2","2","2","","3","2","2","1","2","789499511558115329","林","652","","","","match","","","","","","","","","","","","","","key","f","30.72948437499963","1280","716","j","false","nonmatch","img/pentagon.png","梯形","五边","ALT1","formal_ALT1_2","","","","","","","","","","","",""
"null","<span style='color:red; font-size: 70px;'>错误! </span>","null","html-keyboard-response","128","424952","0.0-7.0-1.0-4.0-0.0-1.10","3","3","4","3","3","3","3","4","4","4","4","4","2","3","4","4","4","4","4","4","2","2","2","2","2","2","2","1","1","1","0","1","1","0","0","1","1","1","1","1","0","1","0","1","4","2","2","2","2","","3","2","2","1","2","789499511558115329","林","652","","","","","","","","","","","","","","","","","","","","","","","","","","","","","","feedback_test","","","","","","","","","","","",""
"1042","","j","psychophysics","129","426995","0.0-7.0-1.0-4.0-0.0-0.11","3","3","4","3","3","3","3","4","4","4","4","4","2","3","4","4","4","4","4","4","2","2","2","2","2","2","2","1","1","1","0","1","1","0","0","1","1","1","1","1","0","1","0","1","4","2","2","2","2","","3","2","2","1","2","789499511558115329","林","652","","","","nonmatch","","","","","","","","","","","","","","key","j","31.24981250000019","1280","716","j","true","nonmatch","img/trapezoid.png","三角","梯形","ALT1","formal_ALT1_2","","","","","","","","","","","",""
"null","<span style='color:GreenYellow; font-size: 70px;'>正确! </span>","null","html-keyboard-response","130","427496","0.0-7.0-1.0-4.0-0.0-1.11","3","3","4","3","3","3","3","4","4","4","4","4","2","3","4","4","4","4","4","4","2","2","2","2","2","2","2","1","1","1","0","1","1","0","0","1","1","1","1","1","0","1","0","1","4","2","2","2","2","","3","2","2","1","2","789499511558115329","林","652","","","","","","","","","","","","","","","","","","","","","","","","","","","","","","feedback_test","","","","","","","","","","","",""
"969","","j","psychophysics","131","429467","0.0-7.0-1.0-4.0-0.0-0.12","3","3","4","3","3","3","3","4","4","4","4","4","2","3","4","4","4","4","4","4","2","2","2","2","2","2","2","1","1","1","0","1","1","0","0","1","1","1","1","1","0","1","0","1","4","2","2","2","2","","3","2","2","1","2","789499511558115329","林","652","","","","nonmatch","","","","","","","","","","","","","","key","j","30.689793650794492","1280","716","j","true","nonmatch","img/ellipse.png","五边","椭圆","ALT1","formal_ALT1_2","","","","","","","","","","","",""
"null","<span style='color:GreenYellow; font-size: 70px;'>正确! </span>","null","html-keyboard-response","132","429968","0.0-7.0-1.0-4.0-0.0-1.12","3","3","4","3","3","3","3","4","4","4","4","4","2","3","4","4","4","4","4","4","2","2","2","2","2","2","2","1","1","1","0","1","1","0","0","1","1","1","1","1","0","1","0","1","4","2","2","2","2","","3","2","2","1","2","789499511558115329","林","652","","","","","","","","","","","","","","","","","","","","","","","","","","","","","","feedback_test","","","","","","","","","","","",""
"738","","f","psychophysics","133","431707","0.0-7.0-1.0-4.0-0.0-0.13","3","3","4","3","3","3","3","4","4","4","4","4","2","3","4","4","4","4","4","4","2","2","2","2","2","2","2","1","1","1","0","1","1","0","0","1","1","1","1","1","0","1","0","1","4","2","2","2","2","","3","2","2","1","2","789499511558115329","林","652","","","","match","","","","","","","","","","","","","","key","f","30.9106181818177","1280","716","f","true","match","img/triangle.png","三角","三角","ALT1","formal_ALT1_2","","","","","","","","","","","",""
"null","<span style='color:GreenYellow; font-size: 70px;'>正确! </span>","null","html-keyboard-response","134","432208","0.0-7.0-1.0-4.0-0.0-1.13","3","3","4","3","3","3","3","4","4","4","4","4","2","3","4","4","4","4","4","4","2","2","2","2","2","2","2","1","1","1","0","1","1","0","0","1","1","1","1","1","0","1","0","1","4","2","2","2","2","","3","2","2","1","2","789499511558115329","林","652","","","","","","","","","","","","","","","","","","","","","","","","","","","","","","feedback_test","","","","","","","","","","","",""
"714","","f","psychophysics","135","433923","0.0-7.0-1.0-4.0-0.0-0.14","3","3","4","3","3","3","3","4","4","4","4","4","2","3","4","4","4","4","4","4","2","2","2","2","2","2","2","1","1","1","0","1","1","0","0","1","1","1","1","1","0","1","0","1","4","2","2","2","2","","3","2","2","1","2","789499511558115329","林","652","","","","match","","","","","","","","","","","","","","key","f","30.60485454545441","1280","716","f","true","match","img/triangle.png","三角","三角","ALT1","formal_ALT1_2","","","","","","","","","","","",""
"null","<span style='color:GreenYellow; font-size: 70px;'>正确! </span>","null","html-keyboard-response","136","434424","0.0-7.0-1.0-4.0-0.0-1.14","3","3","4","3","3","3","3","4","4","4","4","4","2","3","4","4","4","4","4","4","2","2","2","2","2","2","2","1","1","1","0","1","1","0","0","1","1","1","1","1","0","1","0","1","4","2","2","2","2","","3","2","2","1","2","789499511558115329","林","652","","","","","","","","","","","","","","","","","","","","","","","","","","","","","","feedback_test","","","","","","","","","","","",""
"802","","j","psychophysics","137","436228","0.0-7.0-1.0-4.0-0.0-0.15","3","3","4","3","3","3","3","4","4","4","4","4","2","3","4","4","4","4","4","4","2","2","2","2","2","2","2","1","1","1","0","1","1","0","0","1","1","1","1","1","0","1","0","1","4","2","2","2","2","","3","2","2","1","2","789499511558115329","林","652","","","","nonmatch","","","","","","","","","","","","","","key","j","30.99499999999943","1280","716","j","true","nonmatch","img/triangle.png","五边","三角","ALT1","formal_ALT1_2","","","","","","","","","","","",""
"null","<span style='color:GreenYellow; font-size: 70px;'>正确! </span>","null","html-keyboard-response","138","436730","0.0-7.0-1.0-4.0-0.0-1.15","3","3","4","3","3","3","3","4","4","4","4","4","2","3","4","4","4","4","4","4","2","2","2","2","2","2","2","1","1","1","0","1","1","0","0","1","1","1","1","1","0","1","0","1","4","2","2","2","2","","3","2","2","1","2","789499511558115329","林","652","","","","","","","","","","","","","","","","","","","","","","","","","","","","","","feedback_test","","","","","","","","","","","",""
"904","","j","psychophysics","139","438636","0.0-7.0-1.0-4.0-0.0-0.16","3","3","4","3","3","3","3","4","4","4","4","4","2","3","4","4","4","4","4","4","2","2","2","2","2","2","2","1","1","1","0","1","1","0","0","1","1","1","1","1","0","1","0","1","4","2","2","2","2","","3","2","2","1","2","789499511558115329","林","652","","","","nonmatch","","","","","","","","","","","","","","key","j","32.75848275862116","1280","716","j","true","nonmatch","img/triangle.png","椭圆","三角","ALT1","formal_ALT1_2","","","","","","","","","","","",""
"null","<span style='color:GreenYellow; font-size: 70px;'>正确! </span>","null","html-keyboard-response","140","439137","0.0-7.0-1.0-4.0-0.0-1.16","3","3","4","3","3","3","3","4","4","4","4","4","2","3","4","4","4","4","4","4","2","2","2","2","2","2","2","1","1","1","0","1","1","0","0","1","1","1","1","1","0","1","0","1","4","2","2","2","2","","3","2","2","1","2","789499511558115329","林","652","","","","","","","","","","","","","","","","","","","","","","","","","","","","","","feedback_test","","","","","","","","","","","",""
"737","","f","psychophysics","141","440875","0.0-7.0-1.0-4.0-0.0-0.17","3","3","4","3","3","3","3","4","4","4","4","4","2","3","4","4","4","4","4","4","2","2","2","2","2","2","2","1","1","1","0","1","1","0","0","1","1","1","1","1","0","1","0","1","4","2","2","2","2","","3","2","2","1","2","789499511558115329","林","652","","","","match","","","","","","","","","","","","","","key","f","30.119105263158737","1280","716","f","true","match","img/ellipse.png","椭圆","椭圆","ALT1","formal_ALT1_2","","","","","","","","","","","",""
"null","<span style='color:GreenYellow; font-size: 70px;'>正确! </span>","null","html-keyboard-response","142","441376","0.0-7.0-1.0-4.0-0.0-1.17","3","3","4","3","3","3","3","4","4","4","4","4","2","3","4","4","4","4","4","4","2","2","2","2","2","2","2","1","1","1","0","1","1","0","0","1","1","1","1","1","0","1","0","1","4","2","2","2","2","","3","2","2","1","2","789499511558115329","林","652","","","","","","","","","","","","","","","","","","","","","","","","","","","","","","feedback_test","","","","","","","","","","","",""
"849","","f","psychophysics","143","443227","0.0-7.0-1.0-4.0-0.0-0.18","3","3","4","3","3","3","3","4","4","4","4","4","2","3","4","4","4","4","4","4","2","2","2","2","2","2","2","1","1","1","0","1","1","0","0","1","1","1","1","1","0","1","0","1","4","2","2","2","2","","3","2","2","1","2","789499511558115329","林","652","","","","match","","","","","","","","","","","","","","key","f","30.279566666667233","1280","716","f","true","match","img/ellipse.png","椭圆","椭圆","ALT1","formal_ALT1_2","","","","","","","","","","","",""
"null","<span style='color:GreenYellow; font-size: 70px;'>正确! </span>","null","html-keyboard-response","144","443729","0.0-7.0-1.0-4.0-0.0-1.18","3","3","4","3","3","3","3","4","4","4","4","4","2","3","4","4","4","4","4","4","2","2","2","2","2","2","2","1","1","1","0","1","1","0","0","1","1","1","1","1","0","1","0","1","4","2","2","2","2","","3","2","2","1","2","789499511558115329","林","652","","","","","","","","","","","","","","","","","","","","","","","","","","","","","","feedback_test","","","","","","","","","","","",""
"1049","","j","psychophysics","145","445780","0.0-7.0-1.0-4.0-0.0-0.19","3","3","4","3","3","3","3","4","4","4","4","4","2","3","4","4","4","4","4","4","2","2","2","2","2","2","2","1","1","1","0","1","1","0","0","1","1","1","1","1","0","1","0","1","4","2","2","2","2","","3","2","2","1","2","789499511558115329","林","652","","","","nonmatch","","","","","","","","","","","","","","key","j","30.80878787878795","1280","716","f","false","match","img/pentagon.png","五边","五边","ALT1","formal_ALT1_2","","","","","","","","","","","",""
"null","<span style='color:red; font-size: 70px;'>错误! </span>","null","html-keyboard-response","146","446281","0.0-7.0-1.0-4.0-0.0-1.19","3","3","4","3","3","3","3","4","4","4","4","4","2","3","4","4","4","4","4","4","2","2","2","2","2","2","2","1","1","1","0","1","1","0","0","1","1","1","1","1","0","1","0","1","4","2","2","2","2","","3","2","2","1","2","789499511558115329","林","652","","","","","","","","","","","","","","","","","","","","","","","","","","","","","","feedback_test","","","","","","","","","","","",""
"993","","f","psychophysics","147","448276","0.0-7.0-1.0-4.0-0.0-0.20","3","3","4","3","3","3","3","4","4","4","4","4","2","3","4","4","4","4","4","4","2","2","2","2","2","2","2","1","1","1","0","1","1","0","0","1","1","1","1","1","0","1","0","1","4","2","2","2","2","","3","2","2","1","2","789499511558115329","林","652","","","","match","","","","","","","","","","","","","","key","f","30.469093749999956","1280","716","f","true","match","img/trapezoid.png","梯形","梯形","ALT1","formal_ALT1_2","","","","","","","","","","","",""
"null","<span style='color:GreenYellow; font-size: 70px;'>正确! </span>","null","html-keyboard-response","148","448777","0.0-7.0-1.0-4.0-0.0-1.20","3","3","4","3","3","3","3","4","4","4","4","4","2","3","4","4","4","4","4","4","2","2","2","2","2","2","2","1","1","1","0","1","1","0","0","1","1","1","1","1","0","1","0","1","4","2","2","2","2","","3","2","2","1","2","789499511558115329","林","652","","","","","","","","","","","","","","","","","","","","","","","","","","","","","","feedback_test","","","","","","","","","","","",""
"977","","j","psychophysics","149","450756","0.0-7.0-1.0-4.0-0.0-0.21","3","3","4","3","3","3","3","4","4","4","4","4","2","3","4","4","4","4","4","4","2","2","2","2","2","2","2","1","1","1","0","1","1","0","0","1","1","1","1","1","0","1","0","1","4","2","2","2","2","","3","2","2","1","2","789499511558115329","林","652","","","","nonmatch","","","","","","","","","","","","","","key","j","30.469890624999607","1280","716","j","true","nonmatch","img/pentagon.png","三角","五边","ALT1","formal_ALT1_2","","","","","","","","","","","",""
"null","<span style='color:GreenYellow; font-size: 70px;'>正确! </span>","null","html-keyboard-response","150","451256","0.0-7.0-1.0-4.0-0.0-1.21","3","3","4","3","3","3","3","4","4","4","4","4","2","3","4","4","4","4","4","4","2","2","2","2","2","2","2","1","1","1","0","1","1","0","0","1","1","1","1","1","0","1","0","1","4","2","2","2","2","","3","2","2","1","2","789499511558115329","林","652","","","","","","","","","","","","","","","","","","","","","","","","","","","","","","feedback_test","","","","","","","","","","","",""
"930","","f","psychophysics","151","453188","0.0-7.0-1.0-4.0-0.0-0.22","3","3","4","3","3","3","3","4","4","4","4","4","2","3","4","4","4","4","4","4","2","2","2","2","2","2","2","1","1","1","0","1","1","0","0","1","1","1","1","1","0","1","0","1","4","2","2","2","2","","3","2","2","1","2","789499511558115329","林","652","","","","match","","","","","","","","","","","","","","key","f","31.147901639344216","1280","716","f","true","match","img/trapezoid.png","梯形","梯形","ALT1","formal_ALT1_2","","","","","","","","","","","",""
"null","<span style='color:GreenYellow; font-size: 70px;'>正确! </span>","null","html-keyboard-response","152","453688","0.0-7.0-1.0-4.0-0.0-1.22","3","3","4","3","3","3","3","4","4","4","4","4","2","3","4","4","4","4","4","4","2","2","2","2","2","2","2","1","1","1","0","1","1","0","0","1","1","1","1","1","0","1","0","1","4","2","2","2","2","","3","2","2","1","2","789499511558115329","林","652","","","","","","","","","","","","","","","","","","","","","","","","","","","","","","feedback_test","","","","","","","","","","","",""
"674","","f","psychophysics","153","455364","0.0-7.0-1.0-4.0-0.0-0.23","3","3","4","3","3","3","3","4","4","4","4","4","2","3","4","4","4","4","4","4","2","2","2","2","2","2","2","1","1","1","0","1","1","0","0","1","1","1","1","1","0","1","0","1","4","2","2","2","2","","3","2","2","1","2","789499511558115329","林","652","","","","match","","","","","","","","","","","","","","key","f","30.818283018868037","1280","716","f","true","match","img/triangle.png","三角","三角","ALT1","formal_ALT1_2","","","","","","","","","","","",""
"null","<span style='color:GreenYellow; font-size: 70px;'>正确! </span>","null","html-keyboard-response","154","455866","0.0-7.0-1.0-4.0-0.0-1.23","3","3","4","3","3","3","3","4","4","4","4","4","2","3","4","4","4","4","4","4","2","2","2","2","2","2","2","1","1","1","0","1","1","0","0","1","1","1","1","1","0","1","0","1","4","2","2","2","2","","3","2","2","1","2","789499511558115329","林","652","","","","","","","","","","","","","","","","","","","","","","","","","","","","","","feedback_test","","","","","","","","","","","",""
"727","","j","psychophysics","155","457595","0.0-7.0-1.0-4.0-0.0-0.24","3","3","4","3","3","3","3","4","4","4","4","4","2","3","4","4","4","4","4","4","2","2","2","2","2","2","2","1","1","1","0","1","1","0","0","1","1","1","1","1","0","1","0","1","4","2","2","2","2","","3","2","2","1","2","789499511558115329","林","652","","","","nonmatch","","","","","","","","","","","","","","key","j","30.359803571428138","1280","716","j","true","nonmatch","img/trapezoid.png","五边","梯形","ALT1","formal_ALT1_2","","","","","","","","","","","",""
"null","<span style='color:GreenYellow; font-size: 70px;'>正确! </span>","null","html-keyboard-response","156","458096","0.0-7.0-1.0-4.0-0.0-1.24","3","3","4","3","3","3","3","4","4","4","4","4","2","3","4","4","4","4","4","4","2","2","2","2","2","2","2","1","1","1","0","1","1","0","0","1","1","1","1","1","0","1","0","1","4","2","2","2","2","","3","2","2","1","2","789499511558115329","林","652","","","","","","","","","","","","","","","","","","","","","","","","","","","","","","feedback_test","","","","","","","","","","","",""
"1083","","f","psychophysics","157","460179","0.0-7.0-1.0-4.0-0.0-0.25","3","3","4","3","3","3","3","4","4","4","4","4","2","3","4","4","4","4","4","4","2","2","2","2","2","2","2","1","1","1","0","1","1","0","0","1","1","1","1","1","0","1","0","1","4","2","2","2","2","","3","2","2","1","2","789499511558115329","林","652","","","","match","","","","","","","","","","","","","","key","f","30.846253731343616","1280","716","f","true","match","img/ellipse.png","椭圆","椭圆","ALT1","formal_ALT1_2","","","","","","","","","","","",""
"null","<span style='color:GreenYellow; font-size: 70px;'>正确! </span>","null","html-keyboard-response","158","460680","0.0-7.0-1.0-4.0-0.0-1.25","3","3","4","3","3","3","3","4","4","4","4","4","2","3","4","4","4","4","4","4","2","2","2","2","2","2","2","1","1","1","0","1","1","0","0","1","1","1","1","1","0","1","0","1","4","2","2","2","2","","3","2","2","1","2","789499511558115329","林","652","","","","","","","","","","","","","","","","","","","","","","","","","","","","","","feedback_test","","","","","","","","","","","",""
"802","","f","psychophysics","159","462484","0.0-7.0-1.0-4.0-0.0-0.26","3","3","4","3","3","3","3","4","4","4","4","4","2","3","4","4","4","4","4","4","2","2","2","2","2","2","2","1","1","1","0","1","1","0","0","1","1","1","1","1","0","1","0","1","4","2","2","2","2","","3","2","2","1","2","789499511558115329","林","652","","","","match","","","","","","","","","","","","","","key","f","30.226779661017027","1280","716","f","true","match","img/triangle.png","三角","三角","ALT1","formal_ALT1_2","","","","","","","","","","","",""
"null","<span style='color:GreenYellow; font-size: 70px;'>正确! </span>","null","html-keyboard-response","160","462986","0.0-7.0-1.0-4.0-0.0-1.26","3","3","4","3","3","3","3","4","4","4","4","4","2","3","4","4","4","4","4","4","2","2","2","2","2","2","2","1","1","1","0","1","1","0","0","1","1","1","1","1","0","1","0","1","4","2","2","2","2","","3","2","2","1","2","789499511558115329","林","652","","","","","","","","","","","","","","","","","","","","","","","","","","","","","","feedback_test","","","","","","","","","","","",""
"928","","j","psychophysics","161","464915","0.0-7.0-1.0-4.0-0.0-0.27","3","3","4","3","3","3","3","4","4","4","4","4","2","3","4","4","4","4","4","4","2","2","2","2","2","2","2","1","1","1","0","1","1","0","0","1","1","1","1","1","0","1","0","1","4","2","2","2","2","","3","2","2","1","2","789499511558115329","林","652","","","","nonmatch","","","","","","","","","","","","","","key","j","31.14814754098379","1280","716","j","true","nonmatch","img/ellipse.png","梯形","椭圆","ALT1","formal_ALT1_2","","","","","","","","","","","",""
"null","<span style='color:GreenYellow; font-size: 70px;'>正确! </span>","null","html-keyboard-response","162","465416","0.0-7.0-1.0-4.0-0.0-1.27","3","3","4","3","3","3","3","4","4","4","4","4","2","3","4","4","4","4","4","4","2","2","2","2","2","2","2","1","1","1","0","1","1","0","0","1","1","1","1","1","0","1","0","1","4","2","2","2","2","","3","2","2","1","2","789499511558115329","林","652","","","","","","","","","","","","","","","","","","","","","","","","","","","","","","feedback_test","","","","","","","","","","","",""
"786","","f","psychophysics","163","467203","0.0-7.0-1.0-4.0-0.0-0.28","3","3","4","3","3","3","3","4","4","4","4","4","2","3","4","4","4","4","4","4","2","2","2","2","2","2","2","1","1","1","0","1","1","0","0","1","1","1","1","1","0","1","0","1","4","2","2","2","2","","3","2","2","1","2","789499511558115329","林","652","","","","match","","","","","","","","","","","","","","key","f","30.173741379310176","1280","716","j","false","nonmatch","img/trapezoid.png","三角","梯形","ALT1","formal_ALT1_2","","","","","","","","","","","",""
"null","<span style='color:red; font-size: 70px;'>错误! </span>","null","html-keyboard-response","164","467704","0.0-7.0-1.0-4.0-0.0-1.28","3","3","4","3","3","3","3","4","4","4","4","4","2","3","4","4","4","4","4","4","2","2","2","2","2","2","2","1","1","1","0","1","1","0","0","1","1","1","1","1","0","1","0","1","4","2","2","2","2","","3","2","2","1","2","789499511558115329","林","652","","","","","","","","","","","","","","","","","","","","","","","","","","","","","","feedback_test","","","","","","","","","","","",""
"1001","","f","psychophysics","165","469707","0.0-7.0-1.0-4.0-0.0-0.29","3","3","4","3","3","3","3","4","4","4","4","4","2","3","4","4","4","4","4","4","2","2","2","2","2","2","2","1","1","1","0","1","1","0","0","1","1","1","1","1","0","1","0","1","4","2","2","2","2","","3","2","2","1","2","789499511558115329","林","652","","","","match","","","","","","","","","","","","","","key","f","30.95126984126973","1280","716","f","true","match","img/pentagon.png","五边","五边","ALT1","formal_ALT1_2","","","","","","","","","","","",""
"null","<span style='color:GreenYellow; font-size: 70px;'>正确! </span>","null","html-keyboard-response","166","470208","0.0-7.0-1.0-4.0-0.0-1.29","3","3","4","3","3","3","3","4","4","4","4","4","2","3","4","4","4","4","4","4","2","2","2","2","2","2","2","1","1","1","0","1","1","0","0","1","1","1","1","1","0","1","0","1","4","2","2","2","2","","3","2","2","1","2","789499511558115329","林","652","","","","","","","","","","","","","","","","","","","","","","","","","","","","","","feedback_test","","","","","","","","","","","",""
"874","","j","psychophysics","167","472083","0.0-7.0-1.0-4.0-0.0-0.30","3","3","4","3","3","3","3","4","4","4","4","4","2","3","4","4","4","4","4","4","2","2","2","2","2","2","2","1","1","1","0","1","1","0","0","1","1","1","1","1","0","1","0","1","4","2","2","2","2","","3","2","2","1","2","789499511558115329","林","652","","","","nonmatch","","","","","","","","","","","","","","key","j","30.8350166666661","1280","716","j","true","nonmatch","img/triangle.png","椭圆","三角","ALT1","formal_ALT1_2","","","","","","","","","","","",""
"null","<span style='color:GreenYellow; font-size: 70px;'>正确! </span>","null","html-keyboard-response","168","472585","0.0-7.0-1.0-4.0-0.0-1.30","3","3","4","3","3","3","3","4","4","4","4","4","2","3","4","4","4","4","4","4","2","2","2","2","2","2","2","1","1","1","0","1","1","0","0","1","1","1","1","1","0","1","0","1","4","2","2","2","2","","3","2","2","1","2","789499511558115329","林","652","","","","","","","","","","","","","","","","","","","","","","","","","","","","","","feedback_test","","","","","","","","","","","",""
"721","","f","psychophysics","169","474308","0.0-7.0-1.0-4.0-0.0-0.31","3","3","4","3","3","3","3","4","4","4","4","4","2","3","4","4","4","4","4","4","2","2","2","2","2","2","2","1","1","1","0","1","1","0","0","1","1","1","1","1","0","1","0","1","4","2","2","2","2","","3","2","2","1","2","789499511558115329","林","652","","","","match","","","","","","","","","","","","","","key","f","30.866055555556496","1280","716","f","true","match","img/ellipse.png","椭圆","椭圆","ALT1","formal_ALT1_2","","","","","","","","","","","",""
"null","<span style='color:GreenYellow; font-size: 70px;'>正确! </span>","null","html-keyboard-response","170","474808","0.0-7.0-1.0-4.0-0.0-1.31","3","3","4","3","3","3","3","4","4","4","4","4","2","3","4","4","4","4","4","4","2","2","2","2","2","2","2","1","1","1","0","1","1","0","0","1","1","1","1","1","0","1","0","1","4","2","2","2","2","","3","2","2","1","2","789499511558115329","林","652","","","","","","","","","","","","","","","","","","","","","","","","","","","","","","feedback_test","","","","","","","","","","","",""
"938","","j","psychophysics","171","476747","0.0-7.0-1.0-4.0-0.0-0.32","3","3","4","3","3","3","3","4","4","4","4","4","2","3","4","4","4","4","4","4","2","2","2","2","2","2","2","1","1","1","0","1","1","0","0","1","1","1","1","1","0","1","0","1","4","2","2","2","2","","3","2","2","1","2","789499511558115329","林","652","","","","nonmatch","","","","","","","","","","","","","","key","j","30.91433870967669","1280","716","j","true","nonmatch","img/pentagon.png","三角","五边","ALT1","formal_ALT1_2","","","","","","","","","","","",""
"null","<span style='color:GreenYellow; font-size: 70px;'>正确! </span>","null","html-keyboard-response","172","477248","0.0-7.0-1.0-4.0-0.0-1.32","3","3","4","3","3","3","3","4","4","4","4","4","2","3","4","4","4","4","4","4","2","2","2","2","2","2","2","1","1","1","0","1","1","0","0","1","1","1","1","1","0","1","0","1","4","2","2","2","2","","3","2","2","1","2","789499511558115329","林","652","","","","","","","","","","","","","","","","","","","","","","","","","","","","","","feedback_test","","","","","","","","","","","",""
"906","","f","psychophysics","173","479155","0.0-7.0-1.0-4.0-0.0-0.33","3","3","4","3","3","3","3","4","4","4","4","4","2","3","4","4","4","4","4","4","2","2","2","2","2","2","2","1","1","1","0","1","1","0","0","1","1","1","1","1","0","1","0","1","4","2","2","2","2","","3","2","2","1","2","789499511558115329","林","652","","","","match","","","","","","","","","","","","","","key","f","30.37838709677453","1280","716","f","true","match","img/trapezoid.png","梯形","梯形","ALT1","formal_ALT1_2","","","","","","","","","","","",""
"null","<span style='color:GreenYellow; font-size: 70px;'>正确! </span>","null","html-keyboard-response","174","479656","0.0-7.0-1.0-4.0-0.0-1.33","3","3","4","3","3","3","3","4","4","4","4","4","2","3","4","4","4","4","4","4","2","2","2","2","2","2","2","1","1","1","0","1","1","0","0","1","1","1","1","1","0","1","0","1","4","2","2","2","2","","3","2","2","1","2","789499511558115329","林","652","","","","","","","","","","","","","","","","","","","","","","","","","","","","","","feedback_test","","","","","","","","","","","",""
"978","","f","psychophysics","175","481636","0.0-7.0-1.0-4.0-0.0-0.34","3","3","4","3","3","3","3","4","4","4","4","4","2","3","4","4","4","4","4","4","2","2","2","2","2","2","2","1","1","1","0","1","1","0","0","1","1","1","1","1","0","1","0","1","4","2","2","2","2","","3","2","2","1","2","789499511558115329","林","652","","","","match","","","","","","","","","","","","","","key","f","31.184451612903015","1280","716","f","true","match","img/pentagon.png","五边","五边","ALT1","formal_ALT1_2","","","","","","","","","","","",""
"null","<span style='color:GreenYellow; font-size: 70px;'>正确! </span>","null","html-keyboard-response","176","482137","0.0-7.0-1.0-4.0-0.0-1.34","3","3","4","3","3","3","3","4","4","4","4","4","2","3","4","4","4","4","4","4","2","2","2","2","2","2","2","1","1","1","0","1","1","0","0","1","1","1","1","1","0","1","0","1","4","2","2","2","2","","3","2","2","1","2","789499511558115329","林","652","","","","","","","","","","","","","","","","","","","","","","","","","","","","","","feedback_test","","","","","","","","","","","",""
"785","","j","psychophysics","177","483923","0.0-7.0-1.0-4.0-0.0-0.35","3","3","4","3","3","3","3","4","4","4","4","4","2","3","4","4","4","4","4","4","2","2","2","2","2","2","2","1","1","1","0","1","1","0","0","1","1","1","1","1","0","1","0","1","4","2","2","2","2","","3","2","2","1","2","789499511558115329","林","652","","","","nonmatch","","","","","","","","","","","","","","key","j","31.249821428571263","1280","716","j","true","nonmatch","img/triangle.png","五边","三角","ALT1","formal_ALT1_2","","","","","","","","","","","",""
"null","<span style='color:GreenYellow; font-size: 70px;'>正确! </span>","null","html-keyboard-response","178","484425","0.0-7.0-1.0-4.0-0.0-1.35","3","3","4","3","3","3","3","4","4","4","4","4","2","3","4","4","4","4","4","4","2","2","2","2","2","2","2","1","1","1","0","1","1","0","0","1","1","1","1","1","0","1","0","1","4","2","2","2","2","","3","2","2","1","2","789499511558115329","林","652","","","","","","","","","","","","","","","","","","","","","","","","","","","","","","feedback_test","","","","","","","","","","","",""
"897","","j","psychophysics","179","486323","0.0-7.0-1.0-4.0-0.0-0.36","3","3","4","3","3","3","3","4","4","4","4","4","2","3","4","4","4","4","4","4","2","2","2","2","2","2","2","1","1","1","0","1","1","0","0","1","1","1","1","1","0","1","0","1","4","2","2","2","2","","3","2","2","1","2","789499511558115329","林","652","","","","nonmatch","","","","","","","","","","","","","","key","j","31.109866666666736","1280","716","j","true","nonmatch","img/ellipse.png","五边","椭圆","ALT1","formal_ALT1_2","","","","","","","","","","","",""
"null","<span style='color:GreenYellow; font-size: 70px;'>正确! </span>","null","html-keyboard-response","180","486824","0.0-7.0-1.0-4.0-0.0-1.36","3","3","4","3","3","3","3","4","4","4","4","4","2","3","4","4","4","4","4","4","2","2","2","2","2","2","2","1","1","1","0","1","1","0","0","1","1","1","1","1","0","1","0","1","4","2","2","2","2","","3","2","2","1","2","789499511558115329","林","652","","","","","","","","","","","","","","","","","","","","","","","","","","","","","","feedback_test","","","","","","","","","","","",""
"867","","f","psychophysics","181","488692","0.0-7.0-1.0-4.0-0.0-0.37","3","3","4","3","3","3","3","4","4","4","4","4","2","3","4","4","4","4","4","4","2","2","2","2","2","2","2","1","1","1","0","1","1","0","0","1","1","1","1","1","0","1","0","1","4","2","2","2","2","","3","2","2","1","2","789499511558115329","林","652","","","","match","","","","","","","","","","","","","","key","f","33.33243636363609","1280","716","f","true","match","img/trapezoid.png","梯形","梯形","ALT1","formal_ALT1_2","","","","","","","","","","","",""
