"rt","stimulus","response","trial_type","trial_index","time_elapsed","internal_node_id","ses_1","ses_2","ses_3","ses_4","ses_5","ses_6","ses_7","ses_8","ses_9","ses_10","coreself_1","coreself_2","coreself_3","coreself_4","coreself_5","coreself_6","coreself_7","coreself_8","coreself_9","coreself_10","SGPS_1","SGPS_2","SGPS_3","SGPS_4","SGPS_5","SGPS_6","SGPS_7","SGPS_8","SGPS_9","NPI1","NPI2","NPI3","NPI4","NPI5","NPI6","NPI7","NPI8","NPI9","NPI10","NPI11","NPI12","NPI13","NPI14","NPI15","hsns_1","hsns_2","hsns_3","hsns_4","hsns_5","trap1","hsns_6","hsns_7","hsns_8","hsns_9","hsns_10","subj_idx","friend_name","ParticipantID","value","success","user_agent","responses","item_order","radio_event_ids","radio_event_times","key_event_times","mouse_event_times","straightlining","zigzagging","honeypot","timeout","failed_images","failed_audio","failed_video","version_attrib2","version_target2","correct","IAT","screen_id","task_id","RT","condition","word","varname","summary","version_attrib","version_target","time_stamp","view_history","response_type","key_press","avg_frame_time","center_x","center_y","correct_response","identity","Image","question_order","correct_answer","trap1_item"
"1275","
   <p><div style = ""color: white;font-size:25px;"">您好，欢迎参加本次实验。</div> </p>
   <p><div style = ""color: white;font-size:25px;"">为充分保障您的权利，请确保您已经知晓并同意《参与实验同意书》以及《数据公开知情同意书》。</div></p>
   <p><div style = ""color: white;font-size:25px;"">如果您未见过上述内容，请咨询实验员。</div></p>
   <p><div style = ""color: white;font-size:25px;"">如果您选择继续实验，则表示您已经清楚两份知情同意书的内容并同意。</div></p>
   <p><div style = ""color: pink;font-size:30px;"">请确保您记得day0的实验编号，您将在本次实验输入该编号，若您忘记，请咨询实验员后作答。</div></p>
   <p><div style = ""color: lightblue;font-size:25px;"">请您尽可能认真地作答，我们将依据您在各问卷和按键任务中的作答质量发放报酬。</div></p>
   <p> <div style = ""color: green;font-size:25px;""><按空格键至下页></div> </p>
   "," ","html-keyboard-response","0","1284","0.0-0.0","4","3","4","4","4","3","4","3","4","4","5","5","5","5","5","5","5","5","5","5","1","1","1","1","2","1","1","5","1","1","0","1","1","0","0","0","1","0","1","0","1","0","0","1","5","1","4","1","4","1","4","5","2","1","1","786950840366800897","黄","294","","","","","","","","","","","","","","","","","","","","","","","","","","","","","","","","","","","","","","","","","",""
"","","","call-function","1","1288","0.0-1.0-0.0","4","3","4","4","4","3","4","3","4","4","5","5","5","5","5","5","5","5","5","5","1","1","1","1","2","1","1","5","1","1","0","1","1","0","0","0","1","0","1","0","1","0","0","1","5","1","4","1","4","1","4","5","2","1","1","786950840366800897","黄","294","","","","","","","","","","","","","","","","","","","","","","","","","","","","","","","","","","","","","","","","","",""
"25462","","{""friend_name"":""黄"",""ParticipantID"":""294""}","survey-html-form","2","26746","0.0-1.0-1.0","4","3","4","4","4","3","4","3","4","4","5","5","5","5","5","5","5","5","5","5","1","1","1","1","2","1","1","5","1","1","0","1","1","0","0","0","1","0","1","0","1","0","0","1","5","1","4","1","4","1","4","5","2","1","1","786950840366800897","黄","294","","","","","","","","","","","","","","","","","","","","","","","","","","","","","","","","","","","","","","","","","",""
"","","","fullscreen","3","29369","0.0-2.0","4","3","4","4","4","3","4","3","4","4","5","5","5","5","5","5","5","5","5","5","1","1","1","1","2","1","1","5","1","1","0","1","1","0","0","0","1","0","1","0","1","0","0","1","5","1","4","1","4","1","4","5","2","1","1","786950840366800897","黄","294","","true","{}","","","","","","","","","","","","","","","","","","","","","","","","","","","","","","","","","","","","","","",""
"21116.10000000056","","{""Q01"":""4"",""Q02"":""3"",""Q03"":""4"",""Q04"":""4"",""Q05"":""4"",""Q06"":""3"",""Q07"":""4"",""Q08"":""3"",""Q09"":""4"",""Q10"":""4""}","survey-template","4","50494","0.0-3.0","4","3","4","4","4","3","4","3","4","4","5","5","5","5","5","5","5","5","5","5","1","1","1","1","2","1","1","5","1","1","0","1","1","0","0","0","1","0","1","0","1","0","0","1","5","1","4","1","4","1","4","5","2","1","1","786950840366800897","黄","294","","","","{""Q01"":""4"",""Q02"":""3"",""Q03"":""4"",""Q04"":""4"",""Q05"":""4"",""Q06"":""3"",""Q07"":""4"",""Q08"":""3"",""Q09"":""4"",""Q10"":""4""}","[0,1,2,3,4,5,6,7,8,9]","[""Q01"",""Q02"",""Q03"",""Q04"",""Q05"",""Q06"",""Q07"",""Q08"",""Q09"",""Q10""]","[2822.7000000001863,4335.100000000559,5952.200000000186,7989.9000000003725,11109,12198.700000000186,13608,17614.700000000186,19508.300000000745,20324.700000000186]","[]","[2822.7000000001863,4335.100000000559,5952.200000000186,7989.9000000003725,10203.400000000373,11109,12198.700000000186,13608,17614.700000000186,18980.700000000186,19508.300000000745,19956.800000000745,20324.700000000186,21110.300000000745]","0.4","0.5555555555555556","0","","","","","","","","","","","","","","","","","","","","","","","","","","","","","",""
"26664.700000000186","","{""Q01"":""5"",""Q02"":""5"",""Q03"":""5"",""Q04"":""5"",""Q05"":""5"",""Q06"":""5"",""Q07"":""5"",""Q08"":""5"",""Q09"":""5"",""Q10"":""5""}","survey-template","5","77162","0.0-4.0","4","3","4","4","4","3","4","3","4","4","5","5","5","5","5","5","5","5","5","5","1","1","1","1","2","1","1","5","1","1","0","1","1","0","0","0","1","0","1","0","1","0","0","1","5","1","4","1","4","1","4","5","2","1","1","786950840366800897","黄","294","","","","{""Q01"":""5"",""Q02"":""5"",""Q03"":""5"",""Q04"":""5"",""Q05"":""5"",""Q06"":""5"",""Q07"":""5"",""Q08"":""5"",""Q09"":""5"",""Q10"":""5""}","[0,1,2,3,4,5,6,7,8,9]","[""Q01"",""Q02"",""Q03"",""Q04"",""Q05"",""Q06"",""Q07"",""Q09"",""Q10"",""Q08""]","[1965.5999999996275,4261.299999999814,4908.299999999814,6811.9000000003725,10437.900000000373,11841.400000000373,13810,17588.799999999814,20906.400000000373,24670.400000000373]","[]","[1965.5999999996275,3393.5,4261.299999999814,4908.299999999814,6811.9000000003725,8454.400000000373,10437.900000000373,11841.400000000373,13810,15155.099999999627,17588.799999999814,19305.700000000186,19794.599999999627,20906.400000000373,21937.700000000186,24670.400000000373,26661.099999999627]","0.6","0.7777777777777778","0","","","","","","","","","","","","","","","","","","","","","","","","","","","","","",""
"","","","preload","6","77228","0.0-5.0","4","3","4","4","4","3","4","3","4","4","5","5","5","5","5","5","5","5","5","5","1","1","1","1","2","1","1","5","1","1","0","1","1","0","0","0","1","0","1","0","1","0","0","1","5","1","4","1","4","1","4","5","2","1","1","786950840366800897","黄","294","","true","","","","","","","","","","","false","[]","[]","[]","","","","","","","","","","","","","","","","","","","","","","","","","",""
"11938","
    <h3>词语分类任务</h3>
    <p>在接下来的任务中，你需要对一系列词语进行分类。<p/>
    请先熟悉这些词语，这有利于你完成接下来的任务。</p>
    <table align=""center"" border=1 cellpadding=3 cellspacing=0>
    <tr> <th>类别</th> <th>词语</th> </tr>
    <tr> <td>&emsp;积极&emsp;</td> <td>&emsp;高尚、诚信、善良、君子、廉正、正直&emsp;</td> </tr>
    <tr> <td>&emsp;消极&emsp;</td> <td>&emsp;缺德、卑鄙、不孝、不仁、小人、黑心&emsp;</td> </tr>
    <tr> <td>&emsp;自我&emsp;</td> <td>&emsp;我、我的、自己、自己的、本人、本人的&emsp;</td> </tr>
    <tr> <td>&emsp;他人&emsp;</td> <td>&emsp;他、他的、别人、别人的、他人、他人的&emsp;</td> </tr>
    </table><br/>","0","html-button-response","7","89170","0.0-6.0-1.0-0.0","4","3","4","4","4","3","4","3","4","4","5","5","5","5","5","5","5","5","5","5","1","1","1","1","2","1","1","5","1","1","0","1","1","0","0","0","1","0","1","0","1","0","0","1","5","1","4","1","4","1","4","5","2","1","1","786950840366800897","黄","294","","","","","","","","","","","","","","","","","1","1","","","","","","","","","","","","","","","","","","","","","","","",""
"5219","
    <div class=""tag-bottom""><p>
    —— 任务1：对“自我”词和“他人”词分类 ——<p/>
    不同词语会出现在屏幕中央，类别标签将始终显示在屏幕上方<p/>   
    <span style=""color:#FFD866""><b>请根据上方标签的提示，尽可能正确并且快速地做出按键反应</b></span><p/>
    当按键错误时屏幕中会出现<span style=""color:red""> X </span>，需要按另一个键纠正才能继续<br/><p/>
    请把双手食指分别放在键盘的“E”键和“I”键上<p/>
    按<空格键>开始
    </p></div>"," ","html-keyboard-response","8","94401","0.0-6.0-1.0-1.0","4","3","4","4","4","3","4","3","4","4","5","5","5","5","5","5","5","5","5","5","1","1","1","1","2","1","1","5","1","1","0","1","1","0","0","0","1","0","1","0","1","0","0","1","5","1","4","1","4","1","4","5","2","1","1","786950840366800897","黄","294","","","","","","","","","","","","","","","","","","","","","","","","","","","","","","","","","","","","","","","","","",""
"null","","null","html-keyboard-response","9","94655","0.0-6.0-1.0-2.0-0.0","4","3","4","4","4","3","4","3","4","4","5","5","5","5","5","5","5","5","5","5","1","1","1","1","2","1","1","5","1","1","0","1","1","0","0","0","1","0","1","0","1","0","0","1","5","1","4","1","4","1","4","5","2","1","1","786950840366800897","黄","294","","","","","","","","","","","","","","","","","","","","","","","","","","","","","","","","","","","","","","","","","",""
"2346","<p style=""color:rgb(150, 250, 100); font-size: 35px;"">自己</p>","e","categorize-html","10","97019","0.0-6.0-1.0-2.0-1.0","4","3","4","4","4","3","4","3","4","4","5","5","5","5","5","5","5","5","5","5","1","1","1","1","2","1","1","5","1","1","0","1","1","0","0","0","1","0","1","0","1","0","0","1","5","1","4","1","4","1","4","5","2","1","1","786950840366800897","黄","294","","","","","","","","","","","","","","","","","","","true","11","1","moral","2346","self","自己","","","","","","","","","","","","","","","","",""
"null","","null","html-keyboard-response","11","97275","0.0-6.0-1.0-2.0-0.1","4","3","4","4","4","3","4","3","4","4","5","5","5","5","5","5","5","5","5","5","1","1","1","1","2","1","1","5","1","1","0","1","1","0","0","0","1","0","1","0","1","0","0","1","5","1","4","1","4","1","4","5","2","1","1","786950840366800897","黄","294","","","","","","","","","","","","","","","","","","","","","","","","","","","","","","","","","","","","","","","","","",""
"1495","<p style=""color:rgb(150, 250, 100); font-size: 35px;"">别人的</p>","i","categorize-html","12","98779","0.0-6.0-1.0-2.0-1.1","4","3","4","4","4","3","4","3","4","4","5","5","5","5","5","5","5","5","5","5","1","1","1","1","2","1","1","5","1","1","0","1","1","0","0","0","1","0","1","0","1","0","0","1","5","1","4","1","4","1","4","5","2","1","1","786950840366800897","黄","294","","","","","","","","","","","","","","","","","","","true","11","1","moral","1495","other","别人的","","","","","","","","","","","","","","","","",""
"null","","null","html-keyboard-response","13","99033","0.0-6.0-1.0-2.0-0.2","4","3","4","4","4","3","4","3","4","4","5","5","5","5","5","5","5","5","5","5","1","1","1","1","2","1","1","5","1","1","0","1","1","0","0","0","1","0","1","0","1","0","0","1","5","1","4","1","4","1","4","5","2","1","1","786950840366800897","黄","294","","","","","","","","","","","","","","","","","","","","","","","","","","","","","","","","","","","","","","","","","",""
"743","<p style=""color:rgb(150, 250, 100); font-size: 35px;"">他的</p>","i","categorize-html","14","99787","0.0-6.0-1.0-2.0-1.2","4","3","4","4","4","3","4","3","4","4","5","5","5","5","5","5","5","5","5","5","1","1","1","1","2","1","1","5","1","1","0","1","1","0","0","0","1","0","1","0","1","0","0","1","5","1","4","1","4","1","4","5","2","1","1","786950840366800897","黄","294","","","","","","","","","","","","","","","","","","","true","11","1","moral","743","other","他的","","","","","","","","","","","","","","","","",""
"null","","null","html-keyboard-response","15","100044","0.0-6.0-1.0-2.0-0.3","4","3","4","4","4","3","4","3","4","4","5","5","5","5","5","5","5","5","5","5","1","1","1","1","2","1","1","5","1","1","0","1","1","0","0","0","1","0","1","0","1","0","0","1","5","1","4","1","4","1","4","5","2","1","1","786950840366800897","黄","294","","","","","","","","","","","","","","","","","","","","","","","","","","","","","","","","","","","","","","","","","",""
"693","<p style=""color:rgb(150, 250, 100); font-size: 35px;"">本人的</p>","e","categorize-html","16","100743","0.0-6.0-1.0-2.0-1.3","4","3","4","4","4","3","4","3","4","4","5","5","5","5","5","5","5","5","5","5","1","1","1","1","2","1","1","5","1","1","0","1","1","0","0","0","1","0","1","0","1","0","0","1","5","1","4","1","4","1","4","5","2","1","1","786950840366800897","黄","294","","","","","","","","","","","","","","","","","","","true","11","1","moral","693","self","本人的","","","","","","","","","","","","","","","","",""
"null","","null","html-keyboard-response","17","100996","0.0-6.0-1.0-2.0-0.4","4","3","4","4","4","3","4","3","4","4","5","5","5","5","5","5","5","5","5","5","1","1","1","1","2","1","1","5","1","1","0","1","1","0","0","0","1","0","1","0","1","0","0","1","5","1","4","1","4","1","4","5","2","1","1","786950840366800897","黄","294","","","","","","","","","","","","","","","","","","","","","","","","","","","","","","","","","","","","","","","","","",""
"641","<p style=""color:rgb(150, 250, 100); font-size: 35px;"">他人</p>","i","categorize-html","18","101647","0.0-6.0-1.0-2.0-1.4","4","3","4","4","4","3","4","3","4","4","5","5","5","5","5","5","5","5","5","5","1","1","1","1","2","1","1","5","1","1","0","1","1","0","0","0","1","0","1","0","1","0","0","1","5","1","4","1","4","1","4","5","2","1","1","786950840366800897","黄","294","","","","","","","","","","","","","","","","","","","true","11","1","moral","641","other","他人","","","","","","","","","","","","","","","","",""
"null","","null","html-keyboard-response","19","101903","0.0-6.0-1.0-2.0-0.5","4","3","4","4","4","3","4","3","4","4","5","5","5","5","5","5","5","5","5","5","1","1","1","1","2","1","1","5","1","1","0","1","1","0","0","0","1","0","1","0","1","0","0","1","5","1","4","1","4","1","4","5","2","1","1","786950840366800897","黄","294","","","","","","","","","","","","","","","","","","","","","","","","","","","","","","","","","","","","","","","","","",""
"622","<p style=""color:rgb(150, 250, 100); font-size: 35px;"">我的</p>","e","categorize-html","20","102536","0.0-6.0-1.0-2.0-1.5","4","3","4","4","4","3","4","3","4","4","5","5","5","5","5","5","5","5","5","5","1","1","1","1","2","1","1","5","1","1","0","1","1","0","0","0","1","0","1","0","1","0","0","1","5","1","4","1","4","1","4","5","2","1","1","786950840366800897","黄","294","","","","","","","","","","","","","","","","","","","true","11","1","moral","622","self","我的","","","","","","","","","","","","","","","","",""
"null","","null","html-keyboard-response","21","102790","0.0-6.0-1.0-2.0-0.6","4","3","4","4","4","3","4","3","4","4","5","5","5","5","5","5","5","5","5","5","1","1","1","1","2","1","1","5","1","1","0","1","1","0","0","0","1","0","1","0","1","0","0","1","5","1","4","1","4","1","4","5","2","1","1","786950840366800897","黄","294","","","","","","","","","","","","","","","","","","","","","","","","","","","","","","","","","","","","","","","","","",""
"624","<p style=""color:rgb(150, 250, 100); font-size: 35px;"">他人的</p>","i","categorize-html","22","103427","0.0-6.0-1.0-2.0-1.6","4","3","4","4","4","3","4","3","4","4","5","5","5","5","5","5","5","5","5","5","1","1","1","1","2","1","1","5","1","1","0","1","1","0","0","0","1","0","1","0","1","0","0","1","5","1","4","1","4","1","4","5","2","1","1","786950840366800897","黄","294","","","","","","","","","","","","","","","","","","","true","11","1","moral","624","other","他人的","","","","","","","","","","","","","","","","",""
"null","","null","html-keyboard-response","23","103681","0.0-6.0-1.0-2.0-0.7","4","3","4","4","4","3","4","3","4","4","5","5","5","5","5","5","5","5","5","5","1","1","1","1","2","1","1","5","1","1","0","1","1","0","0","0","1","0","1","0","1","0","0","1","5","1","4","1","4","1","4","5","2","1","1","786950840366800897","黄","294","","","","","","","","","","","","","","","","","","","","","","","","","","","","","","","","","","","","","","","","","",""
"569","<p style=""color:rgb(150, 250, 100); font-size: 35px;"">别人</p>","e","categorize-html","24","104802","0.0-6.0-1.0-2.0-1.7","4","3","4","4","4","3","4","3","4","4","5","5","5","5","5","5","5","5","5","5","1","1","1","1","2","1","1","5","1","1","0","1","1","0","0","0","1","0","1","0","1","0","0","1","5","1","4","1","4","1","4","5","2","1","1","786950840366800897","黄","294","","","","","","","","","","","","","","","","","","","false","11","1","moral","569","other","别人","","","","","","","","","","","","","","","","",""
"null","","null","html-keyboard-response","25","105055","0.0-6.0-1.0-2.0-0.8","4","3","4","4","4","3","4","3","4","4","5","5","5","5","5","5","5","5","5","5","1","1","1","1","2","1","1","5","1","1","0","1","1","0","0","0","1","0","1","0","1","0","0","1","5","1","4","1","4","1","4","5","2","1","1","786950840366800897","黄","294","","","","","","","","","","","","","","","","","","","","","","","","","","","","","","","","","","","","","","","","","",""
"573","<p style=""color:rgb(150, 250, 100); font-size: 35px;"">本人</p>","e","categorize-html","26","105639","0.0-6.0-1.0-2.0-1.8","4","3","4","4","4","3","4","3","4","4","5","5","5","5","5","5","5","5","5","5","1","1","1","1","2","1","1","5","1","1","0","1","1","0","0","0","1","0","1","0","1","0","0","1","5","1","4","1","4","1","4","5","2","1","1","786950840366800897","黄","294","","","","","","","","","","","","","","","","","","","true","11","1","moral","573","self","本人","","","","","","","","","","","","","","","","",""
"null","","null","html-keyboard-response","27","105897","0.0-6.0-1.0-2.0-0.9","4","3","4","4","4","3","4","3","4","4","5","5","5","5","5","5","5","5","5","5","1","1","1","1","2","1","1","5","1","1","0","1","1","0","0","0","1","0","1","0","1","0","0","1","5","1","4","1","4","1","4","5","2","1","1","786950840366800897","黄","294","","","","","","","","","","","","","","","","","","","","","","","","","","","","","","","","","","","","","","","","","",""
"672","<p style=""color:rgb(150, 250, 100); font-size: 35px;"">我</p>","e","categorize-html","28","106579","0.0-6.0-1.0-2.0-1.9","4","3","4","4","4","3","4","3","4","4","5","5","5","5","5","5","5","5","5","5","1","1","1","1","2","1","1","5","1","1","0","1","1","0","0","0","1","0","1","0","1","0","0","1","5","1","4","1","4","1","4","5","2","1","1","786950840366800897","黄","294","","","","","","","","","","","","","","","","","","","true","11","1","moral","672","self","我","","","","","","","","","","","","","","","","",""
"null","","null","html-keyboard-response","29","106832","0.0-6.0-1.0-2.0-0.10","4","3","4","4","4","3","4","3","4","4","5","5","5","5","5","5","5","5","5","5","1","1","1","1","2","1","1","5","1","1","0","1","1","0","0","0","1","0","1","0","1","0","0","1","5","1","4","1","4","1","4","5","2","1","1","786950840366800897","黄","294","","","","","","","","","","","","","","","","","","","","","","","","","","","","","","","","","","","","","","","","","",""
"539","<p style=""color:rgb(150, 250, 100); font-size: 35px;"">自己的</p>","e","categorize-html","30","107377","0.0-6.0-1.0-2.0-1.10","4","3","4","4","4","3","4","3","4","4","5","5","5","5","5","5","5","5","5","5","1","1","1","1","2","1","1","5","1","1","0","1","1","0","0","0","1","0","1","0","1","0","0","1","5","1","4","1","4","1","4","5","2","1","1","786950840366800897","黄","294","","","","","","","","","","","","","","","","","","","true","11","1","moral","539","self","自己的","","","","","","","","","","","","","","","","",""
"null","","null","html-keyboard-response","31","107629","0.0-6.0-1.0-2.0-0.11","4","3","4","4","4","3","4","3","4","4","5","5","5","5","5","5","5","5","5","5","1","1","1","1","2","1","1","5","1","1","0","1","1","0","0","0","1","0","1","0","1","0","0","1","5","1","4","1","4","1","4","5","2","1","1","786950840366800897","黄","294","","","","","","","","","","","","","","","","","","","","","","","","","","","","","","","","","","","","","","","","","",""
"557","<p style=""color:rgb(150, 250, 100); font-size: 35px;"">他</p>","i","categorize-html","32","108196","0.0-6.0-1.0-2.0-1.11","4","3","4","4","4","3","4","3","4","4","5","5","5","5","5","5","5","5","5","5","1","1","1","1","2","1","1","5","1","1","0","1","1","0","0","0","1","0","1","0","1","0","0","1","5","1","4","1","4","1","4","5","2","1","1","786950840366800897","黄","294","","","","","","","","","","","","","","","","","","","true","11","1","moral","557","other","他","","","","","","","","","","","","","","","","",""
"829","
    <div class=""tag-bottom""><p>
    —— 任务2：对“积极”词和“消极”词分类 ——<p/>   
    <span style=""color:#78DCE8""><b>注意上方，类别标签和需要分类的词语都已经改变</b></span><p/>
    <span style=""color:#FFD866""><b>请根据上方标签的提示，尽可能正确并且快速地做出按键反应</b></span><p/>
    当按键错误时屏幕中会出现<span style=""color:red""> X </span>，需要按另一个键纠正才能继续<br/><p/>
    请把双手食指分别放在键盘的“E”键和“I”键上<p/>
    按<空格键>开始
    </p></div>"," ","html-keyboard-response","33","109030","0.0-6.0-1.0-3.0","4","3","4","4","4","3","4","3","4","4","5","5","5","5","5","5","5","5","5","5","1","1","1","1","2","1","1","5","1","1","0","1","1","0","0","0","1","0","1","0","1","0","0","1","5","1","4","1","4","1","4","5","2","1","1","786950840366800897","黄","294","","","","","","","","","","","","","","","","","","","","","","","","","","","","","","","","","","","","","","","","","",""
"null","","null","html-keyboard-response","34","109282","0.0-6.0-1.0-4.0-0.0","4","3","4","4","4","3","4","3","4","4","5","5","5","5","5","5","5","5","5","5","1","1","1","1","2","1","1","5","1","1","0","1","1","0","0","0","1","0","1","0","1","0","0","1","5","1","4","1","4","1","4","5","2","1","1","786950840366800897","黄","294","","","","","","","","","","","","","","","","","","","","","","","","","","","","","","","","","","","","","","","","","",""
"1003","<p style=""color:white; font-size: 35px;"">不仁</p>","i","categorize-html","35","110297","0.0-6.0-1.0-4.0-1.0","4","3","4","4","4","3","4","3","4","4","5","5","5","5","5","5","5","5","5","5","1","1","1","1","2","1","1","5","1","1","0","1","1","0","0","0","1","0","1","0","1","0","0","1","5","1","4","1","4","1","4","5","2","1","1","786950840366800897","黄","294","","","","","","","","","","","","","","","","","","","true","12","2","moral","1003","negative","不仁","","","","","","","","","","","","","","","","",""
"null","","null","html-keyboard-response","36","110554","0.0-6.0-1.0-4.0-0.1","4","3","4","4","4","3","4","3","4","4","5","5","5","5","5","5","5","5","5","5","1","1","1","1","2","1","1","5","1","1","0","1","1","0","0","0","1","0","1","0","1","0","0","1","5","1","4","1","4","1","4","5","2","1","1","786950840366800897","黄","294","","","","","","","","","","","","","","","","","","","","","","","","","","","","","","","","","","","","","","","","","",""
"617","<p style=""color:white; font-size: 35px;"">善良</p>","e","categorize-html","37","111181","0.0-6.0-1.0-4.0-1.1","4","3","4","4","4","3","4","3","4","4","5","5","5","5","5","5","5","5","5","5","1","1","1","1","2","1","1","5","1","1","0","1","1","0","0","0","1","0","1","0","1","0","0","1","5","1","4","1","4","1","4","5","2","1","1","786950840366800897","黄","294","","","","","","","","","","","","","","","","","","","true","12","2","moral","617","positive","善良","","","","","","","","","","","","","","","","",""
"null","","null","html-keyboard-response","38","111438","0.0-6.0-1.0-4.0-0.2","4","3","4","4","4","3","4","3","4","4","5","5","5","5","5","5","5","5","5","5","1","1","1","1","2","1","1","5","1","1","0","1","1","0","0","0","1","0","1","0","1","0","0","1","5","1","4","1","4","1","4","5","2","1","1","786950840366800897","黄","294","","","","","","","","","","","","","","","","","","","","","","","","","","","","","","","","","","","","","","","","","",""
"623","<p style=""color:white; font-size: 35px;"">小人</p>","i","categorize-html","39","112072","0.0-6.0-1.0-4.0-1.2","4","3","4","4","4","3","4","3","4","4","5","5","5","5","5","5","5","5","5","5","1","1","1","1","2","1","1","5","1","1","0","1","1","0","0","0","1","0","1","0","1","0","0","1","5","1","4","1","4","1","4","5","2","1","1","786950840366800897","黄","294","","","","","","","","","","","","","","","","","","","true","12","2","moral","623","negative","小人","","","","","","","","","","","","","","","","",""
"null","","null","html-keyboard-response","40","112328","0.0-6.0-1.0-4.0-0.3","4","3","4","4","4","3","4","3","4","4","5","5","5","5","5","5","5","5","5","5","1","1","1","1","2","1","1","5","1","1","0","1","1","0","0","0","1","0","1","0","1","0","0","1","5","1","4","1","4","1","4","5","2","1","1","786950840366800897","黄","294","","","","","","","","","","","","","","","","","","","","","","","","","","","","","","","","","","","","","","","","","",""
"576","<p style=""color:white; font-size: 35px;"">正直</p>","e","categorize-html","41","112913","0.0-6.0-1.0-4.0-1.3","4","3","4","4","4","3","4","3","4","4","5","5","5","5","5","5","5","5","5","5","1","1","1","1","2","1","1","5","1","1","0","1","1","0","0","0","1","0","1","0","1","0","0","1","5","1","4","1","4","1","4","5","2","1","1","786950840366800897","黄","294","","","","","","","","","","","","","","","","","","","true","12","2","moral","576","positive","正直","","","","","","","","","","","","","","","","",""
"null","","null","html-keyboard-response","42","113166","0.0-6.0-1.0-4.0-0.4","4","3","4","4","4","3","4","3","4","4","5","5","5","5","5","5","5","5","5","5","1","1","1","1","2","1","1","5","1","1","0","1","1","0","0","0","1","0","1","0","1","0","0","1","5","1","4","1","4","1","4","5","2","1","1","786950840366800897","黄","294","","","","","","","","","","","","","","","","","","","","","","","","","","","","","","","","","","","","","","","","","",""
"640","<p style=""color:white; font-size: 35px;"">卑鄙</p>","i","categorize-html","43","113816","0.0-6.0-1.0-4.0-1.4","4","3","4","4","4","3","4","3","4","4","5","5","5","5","5","5","5","5","5","5","1","1","1","1","2","1","1","5","1","1","0","1","1","0","0","0","1","0","1","0","1","0","0","1","5","1","4","1","4","1","4","5","2","1","1","786950840366800897","黄","294","","","","","","","","","","","","","","","","","","","true","12","2","moral","640","negative","卑鄙","","","","","","","","","","","","","","","","",""
"null","","null","html-keyboard-response","44","114094","0.0-6.0-1.0-4.0-0.5","4","3","4","4","4","3","4","3","4","4","5","5","5","5","5","5","5","5","5","5","1","1","1","1","2","1","1","5","1","1","0","1","1","0","0","0","1","0","1","0","1","0","0","1","5","1","4","1","4","1","4","5","2","1","1","786950840366800897","黄","294","","","","","","","","","","","","","","","","","","","","","","","","","","","","","","","","","","","","","","","","","",""
"600","<p style=""color:white; font-size: 35px;"">君子</p>","e","categorize-html","45","114703","0.0-6.0-1.0-4.0-1.5","4","3","4","4","4","3","4","3","4","4","5","5","5","5","5","5","5","5","5","5","1","1","1","1","2","1","1","5","1","1","0","1","1","0","0","0","1","0","1","0","1","0","0","1","5","1","4","1","4","1","4","5","2","1","1","786950840366800897","黄","294","","","","","","","","","","","","","","","","","","","true","12","2","moral","600","positive","君子","","","","","","","","","","","","","","","","",""
"null","","null","html-keyboard-response","46","114960","0.0-6.0-1.0-4.0-0.6","4","3","4","4","4","3","4","3","4","4","5","5","5","5","5","5","5","5","5","5","1","1","1","1","2","1","1","5","1","1","0","1","1","0","0","0","1","0","1","0","1","0","0","1","5","1","4","1","4","1","4","5","2","1","1","786950840366800897","黄","294","","","","","","","","","","","","","","","","","","","","","","","","","","","","","","","","","","","","","","","","","",""
"793","<p style=""color:white; font-size: 35px;"">诚信</p>","e","categorize-html","47","115764","0.0-6.0-1.0-4.0-1.6","4","3","4","4","4","3","4","3","4","4","5","5","5","5","5","5","5","5","5","5","1","1","1","1","2","1","1","5","1","1","0","1","1","0","0","0","1","0","1","0","1","0","0","1","5","1","4","1","4","1","4","5","2","1","1","786950840366800897","黄","294","","","","","","","","","","","","","","","","","","","true","12","2","moral","793","positive","诚信","","","","","","","","","","","","","","","","",""
"null","","null","html-keyboard-response","48","116019","0.0-6.0-1.0-4.0-0.7","4","3","4","4","4","3","4","3","4","4","5","5","5","5","5","5","5","5","5","5","1","1","1","1","2","1","1","5","1","1","0","1","1","0","0","0","1","0","1","0","1","0","0","1","5","1","4","1","4","1","4","5","2","1","1","786950840366800897","黄","294","","","","","","","","","","","","","","","","","","","","","","","","","","","","","","","","","","","","","","","","","",""
"552","<p style=""color:white; font-size: 35px;"">高尚</p>","e","categorize-html","49","116582","0.0-6.0-1.0-4.0-1.7","4","3","4","4","4","3","4","3","4","4","5","5","5","5","5","5","5","5","5","5","1","1","1","1","2","1","1","5","1","1","0","1","1","0","0","0","1","0","1","0","1","0","0","1","5","1","4","1","4","1","4","5","2","1","1","786950840366800897","黄","294","","","","","","","","","","","","","","","","","","","true","12","2","moral","552","positive","高尚","","","","","","","","","","","","","","","","",""
"null","","null","html-keyboard-response","50","116835","0.0-6.0-1.0-4.0-0.8","4","3","4","4","4","3","4","3","4","4","5","5","5","5","5","5","5","5","5","5","1","1","1","1","2","1","1","5","1","1","0","1","1","0","0","0","1","0","1","0","1","0","0","1","5","1","4","1","4","1","4","5","2","1","1","786950840366800897","黄","294","","","","","","","","","","","","","","","","","","","","","","","","","","","","","","","","","","","","","","","","","",""
"614","<p style=""color:white; font-size: 35px;"">廉正</p>","e","categorize-html","51","117459","0.0-6.0-1.0-4.0-1.8","4","3","4","4","4","3","4","3","4","4","5","5","5","5","5","5","5","5","5","5","1","1","1","1","2","1","1","5","1","1","0","1","1","0","0","0","1","0","1","0","1","0","0","1","5","1","4","1","4","1","4","5","2","1","1","786950840366800897","黄","294","","","","","","","","","","","","","","","","","","","true","12","2","moral","614","positive","廉正","","","","","","","","","","","","","","","","",""
"null","","null","html-keyboard-response","52","117713","0.0-6.0-1.0-4.0-0.9","4","3","4","4","4","3","4","3","4","4","5","5","5","5","5","5","5","5","5","5","1","1","1","1","2","1","1","5","1","1","0","1","1","0","0","0","1","0","1","0","1","0","0","1","5","1","4","1","4","1","4","5","2","1","1","786950840366800897","黄","294","","","","","","","","","","","","","","","","","","","","","","","","","","","","","","","","","","","","","","","","","",""
"608","<p style=""color:white; font-size: 35px;"">缺德</p>","i","categorize-html","53","118331","0.0-6.0-1.0-4.0-1.9","4","3","4","4","4","3","4","3","4","4","5","5","5","5","5","5","5","5","5","5","1","1","1","1","2","1","1","5","1","1","0","1","1","0","0","0","1","0","1","0","1","0","0","1","5","1","4","1","4","1","4","5","2","1","1","786950840366800897","黄","294","","","","","","","","","","","","","","","","","","","true","12","2","moral","608","negative","缺德","","","","","","","","","","","","","","","","",""
"null","","null","html-keyboard-response","54","118587","0.0-6.0-1.0-4.0-0.10","4","3","4","4","4","3","4","3","4","4","5","5","5","5","5","5","5","5","5","5","1","1","1","1","2","1","1","5","1","1","0","1","1","0","0","0","1","0","1","0","1","0","0","1","5","1","4","1","4","1","4","5","2","1","1","786950840366800897","黄","294","","","","","","","","","","","","","","","","","","","","","","","","","","","","","","","","","","","","","","","","","",""
"618","<p style=""color:white; font-size: 35px;"">不孝</p>","i","categorize-html","55","119215","0.0-6.0-1.0-4.0-1.10","4","3","4","4","4","3","4","3","4","4","5","5","5","5","5","5","5","5","5","5","1","1","1","1","2","1","1","5","1","1","0","1","1","0","0","0","1","0","1","0","1","0","0","1","5","1","4","1","4","1","4","5","2","1","1","786950840366800897","黄","294","","","","","","","","","","","","","","","","","","","true","12","2","moral","618","negative","不孝","","","","","","","","","","","","","","","","",""
"null","","null","html-keyboard-response","56","119468","0.0-6.0-1.0-4.0-0.11","4","3","4","4","4","3","4","3","4","4","5","5","5","5","5","5","5","5","5","5","1","1","1","1","2","1","1","5","1","1","0","1","1","0","0","0","1","0","1","0","1","0","0","1","5","1","4","1","4","1","4","5","2","1","1","786950840366800897","黄","294","","","","","","","","","","","","","","","","","","","","","","","","","","","","","","","","","","","","","","","","","",""
"583","<p style=""color:white; font-size: 35px;"">黑心</p>","i","categorize-html","57","120063","0.0-6.0-1.0-4.0-1.11","4","3","4","4","4","3","4","3","4","4","5","5","5","5","5","5","5","5","5","5","1","1","1","1","2","1","1","5","1","1","0","1","1","0","0","0","1","0","1","0","1","0","0","1","5","1","4","1","4","1","4","5","2","1","1","786950840366800897","黄","294","","","","","","","","","","","","","","","","","","","true","12","2","moral","583","negative","黑心","","","","","","","","","","","","","","","","",""
"944","
    <div class=""tag-bottom""><p>
    —— 任务3：对“自我/积极”词和“他人/消极”词分类 ——<p/>
    <span style=""color:#78DCE8""><b>注意上方，之前的四类词语将混合在一起交替呈现</b></span><p/>
    <span style=""color:#FFD866""><b>请根据上方标签的提示，尽可能正确并且快速地做出按键反应</b></span><p/>
    当按键错误时屏幕中会出现<span style=""color:red""> X </span>，需要按另一个键纠正才能继续<br/><p/>
    请把双手食指分别放在键盘的“E”键和“I”键上<p/>
    按<空格键>开始
    </p></div>"," ","html-keyboard-response","58","121012","0.0-6.0-1.0-5.0","4","3","4","4","4","3","4","3","4","4","5","5","5","5","5","5","5","5","5","5","1","1","1","1","2","1","1","5","1","1","0","1","1","0","0","0","1","0","1","0","1","0","0","1","5","1","4","1","4","1","4","5","2","1","1","786950840366800897","黄","294","","","","","","","","","","","","","","","","","","","","","","","","","","","","","","","","","","","","","","","","","",""
"null","","null","html-keyboard-response","59","121265","0.0-6.0-1.0-6.0-0.0","4","3","4","4","4","3","4","3","4","4","5","5","5","5","5","5","5","5","5","5","1","1","1","1","2","1","1","5","1","1","0","1","1","0","0","0","1","0","1","0","1","0","0","1","5","1","4","1","4","1","4","5","2","1","1","786950840366800897","黄","294","","","","","","","","","","","","","","","","","","","","","","","","","","","","","","","","","","","","","","","","","",""
"1032","<p style=""color:rgb(150, 250, 100); font-size: 35px;"">自己</p>","e","categorize-html","60","122310","0.0-6.0-1.0-6.0-1.0","4","3","4","4","4","3","4","3","4","4","5","5","5","5","5","5","5","5","5","5","1","1","1","1","2","1","1","5","1","1","0","1","1","0","0","0","1","0","1","0","1","0","0","1","5","1","4","1","4","1","4","5","2","1","1","786950840366800897","黄","294","","","","","","","","","","","","","","","","","","","true","13","3","moral","1032","self","自己","","","","","","","","","","","","","","","","",""
"null","","null","html-keyboard-response","61","122563","0.0-6.0-1.0-6.0-0.1","4","3","4","4","4","3","4","3","4","4","5","5","5","5","5","5","5","5","5","5","1","1","1","1","2","1","1","5","1","1","0","1","1","0","0","0","1","0","1","0","1","0","0","1","5","1","4","1","4","1","4","5","2","1","1","786950840366800897","黄","294","","","","","","","","","","","","","","","","","","","","","","","","","","","","","","","","","","","","","","","","","",""
"706","<p style=""color:white; font-size: 35px;"">不孝</p>","i","categorize-html","62","123280","0.0-6.0-1.0-6.0-1.1","4","3","4","4","4","3","4","3","4","4","5","5","5","5","5","5","5","5","5","5","1","1","1","1","2","1","1","5","1","1","0","1","1","0","0","0","1","0","1","0","1","0","0","1","5","1","4","1","4","1","4","5","2","1","1","786950840366800897","黄","294","","","","","","","","","","","","","","","","","","","true","13","3","moral","706","negative","不孝","","","","","","","","","","","","","","","","",""
"null","","null","html-keyboard-response","63","123537","0.0-6.0-1.0-6.0-0.2","4","3","4","4","4","3","4","3","4","4","5","5","5","5","5","5","5","5","5","5","1","1","1","1","2","1","1","5","1","1","0","1","1","0","0","0","1","0","1","0","1","0","0","1","5","1","4","1","4","1","4","5","2","1","1","786950840366800897","黄","294","","","","","","","","","","","","","","","","","","","","","","","","","","","","","","","","","","","","","","","","","",""
"955","<p style=""color:rgb(150, 250, 100); font-size: 35px;"">他人</p>","i","categorize-html","64","124503","0.0-6.0-1.0-6.0-1.2","4","3","4","4","4","3","4","3","4","4","5","5","5","5","5","5","5","5","5","5","1","1","1","1","2","1","1","5","1","1","0","1","1","0","0","0","1","0","1","0","1","0","0","1","5","1","4","1","4","1","4","5","2","1","1","786950840366800897","黄","294","","","","","","","","","","","","","","","","","","","true","13","3","moral","955","other","他人","","","","","","","","","","","","","","","","",""
"null","","null","html-keyboard-response","65","124762","0.0-6.0-1.0-6.0-0.3","4","3","4","4","4","3","4","3","4","4","5","5","5","5","5","5","5","5","5","5","1","1","1","1","2","1","1","5","1","1","0","1","1","0","0","0","1","0","1","0","1","0","0","1","5","1","4","1","4","1","4","5","2","1","1","786950840366800897","黄","294","","","","","","","","","","","","","","","","","","","","","","","","","","","","","","","","","","","","","","","","","",""
"792","<p style=""color:white; font-size: 35px;"">正直</p>","e","categorize-html","66","125565","0.0-6.0-1.0-6.0-1.3","4","3","4","4","4","3","4","3","4","4","5","5","5","5","5","5","5","5","5","5","1","1","1","1","2","1","1","5","1","1","0","1","1","0","0","0","1","0","1","0","1","0","0","1","5","1","4","1","4","1","4","5","2","1","1","786950840366800897","黄","294","","","","","","","","","","","","","","","","","","","true","13","3","moral","792","positive","正直","","","","","","","","","","","","","","","","",""
"null","","null","html-keyboard-response","67","125822","0.0-6.0-1.0-6.0-0.4","4","3","4","4","4","3","4","3","4","4","5","5","5","5","5","5","5","5","5","5","1","1","1","1","2","1","1","5","1","1","0","1","1","0","0","0","1","0","1","0","1","0","0","1","5","1","4","1","4","1","4","5","2","1","1","786950840366800897","黄","294","","","","","","","","","","","","","","","","","","","","","","","","","","","","","","","","","","","","","","","","","",""
"593","<p style=""color:rgb(150, 250, 100); font-size: 35px;"">自己的</p>","e","categorize-html","68","126425","0.0-6.0-1.0-6.0-1.4","4","3","4","4","4","3","4","3","4","4","5","5","5","5","5","5","5","5","5","5","1","1","1","1","2","1","1","5","1","1","0","1","1","0","0","0","1","0","1","0","1","0","0","1","5","1","4","1","4","1","4","5","2","1","1","786950840366800897","黄","294","","","","","","","","","","","","","","","","","","","true","13","3","moral","593","self","自己的","","","","","","","","","","","","","","","","",""
"null","","null","html-keyboard-response","69","126686","0.0-6.0-1.0-6.0-0.5","4","3","4","4","4","3","4","3","4","4","5","5","5","5","5","5","5","5","5","5","1","1","1","1","2","1","1","5","1","1","0","1","1","0","0","0","1","0","1","0","1","0","0","1","5","1","4","1","4","1","4","5","2","1","1","786950840366800897","黄","294","","","","","","","","","","","","","","","","","","","","","","","","","","","","","","","","","","","","","","","","","",""
"640","<p style=""color:white; font-size: 35px;"">诚信</p>","e","categorize-html","70","127336","0.0-6.0-1.0-6.0-1.5","4","3","4","4","4","3","4","3","4","4","5","5","5","5","5","5","5","5","5","5","1","1","1","1","2","1","1","5","1","1","0","1","1","0","0","0","1","0","1","0","1","0","0","1","5","1","4","1","4","1","4","5","2","1","1","786950840366800897","黄","294","","","","","","","","","","","","","","","","","","","true","13","3","moral","640","positive","诚信","","","","","","","","","","","","","","","","",""
"null","","null","html-keyboard-response","71","127589","0.0-6.0-1.0-6.0-0.6","4","3","4","4","4","3","4","3","4","4","5","5","5","5","5","5","5","5","5","5","1","1","1","1","2","1","1","5","1","1","0","1","1","0","0","0","1","0","1","0","1","0","0","1","5","1","4","1","4","1","4","5","2","1","1","786950840366800897","黄","294","","","","","","","","","","","","","","","","","","","","","","","","","","","","","","","","","","","","","","","","","",""
"632","<p style=""color:rgb(150, 250, 100); font-size: 35px;"">别人</p>","i","categorize-html","72","128231","0.0-6.0-1.0-6.0-1.6","4","3","4","4","4","3","4","3","4","4","5","5","5","5","5","5","5","5","5","5","1","1","1","1","2","1","1","5","1","1","0","1","1","0","0","0","1","0","1","0","1","0","0","1","5","1","4","1","4","1","4","5","2","1","1","786950840366800897","黄","294","","","","","","","","","","","","","","","","","","","true","13","3","moral","632","other","别人","","","","","","","","","","","","","","","","",""
"null","","null","html-keyboard-response","73","128485","0.0-6.0-1.0-6.0-0.7","4","3","4","4","4","3","4","3","4","4","5","5","5","5","5","5","5","5","5","5","1","1","1","1","2","1","1","5","1","1","0","1","1","0","0","0","1","0","1","0","1","0","0","1","5","1","4","1","4","1","4","5","2","1","1","786950840366800897","黄","294","","","","","","","","","","","","","","","","","","","","","","","","","","","","","","","","","","","","","","","","","",""
"799","<p style=""color:white; font-size: 35px;"">缺德</p>","i","categorize-html","74","129289","0.0-6.0-1.0-6.0-1.7","4","3","4","4","4","3","4","3","4","4","5","5","5","5","5","5","5","5","5","5","1","1","1","1","2","1","1","5","1","1","0","1","1","0","0","0","1","0","1","0","1","0","0","1","5","1","4","1","4","1","4","5","2","1","1","786950840366800897","黄","294","","","","","","","","","","","","","","","","","","","true","13","3","moral","799","negative","缺德","","","","","","","","","","","","","","","","",""
"null","","null","html-keyboard-response","75","129541","0.0-6.0-1.0-6.0-0.8","4","3","4","4","4","3","4","3","4","4","5","5","5","5","5","5","5","5","5","5","1","1","1","1","2","1","1","5","1","1","0","1","1","0","0","0","1","0","1","0","1","0","0","1","5","1","4","1","4","1","4","5","2","1","1","786950840366800897","黄","294","","","","","","","","","","","","","","","","","","","","","","","","","","","","","","","","","","","","","","","","","",""
"683","<p style=""color:rgb(150, 250, 100); font-size: 35px;"">他人的</p>","i","categorize-html","76","130235","0.0-6.0-1.0-6.0-1.8","4","3","4","4","4","3","4","3","4","4","5","5","5","5","5","5","5","5","5","5","1","1","1","1","2","1","1","5","1","1","0","1","1","0","0","0","1","0","1","0","1","0","0","1","5","1","4","1","4","1","4","5","2","1","1","786950840366800897","黄","294","","","","","","","","","","","","","","","","","","","true","13","3","moral","683","other","他人的","","","","","","","","","","","","","","","","",""
"null","","null","html-keyboard-response","77","130493","0.0-6.0-1.0-6.0-0.9","4","3","4","4","4","3","4","3","4","4","5","5","5","5","5","5","5","5","5","5","1","1","1","1","2","1","1","5","1","1","0","1","1","0","0","0","1","0","1","0","1","0","0","1","5","1","4","1","4","1","4","5","2","1","1","786950840366800897","黄","294","","","","","","","","","","","","","","","","","","","","","","","","","","","","","","","","","","","","","","","","","",""
"634","<p style=""color:white; font-size: 35px;"">善良</p>","e","categorize-html","78","131137","0.0-6.0-1.0-6.0-1.9","4","3","4","4","4","3","4","3","4","4","5","5","5","5","5","5","5","5","5","5","1","1","1","1","2","1","1","5","1","1","0","1","1","0","0","0","1","0","1","0","1","0","0","1","5","1","4","1","4","1","4","5","2","1","1","786950840366800897","黄","294","","","","","","","","","","","","","","","","","","","true","13","3","moral","634","positive","善良","","","","","","","","","","","","","","","","",""
"null","","null","html-keyboard-response","79","131394","0.0-6.0-1.0-6.0-0.10","4","3","4","4","4","3","4","3","4","4","5","5","5","5","5","5","5","5","5","5","1","1","1","1","2","1","1","5","1","1","0","1","1","0","0","0","1","0","1","0","1","0","0","1","5","1","4","1","4","1","4","5","2","1","1","786950840366800897","黄","294","","","","","","","","","","","","","","","","","","","","","","","","","","","","","","","","","","","","","","","","","",""
"631","<p style=""color:rgb(150, 250, 100); font-size: 35px;"">我的</p>","e","categorize-html","80","132038","0.0-6.0-1.0-6.0-1.10","4","3","4","4","4","3","4","3","4","4","5","5","5","5","5","5","5","5","5","5","1","1","1","1","2","1","1","5","1","1","0","1","1","0","0","0","1","0","1","0","1","0","0","1","5","1","4","1","4","1","4","5","2","1","1","786950840366800897","黄","294","","","","","","","","","","","","","","","","","","","true","13","3","moral","631","self","我的","","","","","","","","","","","","","","","","",""
"null","","null","html-keyboard-response","81","132284","0.0-6.0-1.0-6.0-0.11","4","3","4","4","4","3","4","3","4","4","5","5","5","5","5","5","5","5","5","5","1","1","1","1","2","1","1","5","1","1","0","1","1","0","0","0","1","0","1","0","1","0","0","1","5","1","4","1","4","1","4","5","2","1","1","786950840366800897","黄","294","","","","","","","","","","","","","","","","","","","","","","","","","","","","","","","","","","","","","","","","","",""
"553","<p style=""color:white; font-size: 35px;"">黑心</p>","i","categorize-html","82","132848","0.0-6.0-1.0-6.0-1.11","4","3","4","4","4","3","4","3","4","4","5","5","5","5","5","5","5","5","5","5","1","1","1","1","2","1","1","5","1","1","0","1","1","0","0","0","1","0","1","0","1","0","0","1","5","1","4","1","4","1","4","5","2","1","1","786950840366800897","黄","294","","","","","","","","","","","","","","","","","","","true","13","3","moral","553","negative","黑心","","","","","","","","","","","","","","","","",""
"null","","null","html-keyboard-response","83","133106","0.0-6.0-1.0-6.0-0.12","4","3","4","4","4","3","4","3","4","4","5","5","5","5","5","5","5","5","5","5","1","1","1","1","2","1","1","5","1","1","0","1","1","0","0","0","1","0","1","0","1","0","0","1","5","1","4","1","4","1","4","5","2","1","1","786950840366800897","黄","294","","","","","","","","","","","","","","","","","","","","","","","","","","","","","","","","","","","","","","","","","",""
"656","<p style=""color:rgb(150, 250, 100); font-size: 35px;"">本人</p>","e","categorize-html","84","133774","0.0-6.0-1.0-6.0-1.12","4","3","4","4","4","3","4","3","4","4","5","5","5","5","5","5","5","5","5","5","1","1","1","1","2","1","1","5","1","1","0","1","1","0","0","0","1","0","1","0","1","0","0","1","5","1","4","1","4","1","4","5","2","1","1","786950840366800897","黄","294","","","","","","","","","","","","","","","","","","","true","13","3","moral","656","self","本人","","","","","","","","","","","","","","","","",""
"null","","null","html-keyboard-response","85","134031","0.0-6.0-1.0-6.0-0.13","4","3","4","4","4","3","4","3","4","4","5","5","5","5","5","5","5","5","5","5","1","1","1","1","2","1","1","5","1","1","0","1","1","0","0","0","1","0","1","0","1","0","0","1","5","1","4","1","4","1","4","5","2","1","1","786950840366800897","黄","294","","","","","","","","","","","","","","","","","","","","","","","","","","","","","","","","","","","","","","","","","",""
"709","<p style=""color:white; font-size: 35px;"">卑鄙</p>","i","categorize-html","86","134752","0.0-6.0-1.0-6.0-1.13","4","3","4","4","4","3","4","3","4","4","5","5","5","5","5","5","5","5","5","5","1","1","1","1","2","1","1","5","1","1","0","1","1","0","0","0","1","0","1","0","1","0","0","1","5","1","4","1","4","1","4","5","2","1","1","786950840366800897","黄","294","","","","","","","","","","","","","","","","","","","true","13","3","moral","709","negative","卑鄙","","","","","","","","","","","","","","","","",""
"null","","null","html-keyboard-response","87","135009","0.0-6.0-1.0-6.0-0.14","4","3","4","4","4","3","4","3","4","4","5","5","5","5","5","5","5","5","5","5","1","1","1","1","2","1","1","5","1","1","0","1","1","0","0","0","1","0","1","0","1","0","0","1","5","1","4","1","4","1","4","5","2","1","1","786950840366800897","黄","294","","","","","","","","","","","","","","","","","","","","","","","","","","","","","","","","","","","","","","","","","",""
"595","<p style=""color:rgb(150, 250, 100); font-size: 35px;"">他的</p>","i","categorize-html","88","135615","0.0-6.0-1.0-6.0-1.14","4","3","4","4","4","3","4","3","4","4","5","5","5","5","5","5","5","5","5","5","1","1","1","1","2","1","1","5","1","1","0","1","1","0","0","0","1","0","1","0","1","0","0","1","5","1","4","1","4","1","4","5","2","1","1","786950840366800897","黄","294","","","","","","","","","","","","","","","","","","","true","13","3","moral","595","other","他的","","","","","","","","","","","","","","","","",""
"null","","null","html-keyboard-response","89","135873","0.0-6.0-1.0-6.0-0.15","4","3","4","4","4","3","4","3","4","4","5","5","5","5","5","5","5","5","5","5","1","1","1","1","2","1","1","5","1","1","0","1","1","0","0","0","1","0","1","0","1","0","0","1","5","1","4","1","4","1","4","5","2","1","1","786950840366800897","黄","294","","","","","","","","","","","","","","","","","","","","","","","","","","","","","","","","","","","","","","","","","",""
"644","<p style=""color:white; font-size: 35px;"">廉正</p>","e","categorize-html","90","136528","0.0-6.0-1.0-6.0-1.15","4","3","4","4","4","3","4","3","4","4","5","5","5","5","5","5","5","5","5","5","1","1","1","1","2","1","1","5","1","1","0","1","1","0","0","0","1","0","1","0","1","0","0","1","5","1","4","1","4","1","4","5","2","1","1","786950840366800897","黄","294","","","","","","","","","","","","","","","","","","","true","13","3","moral","644","positive","廉正","","","","","","","","","","","","","","","","",""
"null","","null","html-keyboard-response","91","136782","0.0-6.0-1.0-6.0-0.16","4","3","4","4","4","3","4","3","4","4","5","5","5","5","5","5","5","5","5","5","1","1","1","1","2","1","1","5","1","1","0","1","1","0","0","0","1","0","1","0","1","0","0","1","5","1","4","1","4","1","4","5","2","1","1","786950840366800897","黄","294","","","","","","","","","","","","","","","","","","","","","","","","","","","","","","","","","","","","","","","","","",""
"602","<p style=""color:rgb(150, 250, 100); font-size: 35px;"">本人的</p>","e","categorize-html","92","137396","0.0-6.0-1.0-6.0-1.16","4","3","4","4","4","3","4","3","4","4","5","5","5","5","5","5","5","5","5","5","1","1","1","1","2","1","1","5","1","1","0","1","1","0","0","0","1","0","1","0","1","0","0","1","5","1","4","1","4","1","4","5","2","1","1","786950840366800897","黄","294","","","","","","","","","","","","","","","","","","","true","13","3","moral","602","self","本人的","","","","","","","","","","","","","","","","",""
"null","","null","html-keyboard-response","93","137649","0.0-6.0-1.0-6.0-0.17","4","3","4","4","4","3","4","3","4","4","5","5","5","5","5","5","5","5","5","5","1","1","1","1","2","1","1","5","1","1","0","1","1","0","0","0","1","0","1","0","1","0","0","1","5","1","4","1","4","1","4","5","2","1","1","786950840366800897","黄","294","","","","","","","","","","","","","","","","","","","","","","","","","","","","","","","","","","","","","","","","","",""
"638","<p style=""color:white; font-size: 35px;"">不仁</p>","i","categorize-html","94","138305","0.0-6.0-1.0-6.0-1.17","4","3","4","4","4","3","4","3","4","4","5","5","5","5","5","5","5","5","5","5","1","1","1","1","2","1","1","5","1","1","0","1","1","0","0","0","1","0","1","0","1","0","0","1","5","1","4","1","4","1","4","5","2","1","1","786950840366800897","黄","294","","","","","","","","","","","","","","","","","","","true","13","3","moral","638","negative","不仁","","","","","","","","","","","","","","","","",""
"null","","null","html-keyboard-response","95","138558","0.0-6.0-1.0-6.0-0.18","4","3","4","4","4","3","4","3","4","4","5","5","5","5","5","5","5","5","5","5","1","1","1","1","2","1","1","5","1","1","0","1","1","0","0","0","1","0","1","0","1","0","0","1","5","1","4","1","4","1","4","5","2","1","1","786950840366800897","黄","294","","","","","","","","","","","","","","","","","","","","","","","","","","","","","","","","","","","","","","","","","",""
"602","<p style=""color:rgb(150, 250, 100); font-size: 35px;"">他</p>","i","categorize-html","96","139171","0.0-6.0-1.0-6.0-1.18","4","3","4","4","4","3","4","3","4","4","5","5","5","5","5","5","5","5","5","5","1","1","1","1","2","1","1","5","1","1","0","1","1","0","0","0","1","0","1","0","1","0","0","1","5","1","4","1","4","1","4","5","2","1","1","786950840366800897","黄","294","","","","","","","","","","","","","","","","","","","true","13","3","moral","602","other","他","","","","","","","","","","","","","","","","",""
"null","","null","html-keyboard-response","97","139429","0.0-6.0-1.0-6.0-0.19","4","3","4","4","4","3","4","3","4","4","5","5","5","5","5","5","5","5","5","5","1","1","1","1","2","1","1","5","1","1","0","1","1","0","0","0","1","0","1","0","1","0","0","1","5","1","4","1","4","1","4","5","2","1","1","786950840366800897","黄","294","","","","","","","","","","","","","","","","","","","","","","","","","","","","","","","","","","","","","","","","","",""
"589","<p style=""color:white; font-size: 35px;"">高尚</p>","e","categorize-html","98","140026","0.0-6.0-1.0-6.0-1.19","4","3","4","4","4","3","4","3","4","4","5","5","5","5","5","5","5","5","5","5","1","1","1","1","2","1","1","5","1","1","0","1","1","0","0","0","1","0","1","0","1","0","0","1","5","1","4","1","4","1","4","5","2","1","1","786950840366800897","黄","294","","","","","","","","","","","","","","","","","","","true","13","3","moral","589","positive","高尚","","","","","","","","","","","","","","","","",""
"null","","null","html-keyboard-response","99","140277","0.0-6.0-1.0-6.0-0.20","4","3","4","4","4","3","4","3","4","4","5","5","5","5","5","5","5","5","5","5","1","1","1","1","2","1","1","5","1","1","0","1","1","0","0","0","1","0","1","0","1","0","0","1","5","1","4","1","4","1","4","5","2","1","1","786950840366800897","黄","294","","","","","","","","","","","","","","","","","","","","","","","","","","","","","","","","","","","","","","","","","",""
"785","<p style=""color:rgb(150, 250, 100); font-size: 35px;"">别人的</p>","i","categorize-html","100","141074","0.0-6.0-1.0-6.0-1.20","4","3","4","4","4","3","4","3","4","4","5","5","5","5","5","5","5","5","5","5","1","1","1","1","2","1","1","5","1","1","0","1","1","0","0","0","1","0","1","0","1","0","0","1","5","1","4","1","4","1","4","5","2","1","1","786950840366800897","黄","294","","","","","","","","","","","","","","","","","","","true","13","3","moral","785","other","别人的","","","","","","","","","","","","","","","","",""
"null","","null","html-keyboard-response","101","141327","0.0-6.0-1.0-6.0-0.21","4","3","4","4","4","3","4","3","4","4","5","5","5","5","5","5","5","5","5","5","1","1","1","1","2","1","1","5","1","1","0","1","1","0","0","0","1","0","1","0","1","0","0","1","5","1","4","1","4","1","4","5","2","1","1","786950840366800897","黄","294","","","","","","","","","","","","","","","","","","","","","","","","","","","","","","","","","","","","","","","","","",""
"650","<p style=""color:white; font-size: 35px;"">君子</p>","e","categorize-html","102","141988","0.0-6.0-1.0-6.0-1.21","4","3","4","4","4","3","4","3","4","4","5","5","5","5","5","5","5","5","5","5","1","1","1","1","2","1","1","5","1","1","0","1","1","0","0","0","1","0","1","0","1","0","0","1","5","1","4","1","4","1","4","5","2","1","1","786950840366800897","黄","294","","","","","","","","","","","","","","","","","","","true","13","3","moral","650","positive","君子","","","","","","","","","","","","","","","","",""
"null","","null","html-keyboard-response","103","142248","0.0-6.0-1.0-6.0-0.22","4","3","4","4","4","3","4","3","4","4","5","5","5","5","5","5","5","5","5","5","1","1","1","1","2","1","1","5","1","1","0","1","1","0","0","0","1","0","1","0","1","0","0","1","5","1","4","1","4","1","4","5","2","1","1","786950840366800897","黄","294","","","","","","","","","","","","","","","","","","","","","","","","","","","","","","","","","","","","","","","","","",""
"531","<p style=""color:rgb(150, 250, 100); font-size: 35px;"">我</p>","e","categorize-html","104","142790","0.0-6.0-1.0-6.0-1.22","4","3","4","4","4","3","4","3","4","4","5","5","5","5","5","5","5","5","5","5","1","1","1","1","2","1","1","5","1","1","0","1","1","0","0","0","1","0","1","0","1","0","0","1","5","1","4","1","4","1","4","5","2","1","1","786950840366800897","黄","294","","","","","","","","","","","","","","","","","","","true","13","3","moral","531","self","我","","","","","","","","","","","","","","","","",""
"null","","null","html-keyboard-response","105","143044","0.0-6.0-1.0-6.0-0.23","4","3","4","4","4","3","4","3","4","4","5","5","5","5","5","5","5","5","5","5","1","1","1","1","2","1","1","5","1","1","0","1","1","0","0","0","1","0","1","0","1","0","0","1","5","1","4","1","4","1","4","5","2","1","1","786950840366800897","黄","294","","","","","","","","","","","","","","","","","","","","","","","","","","","","","","","","","","","","","","","","","",""
"536","<p style=""color:white; font-size: 35px;"">小人</p>","e","categorize-html","106","144208","0.0-6.0-1.0-6.0-1.23","4","3","4","4","4","3","4","3","4","4","5","5","5","5","5","5","5","5","5","5","1","1","1","1","2","1","1","5","1","1","0","1","1","0","0","0","1","0","1","0","1","0","0","1","5","1","4","1","4","1","4","5","2","1","1","786950840366800897","黄","294","","","","","","","","","","","","","","","","","","","false","13","3","moral","1280.4782608695652","negative","小人","","","","","","","","","","","","","","","","",""
"713","
    <div class=""tag-bottom""><p>
    —— 任务4：对“自我/积极”词和“他人/消极”词分类 ——<p/>
    <span style=""color:#78DCE8""><b>与刚才的任务完全相同，请再次对这四类词语分类</b></span><p/>
    <span style=""color:#FFD866""><b>请根据上方标签的提示，尽可能正确并且快速地做出按键反应</b></span><p/>
    当按键错误时屏幕中会出现<span style=""color:red""> X </span>，需要按另一个键纠正才能继续<br/><p/>
    请把双手食指分别放在键盘的“E”键和“I”键上<p/>
    按<空格键>开始
    </p></div>"," ","html-keyboard-response","107","144923","0.0-6.0-1.0-7.0","4","3","4","4","4","3","4","3","4","4","5","5","5","5","5","5","5","5","5","5","1","1","1","1","2","1","1","5","1","1","0","1","1","0","0","0","1","0","1","0","1","0","0","1","5","1","4","1","4","1","4","5","2","1","1","786950840366800897","黄","294","","","","","","","","","","","","","","","","","","","","","","","","","","","","","","","","","","","","","","","","","",""
"null","","null","html-keyboard-response","108","145176","0.0-6.0-1.0-8.0-0.0","4","3","4","4","4","3","4","3","4","4","5","5","5","5","5","5","5","5","5","5","1","1","1","1","2","1","1","5","1","1","0","1","1","0","0","0","1","0","1","0","1","0","0","1","5","1","4","1","4","1","4","5","2","1","1","786950840366800897","黄","294","","","","","","","","","","","","","","","","","","","","","","","","","","","","","","","","","","","","","","","","","",""
"1176","<p style=""color:rgb(150, 250, 100); font-size: 35px;"">我的</p>","e","categorize-html","109","146364","0.0-6.0-1.0-8.0-1.0","4","3","4","4","4","3","4","3","4","4","5","5","5","5","5","5","5","5","5","5","1","1","1","1","2","1","1","5","1","1","0","1","1","0","0","0","1","0","1","0","1","0","0","1","5","1","4","1","4","1","4","5","2","1","1","786950840366800897","黄","294","","","","","","","","","","","","","","","","","","","true","14","4","moral","1176","self","我的","","","","","","","","","","","","","","","","",""
"null","","null","html-keyboard-response","110","146618","0.0-6.0-1.0-8.0-0.1","4","3","4","4","4","3","4","3","4","4","5","5","5","5","5","5","5","5","5","5","1","1","1","1","2","1","1","5","1","1","0","1","1","0","0","0","1","0","1","0","1","0","0","1","5","1","4","1","4","1","4","5","2","1","1","786950840366800897","黄","294","","","","","","","","","","","","","","","","","","","","","","","","","","","","","","","","","","","","","","","","","",""
"554","<p style=""color:white; font-size: 35px;"">君子</p>","e","categorize-html","111","147183","0.0-6.0-1.0-8.0-1.1","4","3","4","4","4","3","4","3","4","4","5","5","5","5","5","5","5","5","5","5","1","1","1","1","2","1","1","5","1","1","0","1","1","0","0","0","1","0","1","0","1","0","0","1","5","1","4","1","4","1","4","5","2","1","1","786950840366800897","黄","294","","","","","","","","","","","","","","","","","","","true","14","4","moral","554","positive","君子","","","","","","","","","","","","","","","","",""
"null","","null","html-keyboard-response","112","147440","0.0-6.0-1.0-8.0-0.2","4","3","4","4","4","3","4","3","4","4","5","5","5","5","5","5","5","5","5","5","1","1","1","1","2","1","1","5","1","1","0","1","1","0","0","0","1","0","1","0","1","0","0","1","5","1","4","1","4","1","4","5","2","1","1","786950840366800897","黄","294","","","","","","","","","","","","","","","","","","","","","","","","","","","","","","","","","","","","","","","","","",""
"658","<p style=""color:rgb(150, 250, 100); font-size: 35px;"">别人的</p>","i","categorize-html","113","148111","0.0-6.0-1.0-8.0-1.2","4","3","4","4","4","3","4","3","4","4","5","5","5","5","5","5","5","5","5","5","1","1","1","1","2","1","1","5","1","1","0","1","1","0","0","0","1","0","1","0","1","0","0","1","5","1","4","1","4","1","4","5","2","1","1","786950840366800897","黄","294","","","","","","","","","","","","","","","","","","","true","14","4","moral","658","other","别人的","","","","","","","","","","","","","","","","",""
"null","","null","html-keyboard-response","114","148368","0.0-6.0-1.0-8.0-0.3","4","3","4","4","4","3","4","3","4","4","5","5","5","5","5","5","5","5","5","5","1","1","1","1","2","1","1","5","1","1","0","1","1","0","0","0","1","0","1","0","1","0","0","1","5","1","4","1","4","1","4","5","2","1","1","786950840366800897","黄","294","","","","","","","","","","","","","","","","","","","","","","","","","","","","","","","","","","","","","","","","","",""
"702","<p style=""color:white; font-size: 35px;"">缺德</p>","i","categorize-html","115","149076","0.0-6.0-1.0-8.0-1.3","4","3","4","4","4","3","4","3","4","4","5","5","5","5","5","5","5","5","5","5","1","1","1","1","2","1","1","5","1","1","0","1","1","0","0","0","1","0","1","0","1","0","0","1","5","1","4","1","4","1","4","5","2","1","1","786950840366800897","黄","294","","","","","","","","","","","","","","","","","","","true","14","4","moral","702","negative","缺德","","","","","","","","","","","","","","","","",""
"null","","null","html-keyboard-response","116","149331","0.0-6.0-1.0-8.0-0.4","4","3","4","4","4","3","4","3","4","4","5","5","5","5","5","5","5","5","5","5","1","1","1","1","2","1","1","5","1","1","0","1","1","0","0","0","1","0","1","0","1","0","0","1","5","1","4","1","4","1","4","5","2","1","1","786950840366800897","黄","294","","","","","","","","","","","","","","","","","","","","","","","","","","","","","","","","","","","","","","","","","",""
"727","<p style=""color:rgb(150, 250, 100); font-size: 35px;"">他的</p>","i","categorize-html","117","150069","0.0-6.0-1.0-8.0-1.4","4","3","4","4","4","3","4","3","4","4","5","5","5","5","5","5","5","5","5","5","1","1","1","1","2","1","1","5","1","1","0","1","1","0","0","0","1","0","1","0","1","0","0","1","5","1","4","1","4","1","4","5","2","1","1","786950840366800897","黄","294","","","","","","","","","","","","","","","","","","","true","14","4","moral","727","other","他的","","","","","","","","","","","","","","","","",""
"null","","null","html-keyboard-response","118","150322","0.0-6.0-1.0-8.0-0.5","4","3","4","4","4","3","4","3","4","4","5","5","5","5","5","5","5","5","5","5","1","1","1","1","2","1","1","5","1","1","0","1","1","0","0","0","1","0","1","0","1","0","0","1","5","1","4","1","4","1","4","5","2","1","1","786950840366800897","黄","294","","","","","","","","","","","","","","","","","","","","","","","","","","","","","","","","","","","","","","","","","",""
"643","<p style=""color:white; font-size: 35px;"">诚信</p>","e","categorize-html","119","150975","0.0-6.0-1.0-8.0-1.5","4","3","4","4","4","3","4","3","4","4","5","5","5","5","5","5","5","5","5","5","1","1","1","1","2","1","1","5","1","1","0","1","1","0","0","0","1","0","1","0","1","0","0","1","5","1","4","1","4","1","4","5","2","1","1","786950840366800897","黄","294","","","","","","","","","","","","","","","","","","","true","14","4","moral","643","positive","诚信","","","","","","","","","","","","","","","","",""
"null","","null","html-keyboard-response","120","151232","0.0-6.0-1.0-8.0-0.6","4","3","4","4","4","3","4","3","4","4","5","5","5","5","5","5","5","5","5","5","1","1","1","1","2","1","1","5","1","1","0","1","1","0","0","0","1","0","1","0","1","0","0","1","5","1","4","1","4","1","4","5","2","1","1","786950840366800897","黄","294","","","","","","","","","","","","","","","","","","","","","","","","","","","","","","","","","","","","","","","","","",""
"725","<p style=""color:rgb(150, 250, 100); font-size: 35px;"">我</p>","e","categorize-html","121","151967","0.0-6.0-1.0-8.0-1.6","4","3","4","4","4","3","4","3","4","4","5","5","5","5","5","5","5","5","5","5","1","1","1","1","2","1","1","5","1","1","0","1","1","0","0","0","1","0","1","0","1","0","0","1","5","1","4","1","4","1","4","5","2","1","1","786950840366800897","黄","294","","","","","","","","","","","","","","","","","","","true","14","4","moral","725","self","我","","","","","","","","","","","","","","","","",""
"null","","null","html-keyboard-response","122","152222","0.0-6.0-1.0-8.0-0.7","4","3","4","4","4","3","4","3","4","4","5","5","5","5","5","5","5","5","5","5","1","1","1","1","2","1","1","5","1","1","0","1","1","0","0","0","1","0","1","0","1","0","0","1","5","1","4","1","4","1","4","5","2","1","1","786950840366800897","黄","294","","","","","","","","","","","","","","","","","","","","","","","","","","","","","","","","","","","","","","","","","",""
"758","<p style=""color:white; font-size: 35px;"">不仁</p>","i","categorize-html","123","152990","0.0-6.0-1.0-8.0-1.7","4","3","4","4","4","3","4","3","4","4","5","5","5","5","5","5","5","5","5","5","1","1","1","1","2","1","1","5","1","1","0","1","1","0","0","0","1","0","1","0","1","0","0","1","5","1","4","1","4","1","4","5","2","1","1","786950840366800897","黄","294","","","","","","","","","","","","","","","","","","","true","14","4","moral","758","negative","不仁","","","","","","","","","","","","","","","","",""
"null","","null","html-keyboard-response","124","153248","0.0-6.0-1.0-8.0-0.8","4","3","4","4","4","3","4","3","4","4","5","5","5","5","5","5","5","5","5","5","1","1","1","1","2","1","1","5","1","1","0","1","1","0","0","0","1","0","1","0","1","0","0","1","5","1","4","1","4","1","4","5","2","1","1","786950840366800897","黄","294","","","","","","","","","","","","","","","","","","","","","","","","","","","","","","","","","","","","","","","","","",""
"590","<p style=""color:rgb(150, 250, 100); font-size: 35px;"">别人</p>","i","categorize-html","125","153850","0.0-6.0-1.0-8.0-1.8","4","3","4","4","4","3","4","3","4","4","5","5","5","5","5","5","5","5","5","5","1","1","1","1","2","1","1","5","1","1","0","1","1","0","0","0","1","0","1","0","1","0","0","1","5","1","4","1","4","1","4","5","2","1","1","786950840366800897","黄","294","","","","","","","","","","","","","","","","","","","true","14","4","moral","590","other","别人","","","","","","","","","","","","","","","","",""
"null","","null","html-keyboard-response","126","154103","0.0-6.0-1.0-8.0-0.9","4","3","4","4","4","3","4","3","4","4","5","5","5","5","5","5","5","5","5","5","1","1","1","1","2","1","1","5","1","1","0","1","1","0","0","0","1","0","1","0","1","0","0","1","5","1","4","1","4","1","4","5","2","1","1","786950840366800897","黄","294","","","","","","","","","","","","","","","","","","","","","","","","","","","","","","","","","","","","","","","","","",""
"632","<p style=""color:white; font-size: 35px;"">卑鄙</p>","i","categorize-html","127","154742","0.0-6.0-1.0-8.0-1.9","4","3","4","4","4","3","4","3","4","4","5","5","5","5","5","5","5","5","5","5","1","1","1","1","2","1","1","5","1","1","0","1","1","0","0","0","1","0","1","0","1","0","0","1","5","1","4","1","4","1","4","5","2","1","1","786950840366800897","黄","294","","","","","","","","","","","","","","","","","","","true","14","4","moral","632","negative","卑鄙","","","","","","","","","","","","","","","","",""
"null","","null","html-keyboard-response","128","154994","0.0-6.0-1.0-8.0-0.10","4","3","4","4","4","3","4","3","4","4","5","5","5","5","5","5","5","5","5","5","1","1","1","1","2","1","1","5","1","1","0","1","1","0","0","0","1","0","1","0","1","0","0","1","5","1","4","1","4","1","4","5","2","1","1","786950840366800897","黄","294","","","","","","","","","","","","","","","","","","","","","","","","","","","","","","","","","","","","","","","","","",""
"675","<p style=""color:rgb(150, 250, 100); font-size: 35px;"">自己的</p>","e","categorize-html","129","155680","0.0-6.0-1.0-8.0-1.10","4","3","4","4","4","3","4","3","4","4","5","5","5","5","5","5","5","5","5","5","1","1","1","1","2","1","1","5","1","1","0","1","1","0","0","0","1","0","1","0","1","0","0","1","5","1","4","1","4","1","4","5","2","1","1","786950840366800897","黄","294","","","","","","","","","","","","","","","","","","","true","14","4","moral","675","self","自己的","","","","","","","","","","","","","","","","",""
"null","","null","html-keyboard-response","130","155938","0.0-6.0-1.0-8.0-0.11","4","3","4","4","4","3","4","3","4","4","5","5","5","5","5","5","5","5","5","5","1","1","1","1","2","1","1","5","1","1","0","1","1","0","0","0","1","0","1","0","1","0","0","1","5","1","4","1","4","1","4","5","2","1","1","786950840366800897","黄","294","","","","","","","","","","","","","","","","","","","","","","","","","","","","","","","","","","","","","","","","","",""
"971","<p style=""color:white; font-size: 35px;"">正直</p>","e","categorize-html","131","156918","0.0-6.0-1.0-8.0-1.11","4","3","4","4","4","3","4","3","4","4","5","5","5","5","5","5","5","5","5","5","1","1","1","1","2","1","1","5","1","1","0","1","1","0","0","0","1","0","1","0","1","0","0","1","5","1","4","1","4","1","4","5","2","1","1","786950840366800897","黄","294","","","","","","","","","","","","","","","","","","","true","14","4","moral","971","positive","正直","","","","","","","","","","","","","","","","",""
"null","","null","html-keyboard-response","132","157177","0.0-6.0-1.0-8.0-0.12","4","3","4","4","4","3","4","3","4","4","5","5","5","5","5","5","5","5","5","5","1","1","1","1","2","1","1","5","1","1","0","1","1","0","0","0","1","0","1","0","1","0","0","1","5","1","4","1","4","1","4","5","2","1","1","786950840366800897","黄","294","","","","","","","","","","","","","","","","","","","","","","","","","","","","","","","","","","","","","","","","","",""
"844","<p style=""color:rgb(150, 250, 100); font-size: 35px;"">他</p>","i","categorize-html","133","158032","0.0-6.0-1.0-8.0-1.12","4","3","4","4","4","3","4","3","4","4","5","5","5","5","5","5","5","5","5","5","1","1","1","1","2","1","1","5","1","1","0","1","1","0","0","0","1","0","1","0","1","0","0","1","5","1","4","1","4","1","4","5","2","1","1","786950840366800897","黄","294","","","","","","","","","","","","","","","","","","","true","14","4","moral","844","other","他","","","","","","","","","","","","","","","","",""
"null","","null","html-keyboard-response","134","158289","0.0-6.0-1.0-8.0-0.13","4","3","4","4","4","3","4","3","4","4","5","5","5","5","5","5","5","5","5","5","1","1","1","1","2","1","1","5","1","1","0","1","1","0","0","0","1","0","1","0","1","0","0","1","5","1","4","1","4","1","4","5","2","1","1","786950840366800897","黄","294","","","","","","","","","","","","","","","","","","","","","","","","","","","","","","","","","","","","","","","","","",""
"621","<p style=""color:white; font-size: 35px;"">黑心</p>","i","categorize-html","135","158920","0.0-6.0-1.0-8.0-1.13","4","3","4","4","4","3","4","3","4","4","5","5","5","5","5","5","5","5","5","5","1","1","1","1","2","1","1","5","1","1","0","1","1","0","0","0","1","0","1","0","1","0","0","1","5","1","4","1","4","1","4","5","2","1","1","786950840366800897","黄","294","","","","","","","","","","","","","","","","","","","true","14","4","moral","621","negative","黑心","","","","","","","","","","","","","","","","",""
"null","","null","html-keyboard-response","136","159178","0.0-6.0-1.0-8.0-0.14","4","3","4","4","4","3","4","3","4","4","5","5","5","5","5","5","5","5","5","5","1","1","1","1","2","1","1","5","1","1","0","1","1","0","0","0","1","0","1","0","1","0","0","1","5","1","4","1","4","1","4","5","2","1","1","786950840366800897","黄","294","","","","","","","","","","","","","","","","","","","","","","","","","","","","","","","","","","","","","","","","","",""
"544","<p style=""color:rgb(150, 250, 100); font-size: 35px;"">自己</p>","i","categorize-html","137","160385","0.0-6.0-1.0-8.0-1.14","4","3","4","4","4","3","4","3","4","4","5","5","5","5","5","5","5","5","5","5","1","1","1","1","2","1","1","5","1","1","0","1","1","0","0","0","1","0","1","0","1","0","0","1","5","1","4","1","4","1","4","5","2","1","1","786950840366800897","黄","294","","","","","","","","","","","","","","","","","","","false","14","4","moral","1330.6222222222223","self","自己","","","","","","","","","","","","","","","","",""
"null","","null","html-keyboard-response","138","160640","0.0-6.0-1.0-8.0-0.15","4","3","4","4","4","3","4","3","4","4","5","5","5","5","5","5","5","5","5","5","1","1","1","1","2","1","1","5","1","1","0","1","1","0","0","0","1","0","1","0","1","0","0","1","5","1","4","1","4","1","4","5","2","1","1","786950840366800897","黄","294","","","","","","","","","","","","","","","","","","","","","","","","","","","","","","","","","","","","","","","","","",""
"622","<p style=""color:white; font-size: 35px;"">正直</p>","e","categorize-html","139","161273","0.0-6.0-1.0-8.0-1.15","4","3","4","4","4","3","4","3","4","4","5","5","5","5","5","5","5","5","5","5","1","1","1","1","2","1","1","5","1","1","0","1","1","0","0","0","1","0","1","0","1","0","0","1","5","1","4","1","4","1","4","5","2","1","1","786950840366800897","黄","294","","","","","","","","","","","","","","","","","","","true","14","4","moral","622","positive","正直","","","","","","","","","","","","","","","","",""
"null","","null","html-keyboard-response","140","161538","0.0-6.0-1.0-8.0-0.16","4","3","4","4","4","3","4","3","4","4","5","5","5","5","5","5","5","5","5","5","1","1","1","1","2","1","1","5","1","1","0","1","1","0","0","0","1","0","1","0","1","0","0","1","5","1","4","1","4","1","4","5","2","1","1","786950840366800897","黄","294","","","","","","","","","","","","","","","","","","","","","","","","","","","","","","","","","","","","","","","","","",""
"661","<p style=""color:rgb(150, 250, 100); font-size: 35px;"">他人的</p>","e","categorize-html","141","162820","0.0-6.0-1.0-8.0-1.16","4","3","4","4","4","3","4","3","4","4","5","5","5","5","5","5","5","5","5","5","1","1","1","1","2","1","1","5","1","1","0","1","1","0","0","0","1","0","1","0","1","0","0","1","5","1","4","1","4","1","4","5","2","1","1","786950840366800897","黄","294","","","","","","","","","","","","","","","","","","","false","14","4","moral","1330.6222222222223","other","他人的","","","","","","","","","","","","","","","","",""
"null","","null","html-keyboard-response","142","163072","0.0-6.0-1.0-8.0-0.17","4","3","4","4","4","3","4","3","4","4","5","5","5","5","5","5","5","5","5","5","1","1","1","1","2","1","1","5","1","1","0","1","1","0","0","0","1","0","1","0","1","0","0","1","5","1","4","1","4","1","4","5","2","1","1","786950840366800897","黄","294","","","","","","","","","","","","","","","","","","","","","","","","","","","","","","","","","","","","","","","","","",""
"609","<p style=""color:white; font-size: 35px;"">诚信</p>","e","categorize-html","143","163692","0.0-6.0-1.0-8.0-1.17","4","3","4","4","4","3","4","3","4","4","5","5","5","5","5","5","5","5","5","5","1","1","1","1","2","1","1","5","1","1","0","1","1","0","0","0","1","0","1","0","1","0","0","1","5","1","4","1","4","1","4","5","2","1","1","786950840366800897","黄","294","","","","","","","","","","","","","","","","","","","true","14","4","moral","609","positive","诚信","","","","","","","","","","","","","","","","",""
"null","","null","html-keyboard-response","144","163949","0.0-6.0-1.0-8.0-0.18","4","3","4","4","4","3","4","3","4","4","5","5","5","5","5","5","5","5","5","5","1","1","1","1","2","1","1","5","1","1","0","1","1","0","0","0","1","0","1","0","1","0","0","1","5","1","4","1","4","1","4","5","2","1","1","786950840366800897","黄","294","","","","","","","","","","","","","","","","","","","","","","","","","","","","","","","","","","","","","","","","","",""
"597","<p style=""color:rgb(150, 250, 100); font-size: 35px;"">自己</p>","e","categorize-html","145","164557","0.0-6.0-1.0-8.0-1.18","4","3","4","4","4","3","4","3","4","4","5","5","5","5","5","5","5","5","5","5","1","1","1","1","2","1","1","5","1","1","0","1","1","0","0","0","1","0","1","0","1","0","0","1","5","1","4","1","4","1","4","5","2","1","1","786950840366800897","黄","294","","","","","","","","","","","","","","","","","","","true","14","4","moral","597","self","自己","","","","","","","","","","","","","","","","",""
"null","","null","html-keyboard-response","146","164811","0.0-6.0-1.0-8.0-0.19","4","3","4","4","4","3","4","3","4","4","5","5","5","5","5","5","5","5","5","5","1","1","1","1","2","1","1","5","1","1","0","1","1","0","0","0","1","0","1","0","1","0","0","1","5","1","4","1","4","1","4","5","2","1","1","786950840366800897","黄","294","","","","","","","","","","","","","","","","","","","","","","","","","","","","","","","","","","","","","","","","","",""
"1067","<p style=""color:white; font-size: 35px;"">不孝</p>","i","categorize-html","147","165888","0.0-6.0-1.0-8.0-1.19","4","3","4","4","4","3","4","3","4","4","5","5","5","5","5","5","5","5","5","5","1","1","1","1","2","1","1","5","1","1","0","1","1","0","0","0","1","0","1","0","1","0","0","1","5","1","4","1","4","1","4","5","2","1","1","786950840366800897","黄","294","","","","","","","","","","","","","","","","","","","true","14","4","moral","1067","negative","不孝","","","","","","","","","","","","","","","","",""
"null","","null","html-keyboard-response","148","166143","0.0-6.0-1.0-8.0-0.20","4","3","4","4","4","3","4","3","4","4","5","5","5","5","5","5","5","5","5","5","1","1","1","1","2","1","1","5","1","1","0","1","1","0","0","0","1","0","1","0","1","0","0","1","5","1","4","1","4","1","4","5","2","1","1","786950840366800897","黄","294","","","","","","","","","","","","","","","","","","","","","","","","","","","","","","","","","","","","","","","","","",""
"1219","<p style=""color:rgb(150, 250, 100); font-size: 35px;"">他的</p>","i","categorize-html","149","167372","0.0-6.0-1.0-8.0-1.20","4","3","4","4","4","3","4","3","4","4","5","5","5","5","5","5","5","5","5","5","1","1","1","1","2","1","1","5","1","1","0","1","1","0","0","0","1","0","1","0","1","0","0","1","5","1","4","1","4","1","4","5","2","1","1","786950840366800897","黄","294","","","","","","","","","","","","","","","","","","","true","14","4","moral","1219","other","他的","","","","","","","","","","","","","","","","",""
"null","","null","html-keyboard-response","150","167624","0.0-6.0-1.0-8.0-0.21","4","3","4","4","4","3","4","3","4","4","5","5","5","5","5","5","5","5","5","5","1","1","1","1","2","1","1","5","1","1","0","1","1","0","0","0","1","0","1","0","1","0","0","1","5","1","4","1","4","1","4","5","2","1","1","786950840366800897","黄","294","","","","","","","","","","","","","","","","","","","","","","","","","","","","","","","","","","","","","","","","","",""
"645","<p style=""color:white; font-size: 35px;"">善良</p>","e","categorize-html","151","168281","0.0-6.0-1.0-8.0-1.21","4","3","4","4","4","3","4","3","4","4","5","5","5","5","5","5","5","5","5","5","1","1","1","1","2","1","1","5","1","1","0","1","1","0","0","0","1","0","1","0","1","0","0","1","5","1","4","1","4","1","4","5","2","1","1","786950840366800897","黄","294","","","","","","","","","","","","","","","","","","","true","14","4","moral","645","positive","善良","","","","","","","","","","","","","","","","",""
"null","","null","html-keyboard-response","152","168537","0.0-6.0-1.0-8.0-0.22","4","3","4","4","4","3","4","3","4","4","5","5","5","5","5","5","5","5","5","5","1","1","1","1","2","1","1","5","1","1","0","1","1","0","0","0","1","0","1","0","1","0","0","1","5","1","4","1","4","1","4","5","2","1","1","786950840366800897","黄","294","","","","","","","","","","","","","","","","","","","","","","","","","","","","","","","","","","","","","","","","","",""
"662","<p style=""color:rgb(150, 250, 100); font-size: 35px;"">自己的</p>","e","categorize-html","153","169209","0.0-6.0-1.0-8.0-1.22","4","3","4","4","4","3","4","3","4","4","5","5","5","5","5","5","5","5","5","5","1","1","1","1","2","1","1","5","1","1","0","1","1","0","0","0","1","0","1","0","1","0","0","1","5","1","4","1","4","1","4","5","2","1","1","786950840366800897","黄","294","","","","","","","","","","","","","","","","","","","true","14","4","moral","662","self","自己的","","","","","","","","","","","","","","","","",""
"null","","null","html-keyboard-response","154","169464","0.0-6.0-1.0-8.0-0.23","4","3","4","4","4","3","4","3","4","4","5","5","5","5","5","5","5","5","5","5","1","1","1","1","2","1","1","5","1","1","0","1","1","0","0","0","1","0","1","0","1","0","0","1","5","1","4","1","4","1","4","5","2","1","1","786950840366800897","黄","294","","","","","","","","","","","","","","","","","","","","","","","","","","","","","","","","","","","","","","","","","",""
"979","<p style=""color:white; font-size: 35px;"">小人</p>","i","categorize-html","155","170454","0.0-6.0-1.0-8.0-1.23","4","3","4","4","4","3","4","3","4","4","5","5","5","5","5","5","5","5","5","5","1","1","1","1","2","1","1","5","1","1","0","1","1","0","0","0","1","0","1","0","1","0","0","1","5","1","4","1","4","1","4","5","2","1","1","786950840366800897","黄","294","","","","","","","","","","","","","","","","","","","true","14","4","moral","979","negative","小人","","","","","","","","","","","","","","","","",""
"null","","null","html-keyboard-response","156","170712","0.0-6.0-1.0-8.0-0.24","4","3","4","4","4","3","4","3","4","4","5","5","5","5","5","5","5","5","5","5","1","1","1","1","2","1","1","5","1","1","0","1","1","0","0","0","1","0","1","0","1","0","0","1","5","1","4","1","4","1","4","5","2","1","1","786950840366800897","黄","294","","","","","","","","","","","","","","","","","","","","","","","","","","","","","","","","","","","","","","","","","",""
"699","<p style=""color:rgb(150, 250, 100); font-size: 35px;"">本人</p>","e","categorize-html","157","171422","0.0-6.0-1.0-8.0-1.24","4","3","4","4","4","3","4","3","4","4","5","5","5","5","5","5","5","5","5","5","1","1","1","1","2","1","1","5","1","1","0","1","1","0","0","0","1","0","1","0","1","0","0","1","5","1","4","1","4","1","4","5","2","1","1","786950840366800897","黄","294","","","","","","","","","","","","","","","","","","","true","14","4","moral","699","self","本人","","","","","","","","","","","","","","","","",""
"null","","null","html-keyboard-response","158","171695","0.0-6.0-1.0-8.0-0.25","4","3","4","4","4","3","4","3","4","4","5","5","5","5","5","5","5","5","5","5","1","1","1","1","2","1","1","5","1","1","0","1","1","0","0","0","1","0","1","0","1","0","0","1","5","1","4","1","4","1","4","5","2","1","1","786950840366800897","黄","294","","","","","","","","","","","","","","","","","","","","","","","","","","","","","","","","","","","","","","","","","",""
"681","<p style=""color:white; font-size: 35px;"">君子</p>","e","categorize-html","159","172386","0.0-6.0-1.0-8.0-1.25","4","3","4","4","4","3","4","3","4","4","5","5","5","5","5","5","5","5","5","5","1","1","1","1","2","1","1","5","1","1","0","1","1","0","0","0","1","0","1","0","1","0","0","1","5","1","4","1","4","1","4","5","2","1","1","786950840366800897","黄","294","","","","","","","","","","","","","","","","","","","true","14","4","moral","681","positive","君子","","","","","","","","","","","","","","","","",""
"null","","null","html-keyboard-response","160","172639","0.0-6.0-1.0-8.0-0.26","4","3","4","4","4","3","4","3","4","4","5","5","5","5","5","5","5","5","5","5","1","1","1","1","2","1","1","5","1","1","0","1","1","0","0","0","1","0","1","0","1","0","0","1","5","1","4","1","4","1","4","5","2","1","1","786950840366800897","黄","294","","","","","","","","","","","","","","","","","","","","","","","","","","","","","","","","","","","","","","","","","",""
"1521","<p style=""color:rgb(150, 250, 100); font-size: 35px;"">别人</p>","i","categorize-html","161","174166","0.0-6.0-1.0-8.0-1.26","4","3","4","4","4","3","4","3","4","4","5","5","5","5","5","5","5","5","5","5","1","1","1","1","2","1","1","5","1","1","0","1","1","0","0","0","1","0","1","0","1","0","0","1","5","1","4","1","4","1","4","5","2","1","1","786950840366800897","黄","294","","","","","","","","","","","","","","","","","","","true","14","4","moral","1521","other","别人","","","","","","","","","","","","","","","","",""
"null","","null","html-keyboard-response","162","174420","0.0-6.0-1.0-8.0-0.27","4","3","4","4","4","3","4","3","4","4","5","5","5","5","5","5","5","5","5","5","1","1","1","1","2","1","1","5","1","1","0","1","1","0","0","0","1","0","1","0","1","0","0","1","5","1","4","1","4","1","4","5","2","1","1","786950840366800897","黄","294","","","","","","","","","","","","","","","","","","","","","","","","","","","","","","","","","","","","","","","","","",""
"638","<p style=""color:white; font-size: 35px;"">黑心</p>","i","categorize-html","163","175069","0.0-6.0-1.0-8.0-1.27","4","3","4","4","4","3","4","3","4","4","5","5","5","5","5","5","5","5","5","5","1","1","1","1","2","1","1","5","1","1","0","1","1","0","0","0","1","0","1","0","1","0","0","1","5","1","4","1","4","1","4","5","2","1","1","786950840366800897","黄","294","","","","","","","","","","","","","","","","","","","true","14","4","moral","638","negative","黑心","","","","","","","","","","","","","","","","",""
"null","","null","html-keyboard-response","164","175324","0.0-6.0-1.0-8.0-0.28","4","3","4","4","4","3","4","3","4","4","5","5","5","5","5","5","5","5","5","5","1","1","1","1","2","1","1","5","1","1","0","1","1","0","0","0","1","0","1","0","1","0","0","1","5","1","4","1","4","1","4","5","2","1","1","786950840366800897","黄","294","","","","","","","","","","","","","","","","","","","","","","","","","","","","","","","","","","","","","","","","","",""
"596","<p style=""color:rgb(150, 250, 100); font-size: 35px;"">本人的</p>","e","categorize-html","165","175930","0.0-6.0-1.0-8.0-1.28","4","3","4","4","4","3","4","3","4","4","5","5","5","5","5","5","5","5","5","5","1","1","1","1","2","1","1","5","1","1","0","1","1","0","0","0","1","0","1","0","1","0","0","1","5","1","4","1","4","1","4","5","2","1","1","786950840366800897","黄","294","","","","","","","","","","","","","","","","","","","true","14","4","moral","596","self","本人的","","","","","","","","","","","","","","","","",""
"null","","null","html-keyboard-response","166","176187","0.0-6.0-1.0-8.0-0.29","4","3","4","4","4","3","4","3","4","4","5","5","5","5","5","5","5","5","5","5","1","1","1","1","2","1","1","5","1","1","0","1","1","0","0","0","1","0","1","0","1","0","0","1","5","1","4","1","4","1","4","5","2","1","1","786950840366800897","黄","294","","","","","","","","","","","","","","","","","","","","","","","","","","","","","","","","","","","","","","","","","",""
"634","<p style=""color:white; font-size: 35px;"">高尚</p>","e","categorize-html","167","176832","0.0-6.0-1.0-8.0-1.29","4","3","4","4","4","3","4","3","4","4","5","5","5","5","5","5","5","5","5","5","1","1","1","1","2","1","1","5","1","1","0","1","1","0","0","0","1","0","1","0","1","0","0","1","5","1","4","1","4","1","4","5","2","1","1","786950840366800897","黄","294","","","","","","","","","","","","","","","","","","","true","14","4","moral","634","positive","高尚","","","","","","","","","","","","","","","","",""
"null","","null","html-keyboard-response","168","177085","0.0-6.0-1.0-8.0-0.30","4","3","4","4","4","3","4","3","4","4","5","5","5","5","5","5","5","5","5","5","1","1","1","1","2","1","1","5","1","1","0","1","1","0","0","0","1","0","1","0","1","0","0","1","5","1","4","1","4","1","4","5","2","1","1","786950840366800897","黄","294","","","","","","","","","","","","","","","","","","","","","","","","","","","","","","","","","","","","","","","","","",""
"664","<p style=""color:rgb(150, 250, 100); font-size: 35px;"">别人的</p>","i","categorize-html","169","177759","0.0-6.0-1.0-8.0-1.30","4","3","4","4","4","3","4","3","4","4","5","5","5","5","5","5","5","5","5","5","1","1","1","1","2","1","1","5","1","1","0","1","1","0","0","0","1","0","1","0","1","0","0","1","5","1","4","1","4","1","4","5","2","1","1","786950840366800897","黄","294","","","","","","","","","","","","","","","","","","","true","14","4","moral","664","other","别人的","","","","","","","","","","","","","","","","",""
"null","","null","html-keyboard-response","170","178013","0.0-6.0-1.0-8.0-0.31","4","3","4","4","4","3","4","3","4","4","5","5","5","5","5","5","5","5","5","5","1","1","1","1","2","1","1","5","1","1","0","1","1","0","0","0","1","0","1","0","1","0","0","1","5","1","4","1","4","1","4","5","2","1","1","786950840366800897","黄","294","","","","","","","","","","","","","","","","","","","","","","","","","","","","","","","","","","","","","","","","","",""
"635","<p style=""color:white; font-size: 35px;"">不仁</p>","i","categorize-html","171","178659","0.0-6.0-1.0-8.0-1.31","4","3","4","4","4","3","4","3","4","4","5","5","5","5","5","5","5","5","5","5","1","1","1","1","2","1","1","5","1","1","0","1","1","0","0","0","1","0","1","0","1","0","0","1","5","1","4","1","4","1","4","5","2","1","1","786950840366800897","黄","294","","","","","","","","","","","","","","","","","","","true","14","4","moral","635","negative","不仁","","","","","","","","","","","","","","","","",""
"null","","null","html-keyboard-response","172","178917","0.0-6.0-1.0-8.0-0.32","4","3","4","4","4","3","4","3","4","4","5","5","5","5","5","5","5","5","5","5","1","1","1","1","2","1","1","5","1","1","0","1","1","0","0","0","1","0","1","0","1","0","0","1","5","1","4","1","4","1","4","5","2","1","1","786950840366800897","黄","294","","","","","","","","","","","","","","","","","","","","","","","","","","","","","","","","","","","","","","","","","",""
"600","<p style=""color:rgb(150, 250, 100); font-size: 35px;"">本人的</p>","e","categorize-html","173","179528","0.0-6.0-1.0-8.0-1.32","4","3","4","4","4","3","4","3","4","4","5","5","5","5","5","5","5","5","5","5","1","1","1","1","2","1","1","5","1","1","0","1","1","0","0","0","1","0","1","0","1","0","0","1","5","1","4","1","4","1","4","5","2","1","1","786950840366800897","黄","294","","","","","","","","","","","","","","","","","","","true","14","4","moral","600","self","本人的","","","","","","","","","","","","","","","","",""
"null","","null","html-keyboard-response","174","179785","0.0-6.0-1.0-8.0-0.33","4","3","4","4","4","3","4","3","4","4","5","5","5","5","5","5","5","5","5","5","1","1","1","1","2","1","1","5","1","1","0","1","1","0","0","0","1","0","1","0","1","0","0","1","5","1","4","1","4","1","4","5","2","1","1","786950840366800897","黄","294","","","","","","","","","","","","","","","","","","","","","","","","","","","","","","","","","","","","","","","","","",""
"1087","<p style=""color:white; font-size: 35px;"">缺德</p>","i","categorize-html","175","180883","0.0-6.0-1.0-8.0-1.33","4","3","4","4","4","3","4","3","4","4","5","5","5","5","5","5","5","5","5","5","1","1","1","1","2","1","1","5","1","1","0","1","1","0","0","0","1","0","1","0","1","0","0","1","5","1","4","1","4","1","4","5","2","1","1","786950840366800897","黄","294","","","","","","","","","","","","","","","","","","","true","14","4","moral","1087","negative","缺德","","","","","","","","","","","","","","","","",""
"null","","null","html-keyboard-response","176","181136","0.0-6.0-1.0-8.0-0.34","4","3","4","4","4","3","4","3","4","4","5","5","5","5","5","5","5","5","5","5","1","1","1","1","2","1","1","5","1","1","0","1","1","0","0","0","1","0","1","0","1","0","0","1","5","1","4","1","4","1","4","5","2","1","1","786950840366800897","黄","294","","","","","","","","","","","","","","","","","","","","","","","","","","","","","","","","","","","","","","","","","",""
"582","<p style=""color:rgb(150, 250, 100); font-size: 35px;"">他</p>","i","categorize-html","177","181736","0.0-6.0-1.0-8.0-1.34","4","3","4","4","4","3","4","3","4","4","5","5","5","5","5","5","5","5","5","5","1","1","1","1","2","1","1","5","1","1","0","1","1","0","0","0","1","0","1","0","1","0","0","1","5","1","4","1","4","1","4","5","2","1","1","786950840366800897","黄","294","","","","","","","","","","","","","","","","","","","true","14","4","moral","582","other","他","","","","","","","","","","","","","","","","",""
"null","","null","html-keyboard-response","178","181989","0.0-6.0-1.0-8.0-0.35","4","3","4","4","4","3","4","3","4","4","5","5","5","5","5","5","5","5","5","5","1","1","1","1","2","1","1","5","1","1","0","1","1","0","0","0","1","0","1","0","1","0","0","1","5","1","4","1","4","1","4","5","2","1","1","786950840366800897","黄","294","","","","","","","","","","","","","","","","","","","","","","","","","","","","","","","","","","","","","","","","","",""
"591","<p style=""color:white; font-size: 35px;"">廉正</p>","e","categorize-html","179","182590","0.0-6.0-1.0-8.0-1.35","4","3","4","4","4","3","4","3","4","4","5","5","5","5","5","5","5","5","5","5","1","1","1","1","2","1","1","5","1","1","0","1","1","0","0","0","1","0","1","0","1","0","0","1","5","1","4","1","4","1","4","5","2","1","1","786950840366800897","黄","294","","","","","","","","","","","","","","","","","","","true","14","4","moral","591","positive","廉正","","","","","","","","","","","","","","","","",""
"null","","null","html-keyboard-response","180","182849","0.0-6.0-1.0-8.0-0.36","4","3","4","4","4","3","4","3","4","4","5","5","5","5","5","5","5","5","5","5","1","1","1","1","2","1","1","5","1","1","0","1","1","0","0","0","1","0","1","0","1","0","0","1","5","1","4","1","4","1","4","5","2","1","1","786950840366800897","黄","294","","","","","","","","","","","","","","","","","","","","","","","","","","","","","","","","","","","","","","","","","",""
"875","<p style=""color:rgb(150, 250, 100); font-size: 35px;"">他人</p>","i","categorize-html","181","183734","0.0-6.0-1.0-8.0-1.36","4","3","4","4","4","3","4","3","4","4","5","5","5","5","5","5","5","5","5","5","1","1","1","1","2","1","1","5","1","1","0","1","1","0","0","0","1","0","1","0","1","0","0","1","5","1","4","1","4","1","4","5","2","1","1","786950840366800897","黄","294","","","","","","","","","","","","","","","","","","","true","14","4","moral","875","other","他人","","","","","","","","","","","","","","","","",""
"null","","null","html-keyboard-response","182","183992","0.0-6.0-1.0-8.0-0.37","4","3","4","4","4","3","4","3","4","4","5","5","5","5","5","5","5","5","5","5","1","1","1","1","2","1","1","5","1","1","0","1","1","0","0","0","1","0","1","0","1","0","0","1","5","1","4","1","4","1","4","5","2","1","1","786950840366800897","黄","294","","","","","","","","","","","","","","","","","","","","","","","","","","","","","","","","","","","","","","","","","",""
"574","<p style=""color:white; font-size: 35px;"">不孝</p>","i","categorize-html","183","184570","0.0-6.0-1.0-8.0-1.37","4","3","4","4","4","3","4","3","4","4","5","5","5","5","5","5","5","5","5","5","1","1","1","1","2","1","1","5","1","1","0","1","1","0","0","0","1","0","1","0","1","0","0","1","5","1","4","1","4","1","4","5","2","1","1","786950840366800897","黄","294","","","","","","","","","","","","","","","","","","","true","14","4","moral","574","negative","不孝","","","","","","","","","","","","","","","","",""
"null","","null","html-keyboard-response","184","184822","0.0-6.0-1.0-8.0-0.38","4","3","4","4","4","3","4","3","4","4","5","5","5","5","5","5","5","5","5","5","1","1","1","1","2","1","1","5","1","1","0","1","1","0","0","0","1","0","1","0","1","0","0","1","5","1","4","1","4","1","4","5","2","1","1","786950840366800897","黄","294","","","","","","","","","","","","","","","","","","","","","","","","","","","","","","","","","","","","","","","","","",""
"641","<p style=""color:rgb(150, 250, 100); font-size: 35px;"">我</p>","e","categorize-html","185","185476","0.0-6.0-1.0-8.0-1.38","4","3","4","4","4","3","4","3","4","4","5","5","5","5","5","5","5","5","5","5","1","1","1","1","2","1","1","5","1","1","0","1","1","0","0","0","1","0","1","0","1","0","0","1","5","1","4","1","4","1","4","5","2","1","1","786950840366800897","黄","294","","","","","","","","","","","","","","","","","","","true","14","4","moral","641","self","我","","","","","","","","","","","","","","","","",""
"null","","null","html-keyboard-response","186","185731","0.0-6.0-1.0-8.0-0.39","4","3","4","4","4","3","4","3","4","4","5","5","5","5","5","5","5","5","5","5","1","1","1","1","2","1","1","5","1","1","0","1","1","0","0","0","1","0","1","0","1","0","0","1","5","1","4","1","4","1","4","5","2","1","1","786950840366800897","黄","294","","","","","","","","","","","","","","","","","","","","","","","","","","","","","","","","","","","","","","","","","",""
"558","<p style=""color:white; font-size: 35px;"">善良</p>","e","categorize-html","187","186302","0.0-6.0-1.0-8.0-1.39","4","3","4","4","4","3","4","3","4","4","5","5","5","5","5","5","5","5","5","5","1","1","1","1","2","1","1","5","1","1","0","1","1","0","0","0","1","0","1","0","1","0","0","1","5","1","4","1","4","1","4","5","2","1","1","786950840366800897","黄","294","","","","","","","","","","","","","","","","","","","true","14","4","moral","558","positive","善良","","","","","","","","","","","","","","","","",""
"null","","null","html-keyboard-response","188","186555","0.0-6.0-1.0-8.0-0.40","4","3","4","4","4","3","4","3","4","4","5","5","5","5","5","5","5","5","5","5","1","1","1","1","2","1","1","5","1","1","0","1","1","0","0","0","1","0","1","0","1","0","0","1","5","1","4","1","4","1","4","5","2","1","1","786950840366800897","黄","294","","","","","","","","","","","","","","","","","","","","","","","","","","","","","","","","","","","","","","","","","",""
"547","<p style=""color:rgb(150, 250, 100); font-size: 35px;"">本人</p>","e","categorize-html","189","187113","0.0-6.0-1.0-8.0-1.40","4","3","4","4","4","3","4","3","4","4","5","5","5","5","5","5","5","5","5","5","1","1","1","1","2","1","1","5","1","1","0","1","1","0","0","0","1","0","1","0","1","0","0","1","5","1","4","1","4","1","4","5","2","1","1","786950840366800897","黄","294","","","","","","","","","","","","","","","","","","","true","14","4","moral","547","self","本人","","","","","","","","","","","","","","","","",""
"null","","null","html-keyboard-response","190","187366","0.0-6.0-1.0-8.0-0.41","4","3","4","4","4","3","4","3","4","4","5","5","5","5","5","5","5","5","5","5","1","1","1","1","2","1","1","5","1","1","0","1","1","0","0","0","1","0","1","0","1","0","0","1","5","1","4","1","4","1","4","5","2","1","1","786950840366800897","黄","294","","","","","","","","","","","","","","","","","","","","","","","","","","","","","","","","","","","","","","","","","",""
"573","<p style=""color:white; font-size: 35px;"">高尚</p>","e","categorize-html","191","187949","0.0-6.0-1.0-8.0-1.41","4","3","4","4","4","3","4","3","4","4","5","5","5","5","5","5","5","5","5","5","1","1","1","1","2","1","1","5","1","1","0","1","1","0","0","0","1","0","1","0","1","0","0","1","5","1","4","1","4","1","4","5","2","1","1","786950840366800897","黄","294","","","","","","","","","","","","","","","","","","","true","14","4","moral","573","positive","高尚","","","","","","","","","","","","","","","","",""
"null","","null","html-keyboard-response","192","188202","0.0-6.0-1.0-8.0-0.42","4","3","4","4","4","3","4","3","4","4","5","5","5","5","5","5","5","5","5","5","1","1","1","1","2","1","1","5","1","1","0","1","1","0","0","0","1","0","1","0","1","0","0","1","5","1","4","1","4","1","4","5","2","1","1","786950840366800897","黄","294","","","","","","","","","","","","","","","","","","","","","","","","","","","","","","","","","","","","","","","","","",""
