"rt","stimulus","response","trial_type","trial_index","time_elapsed","internal_node_id","ses_1","ses_2","ses_3","ses_4","ses_5","ses_6","ses_7","ses_8","ses_9","ses_10","coreself_1","coreself_2","coreself_3","coreself_4","coreself_5","coreself_6","coreself_7","coreself_8","coreself_9","coreself_10","SGPS_1","SGPS_2","SGPS_3","SGPS_4","SGPS_5","SGPS_6","SGPS_7","SGPS_8","SGPS_9","NPI1","NPI2","NPI3","NPI4","NPI5","NPI6","NPI7","NPI8","NPI9","NPI10","NPI11","NPI12","NPI13","NPI14","NPI15","hsns_1","hsns_2","hsns_3","hsns_4","hsns_5","trap1","hsns_6","hsns_7","hsns_8","hsns_9","hsns_10","subj_idx","friend_name","ParticipantID","value","success","user_agent","responses","item_order","radio_event_ids","radio_event_times","key_event_times","mouse_event_times","straightlining","zigzagging","honeypot","timeout","failed_images","failed_audio","failed_video","version_attrib","version_target","correct","IAT","screen_id","task_id","RT","condition","word","varname","summary","version_attrib2","version_target2","time_stamp","view_history","response_type","key_press","avg_frame_time","center_x","center_y","correct_response","identity","Image","question_order","correct_answer","trap1_item"
"5300","
   <p><div style = ""color: white;font-size:25px;"">您好，欢迎参加本次实验。</div> </p>
   <p><div style = ""color: white;font-size:25px;"">为充分保障您的权利，请确保您已经知晓并同意《参与实验同意书》以及《数据公开知情同意书》。</div></p>
   <p><div style = ""color: white;font-size:25px;"">如果您未见过上述内容，请咨询实验员。</div></p>
   <p><div style = ""color: white;font-size:25px;"">如果您选择继续实验，则表示您已经清楚两份知情同意书的内容并同意。</div></p>
   <p><div style = ""color: pink;font-size:30px;"">请确保您记得day0的实验编号，您将在本次实验输入该编号，若您忘记，请咨询实验员后作答。</div></p>
   <p><div style = ""color: lightblue;font-size:25px;"">请您尽可能认真地作答，我们将依据您在各问卷和按键任务中的作答质量发放报酬。</div></p>
   <p> <div style = ""color: green;font-size:25px;""><按空格键至下页></div> </p>
   "," ","html-keyboard-response","0","5303","0.0-0.0","3","3","4","3","2","3","3","3","4","4","4","3","3","4","4","4","4","4","4","4","2","2","2","2","2","2","2","4","2","1","0","0","0","0","0","0","1","0","0","1","0","1","0","0","4","4","3","2","4","5","3","4","4","3","2","781446149684072450","袁","437","","","","","","","","","","","","","","","","","","","","","","","","","","","","","","","","","","","","","","","","","",""
"","","","call-function","1","5304","0.0-1.0-0.0","3","3","4","3","2","3","3","3","4","4","4","3","3","4","4","4","4","4","4","4","2","2","2","2","2","2","2","4","2","1","0","0","0","0","0","0","1","0","0","1","0","1","0","0","4","4","3","2","4","5","3","4","4","3","2","781446149684072450","袁","437","","","","","","","","","","","","","","","","","","","","","","","","","","","","","","","","","","","","","","","","","",""
"18152","","{""friend_name"":""袁"",""ParticipantID"":""437""}","survey-html-form","2","23456","0.0-1.0-1.0","3","3","4","3","2","3","3","3","4","4","4","3","3","4","4","4","4","4","4","4","2","2","2","2","2","2","2","4","2","1","0","0","0","0","0","0","1","0","0","1","0","1","0","0","4","4","3","2","4","5","3","4","4","3","2","781446149684072450","袁","437","","","","","","","","","","","","","","","","","","","","","","","","","","","","","","","","","","","","","","","","","",""
"","","","fullscreen","3","27673","0.0-2.0","3","3","4","3","2","3","3","3","4","4","4","3","3","4","4","4","4","4","4","4","2","2","2","2","2","2","2","4","2","1","0","0","0","0","0","0","1","0","0","1","0","1","0","0","4","4","3","2","4","5","3","4","4","3","2","781446149684072450","袁","437","","true","{}","","","","","","","","","","","","","","","","","","","","","","","","","","","","","","","","","","","","","","",""
"27765.30000000028","","{""Q01"":""3"",""Q02"":""3"",""Q03"":""4"",""Q04"":""3"",""Q05"":""2"",""Q06"":""3"",""Q07"":""3"",""Q08"":""3"",""Q09"":""4"",""Q10"":""4""}","survey-template","4","55441","0.0-3.0","3","3","4","3","2","3","3","3","4","4","4","3","3","4","4","4","4","4","4","4","2","2","2","2","2","2","2","4","2","1","0","0","0","0","0","0","1","0","0","1","0","1","0","0","4","4","3","2","4","5","3","4","4","3","2","781446149684072450","袁","437","","","","{""Q01"":""3"",""Q02"":""3"",""Q03"":""4"",""Q04"":""3"",""Q05"":""2"",""Q06"":""3"",""Q07"":""3"",""Q08"":""3"",""Q09"":""4"",""Q10"":""4""}","[0,1,2,3,4,5,6,7,8,9]","[""Q01"",""Q02"",""Q03"",""Q04"",""Q05"",""Q06"",""Q07"",""Q08"",""Q10"",""Q09""]","[3867.3000000002794,12252.899999999907,13997.600000000093,17573.80000000028,18403.80000000028,19662.600000000093,21665.700000000186,24097.600000000093,26334.5,26832.700000000186]","[]","[3867.3000000002794,12252.899999999907,13997.600000000093,15083.600000000093,17573.80000000028,18403.80000000028,19662.600000000093,21665.700000000186,24097.600000000093,25310.80000000028,26334.5,26832.700000000186,27764.399999999907]","0.6","0.2222222222222222","0","","","","","","","","","","","","","","","","","","","","","","","","","","","","","",""
"30064.100000000093","","{""Q01"":""4"",""Q02"":""3"",""Q03"":""3"",""Q04"":""4"",""Q05"":""4"",""Q06"":""4"",""Q07"":""4"",""Q08"":""4"",""Q09"":""4"",""Q10"":""4""}","survey-template","5","85510","0.0-4.0","3","3","4","3","2","3","3","3","4","4","4","3","3","4","4","4","4","4","4","4","2","2","2","2","2","2","2","4","2","1","0","0","0","0","0","0","1","0","0","1","0","1","0","0","4","4","3","2","4","5","3","4","4","3","2","781446149684072450","袁","437","","","","{""Q01"":""4"",""Q02"":""3"",""Q03"":""3"",""Q04"":""4"",""Q05"":""4"",""Q06"":""4"",""Q07"":""4"",""Q08"":""4"",""Q09"":""4"",""Q10"":""4""}","[0,1,2,3,4,5,6,7,8,9]","[""Q01"",""Q02"",""Q02"",""Q03"",""Q04"",""Q05"",""Q06"",""Q07"",""Q08"",""Q10"",""Q09""]","[8820.30000000028,9809.100000000093,10818.100000000093,12200.900000000373,15199.5,15893.30000000028,17104.200000000186,17974.100000000093,24142.400000000373,28687.900000000373,29539.600000000093]","[]","[1802.2000000001863,8820.30000000028,9809.100000000093,10818.100000000093,12200.900000000373,13671,15199.5,15893.30000000028,17104.200000000186,17974.100000000093,24142.400000000373,26737.100000000093,28687.900000000373,29539.600000000093,30063.30000000028]","0.4","0.2222222222222222","0","","","","","","","","","","","","","","","","","","","","","","","","","","","","","",""
"","","","preload","6","85727","0.0-5.0","3","3","4","3","2","3","3","3","4","4","4","3","3","4","4","4","4","4","4","4","2","2","2","2","2","2","2","4","2","1","0","0","0","0","0","0","1","0","0","1","0","1","0","0","4","4","3","2","4","5","3","4","4","3","2","781446149684072450","袁","437","","true","","","","","","","","","","","false","[]","[]","[]","","","","","","","","","","","","","","","","","","","","","","","","","",""
"66871","
    <h3>词语分类任务</h3>
    <p>在接下来的任务中，你需要对一系列词语进行分类。</p>
    <p>请先熟悉这些词语，这有利于你完成接下来的任务。</p>
    <table align=""center"" border=1 cellpadding=3 cellspacing=0>
    <tr> <th>类别</th> <th>词语</th> </tr>
    <tr> <td>&emsp;积极&emsp;</td> <td>&emsp;能干、全能、全才、高效、精干、天才&emsp;</td> </tr>
    <tr> <td>&emsp;消极&emsp;</td> <td>&emsp;无能、低能、废物、拙笨、愚钝、蠢笨&emsp;</td> </tr>
    <tr> <td>&emsp;自我&emsp;</td> <td>&emsp;我、我的、自己、自己的、本人、本人的&emsp;</td> </tr>
    <tr> <td>&emsp;他人&emsp;</td> <td>&emsp;他、他的、别人、别人的、他人、他人的&emsp;</td> </tr>
    </table><br/>","0","html-button-response","7","152599","0.0-6.0-0.0-0.0","3","3","4","3","2","3","3","3","4","4","4","3","3","4","4","4","4","4","4","4","2","2","2","2","2","2","2","4","2","1","0","0","0","0","0","0","1","0","0","1","0","1","0","0","4","4","3","2","4","5","3","4","4","3","2","781446149684072450","袁","437","","","","","","","","","","","","","","","","","2","1","","","","","","","","","","","","","","","","","","","","","","","",""
"14798","
    <div class=""tag-bottom"">
    <p> —— 任务1：对“自我”词和“他人”词分类 ——<p/>
    不同词语会出现在屏幕中央，类别标签将始终显示在屏幕上方<p/>   
    <span style=""color:#FFD866""><b>请根据上方标签的提示，尽可能正确并且快速地做出按键反应</b></span><p/>
    当按键错误时屏幕中会出现<span style=""color:red""> X </span>，需要按另一个键纠正才能继续<br/><p/>
    请把双手食指分别放在键盘的“E”键和“I”键上<p/>
    按<空格键>开始
    </p></div>"," ","html-keyboard-response","8","167399","0.0-6.0-0.0-1.0","3","3","4","3","2","3","3","3","4","4","4","3","3","4","4","4","4","4","4","4","2","2","2","2","2","2","2","4","2","1","0","0","0","0","0","0","1","0","0","1","0","1","0","0","4","4","3","2","4","5","3","4","4","3","2","781446149684072450","袁","437","","","","","","","","","","","","","","","","","","","","","","","","","","","","","","","","","","","","","","","","","",""
"null","","null","html-keyboard-response","9","167651","0.0-6.0-0.0-2.0-0.0","3","3","4","3","2","3","3","3","4","4","4","3","3","4","4","4","4","4","4","4","2","2","2","2","2","2","2","4","2","1","0","0","0","0","0","0","1","0","0","1","0","1","0","0","4","4","3","2","4","5","3","4","4","3","2","781446149684072450","袁","437","","","","","","","","","","","","","","","","","","","","","","","","","","","","","","","","","","","","","","","","","",""
"740","<p style=""color:rgb(150, 250, 100); font-size: 35px;"">他人的</p>","i","categorize-html","10","168394","0.0-6.0-0.0-2.0-1.0","3","3","4","3","2","3","3","3","4","4","4","3","3","4","4","4","4","4","4","4","2","2","2","2","2","2","2","4","2","1","0","0","0","0","0","0","1","0","0","1","0","1","0","0","4","4","3","2","4","5","3","4","4","3","2","781446149684072450","袁","437","","","","","","","","","","","","","","","","","","","true","1","1","ability","740","other","他人的","","","","","","","","","","","","","","","","",""
"null","","null","html-keyboard-response","11","168646","0.0-6.0-0.0-2.0-0.1","3","3","4","3","2","3","3","3","4","4","4","3","3","4","4","4","4","4","4","4","2","2","2","2","2","2","2","4","2","1","0","0","0","0","0","0","1","0","0","1","0","1","0","0","4","4","3","2","4","5","3","4","4","3","2","781446149684072450","袁","437","","","","","","","","","","","","","","","","","","","","","","","","","","","","","","","","","","","","","","","","","",""
"552","<p style=""color:rgb(150, 250, 100); font-size: 35px;"">本人的</p>","e","categorize-html","12","169200","0.0-6.0-0.0-2.0-1.1","3","3","4","3","2","3","3","3","4","4","4","3","3","4","4","4","4","4","4","4","2","2","2","2","2","2","2","4","2","1","0","0","0","0","0","0","1","0","0","1","0","1","0","0","4","4","3","2","4","5","3","4","4","3","2","781446149684072450","袁","437","","","","","","","","","","","","","","","","","","","true","1","1","ability","552","self","本人的","","","","","","","","","","","","","","","","",""
"null","","null","html-keyboard-response","13","169452","0.0-6.0-0.0-2.0-0.2","3","3","4","3","2","3","3","3","4","4","4","3","3","4","4","4","4","4","4","4","2","2","2","2","2","2","2","4","2","1","0","0","0","0","0","0","1","0","0","1","0","1","0","0","4","4","3","2","4","5","3","4","4","3","2","781446149684072450","袁","437","","","","","","","","","","","","","","","","","","","","","","","","","","","","","","","","","","","","","","","","","",""
"487","<p style=""color:rgb(150, 250, 100); font-size: 35px;"">他人</p>","i","categorize-html","14","169940","0.0-6.0-0.0-2.0-1.2","3","3","4","3","2","3","3","3","4","4","4","3","3","4","4","4","4","4","4","4","2","2","2","2","2","2","2","4","2","1","0","0","0","0","0","0","1","0","0","1","0","1","0","0","4","4","3","2","4","5","3","4","4","3","2","781446149684072450","袁","437","","","","","","","","","","","","","","","","","","","true","1","1","ability","487","other","他人","","","","","","","","","","","","","","","","",""
"null","","null","html-keyboard-response","15","170192","0.0-6.0-0.0-2.0-0.3","3","3","4","3","2","3","3","3","4","4","4","3","3","4","4","4","4","4","4","4","2","2","2","2","2","2","2","4","2","1","0","0","0","0","0","0","1","0","0","1","0","1","0","0","4","4","3","2","4","5","3","4","4","3","2","781446149684072450","袁","437","","","","","","","","","","","","","","","","","","","","","","","","","","","","","","","","","","","","","","","","","",""
"514","<p style=""color:rgb(150, 250, 100); font-size: 35px;"">本人</p>","e","categorize-html","16","170708","0.0-6.0-0.0-2.0-1.3","3","3","4","3","2","3","3","3","4","4","4","3","3","4","4","4","4","4","4","4","2","2","2","2","2","2","2","4","2","1","0","0","0","0","0","0","1","0","0","1","0","1","0","0","4","4","3","2","4","5","3","4","4","3","2","781446149684072450","袁","437","","","","","","","","","","","","","","","","","","","true","1","1","ability","514","self","本人","","","","","","","","","","","","","","","","",""
"null","","null","html-keyboard-response","17","170959","0.0-6.0-0.0-2.0-0.4","3","3","4","3","2","3","3","3","4","4","4","3","3","4","4","4","4","4","4","4","2","2","2","2","2","2","2","4","2","1","0","0","0","0","0","0","1","0","0","1","0","1","0","0","4","4","3","2","4","5","3","4","4","3","2","781446149684072450","袁","437","","","","","","","","","","","","","","","","","","","","","","","","","","","","","","","","","","","","","","","","","",""
"629","<p style=""color:rgb(150, 250, 100); font-size: 35px;"">他</p>","i","categorize-html","18","171591","0.0-6.0-0.0-2.0-1.4","3","3","4","3","2","3","3","3","4","4","4","3","3","4","4","4","4","4","4","4","2","2","2","2","2","2","2","4","2","1","0","0","0","0","0","0","1","0","0","1","0","1","0","0","4","4","3","2","4","5","3","4","4","3","2","781446149684072450","袁","437","","","","","","","","","","","","","","","","","","","true","1","1","ability","629","other","他","","","","","","","","","","","","","","","","",""
"null","","null","html-keyboard-response","19","171843","0.0-6.0-0.0-2.0-0.5","3","3","4","3","2","3","3","3","4","4","4","3","3","4","4","4","4","4","4","4","2","2","2","2","2","2","2","4","2","1","0","0","0","0","0","0","1","0","0","1","0","1","0","0","4","4","3","2","4","5","3","4","4","3","2","781446149684072450","袁","437","","","","","","","","","","","","","","","","","","","","","","","","","","","","","","","","","","","","","","","","","",""
"432","<p style=""color:rgb(150, 250, 100); font-size: 35px;"">我的</p>","e","categorize-html","20","172276","0.0-6.0-0.0-2.0-1.5","3","3","4","3","2","3","3","3","4","4","4","3","3","4","4","4","4","4","4","4","2","2","2","2","2","2","2","4","2","1","0","0","0","0","0","0","1","0","0","1","0","1","0","0","4","4","3","2","4","5","3","4","4","3","2","781446149684072450","袁","437","","","","","","","","","","","","","","","","","","","true","1","1","ability","432","self","我的","","","","","","","","","","","","","","","","",""
"null","","null","html-keyboard-response","21","172527","0.0-6.0-0.0-2.0-0.6","3","3","4","3","2","3","3","3","4","4","4","3","3","4","4","4","4","4","4","4","2","2","2","2","2","2","2","4","2","1","0","0","0","0","0","0","1","0","0","1","0","1","0","0","4","4","3","2","4","5","3","4","4","3","2","781446149684072450","袁","437","","","","","","","","","","","","","","","","","","","","","","","","","","","","","","","","","","","","","","","","","",""
"601","<p style=""color:rgb(150, 250, 100); font-size: 35px;"">别人的</p>","i","categorize-html","22","173130","0.0-6.0-0.0-2.0-1.6","3","3","4","3","2","3","3","3","4","4","4","3","3","4","4","4","4","4","4","4","2","2","2","2","2","2","2","4","2","1","0","0","0","0","0","0","1","0","0","1","0","1","0","0","4","4","3","2","4","5","3","4","4","3","2","781446149684072450","袁","437","","","","","","","","","","","","","","","","","","","true","1","1","ability","601","other","别人的","","","","","","","","","","","","","","","","",""
"null","","null","html-keyboard-response","23","173382","0.0-6.0-0.0-2.0-0.7","3","3","4","3","2","3","3","3","4","4","4","3","3","4","4","4","4","4","4","4","2","2","2","2","2","2","2","4","2","1","0","0","0","0","0","0","1","0","0","1","0","1","0","0","4","4","3","2","4","5","3","4","4","3","2","781446149684072450","袁","437","","","","","","","","","","","","","","","","","","","","","","","","","","","","","","","","","","","","","","","","","",""
"524","<p style=""color:rgb(150, 250, 100); font-size: 35px;"">别人</p>","i","categorize-html","24","173908","0.0-6.0-0.0-2.0-1.7","3","3","4","3","2","3","3","3","4","4","4","3","3","4","4","4","4","4","4","4","2","2","2","2","2","2","2","4","2","1","0","0","0","0","0","0","1","0","0","1","0","1","0","0","4","4","3","2","4","5","3","4","4","3","2","781446149684072450","袁","437","","","","","","","","","","","","","","","","","","","true","1","1","ability","524","other","别人","","","","","","","","","","","","","","","","",""
"null","","null","html-keyboard-response","25","174160","0.0-6.0-0.0-2.0-0.8","3","3","4","3","2","3","3","3","4","4","4","3","3","4","4","4","4","4","4","4","2","2","2","2","2","2","2","4","2","1","0","0","0","0","0","0","1","0","0","1","0","1","0","0","4","4","3","2","4","5","3","4","4","3","2","781446149684072450","袁","437","","","","","","","","","","","","","","","","","","","","","","","","","","","","","","","","","","","","","","","","","",""
"480","<p style=""color:rgb(150, 250, 100); font-size: 35px;"">自己的</p>","e","categorize-html","26","174642","0.0-6.0-0.0-2.0-1.8","3","3","4","3","2","3","3","3","4","4","4","3","3","4","4","4","4","4","4","4","2","2","2","2","2","2","2","4","2","1","0","0","0","0","0","0","1","0","0","1","0","1","0","0","4","4","3","2","4","5","3","4","4","3","2","781446149684072450","袁","437","","","","","","","","","","","","","","","","","","","true","1","1","ability","480","self","自己的","","","","","","","","","","","","","","","","",""
"null","","null","html-keyboard-response","27","174893","0.0-6.0-0.0-2.0-0.9","3","3","4","3","2","3","3","3","4","4","4","3","3","4","4","4","4","4","4","4","2","2","2","2","2","2","2","4","2","1","0","0","0","0","0","0","1","0","0","1","0","1","0","0","4","4","3","2","4","5","3","4","4","3","2","781446149684072450","袁","437","","","","","","","","","","","","","","","","","","","","","","","","","","","","","","","","","","","","","","","","","",""
"487","<p style=""color:rgb(150, 250, 100); font-size: 35px;"">他的</p>","i","categorize-html","28","175382","0.0-6.0-0.0-2.0-1.9","3","3","4","3","2","3","3","3","4","4","4","3","3","4","4","4","4","4","4","4","2","2","2","2","2","2","2","4","2","1","0","0","0","0","0","0","1","0","0","1","0","1","0","0","4","4","3","2","4","5","3","4","4","3","2","781446149684072450","袁","437","","","","","","","","","","","","","","","","","","","true","1","1","ability","487","other","他的","","","","","","","","","","","","","","","","",""
"null","","null","html-keyboard-response","29","175634","0.0-6.0-0.0-2.0-0.10","3","3","4","3","2","3","3","3","4","4","4","3","3","4","4","4","4","4","4","4","2","2","2","2","2","2","2","4","2","1","0","0","0","0","0","0","1","0","0","1","0","1","0","0","4","4","3","2","4","5","3","4","4","3","2","781446149684072450","袁","437","","","","","","","","","","","","","","","","","","","","","","","","","","","","","","","","","","","","","","","","","",""
"421","<p style=""color:rgb(150, 250, 100); font-size: 35px;"">自己</p>","e","categorize-html","30","176056","0.0-6.0-0.0-2.0-1.10","3","3","4","3","2","3","3","3","4","4","4","3","3","4","4","4","4","4","4","4","2","2","2","2","2","2","2","4","2","1","0","0","0","0","0","0","1","0","0","1","0","1","0","0","4","4","3","2","4","5","3","4","4","3","2","781446149684072450","袁","437","","","","","","","","","","","","","","","","","","","true","1","1","ability","421","self","自己","","","","","","","","","","","","","","","","",""
"null","","null","html-keyboard-response","31","176307","0.0-6.0-0.0-2.0-0.11","3","3","4","3","2","3","3","3","4","4","4","3","3","4","4","4","4","4","4","4","2","2","2","2","2","2","2","4","2","1","0","0","0","0","0","0","1","0","0","1","0","1","0","0","4","4","3","2","4","5","3","4","4","3","2","781446149684072450","袁","437","","","","","","","","","","","","","","","","","","","","","","","","","","","","","","","","","","","","","","","","","",""
"425","<p style=""color:rgb(150, 250, 100); font-size: 35px;"">我</p>","e","categorize-html","32","176734","0.0-6.0-0.0-2.0-1.11","3","3","4","3","2","3","3","3","4","4","4","3","3","4","4","4","4","4","4","4","2","2","2","2","2","2","2","4","2","1","0","0","0","0","0","0","1","0","0","1","0","1","0","0","4","4","3","2","4","5","3","4","4","3","2","781446149684072450","袁","437","","","","","","","","","","","","","","","","","","","true","1","1","ability","425","self","我","","","","","","","","","","","","","","","","",""
"4760","
    <div class=""tag-bottom""><p>
    —— 任务2：对“消极”词和“积极”词分类 ——<p/>   
    <span style=""color:#78DCE8""><b>注意上方，类别标签和需要分类的词语都已经改变</b></span><p/>
    <span style=""color:#FFD866""><b>请根据上方标签的提示，尽可能正确并且快速地做出按键反应</b></span><p/>
    当按键错误时屏幕中会出现<span style=""color:red""> X </span>，需要按另一个键纠正才能继续<br/><p/>
    请把双手食指分别放在键盘的“E”键和“I”键上<p/>
    按<空格键>开始
    </p></div>"," ","html-keyboard-response","33","181495","0.0-6.0-0.0-3.0","3","3","4","3","2","3","3","3","4","4","4","3","3","4","4","4","4","4","4","4","2","2","2","2","2","2","2","4","2","1","0","0","0","0","0","0","1","0","0","1","0","1","0","0","4","4","3","2","4","5","3","4","4","3","2","781446149684072450","袁","437","","","","","","","","","","","","","","","","","","","","","","","","","","","","","","","","","","","","","","","","","",""
"null","","null","html-keyboard-response","34","181747","0.0-6.0-0.0-4.0-0.0","3","3","4","3","2","3","3","3","4","4","4","3","3","4","4","4","4","4","4","4","2","2","2","2","2","2","2","4","2","1","0","0","0","0","0","0","1","0","0","1","0","1","0","0","4","4","3","2","4","5","3","4","4","3","2","781446149684072450","袁","437","","","","","","","","","","","","","","","","","","","","","","","","","","","","","","","","","","","","","","","","","",""
"1073","<p style=""color:white; font-size: 35px;"">无能</p>","e","categorize-html","35","182822","0.0-6.0-0.0-4.0-1.0","3","3","4","3","2","3","3","3","4","4","4","3","3","4","4","4","4","4","4","4","2","2","2","2","2","2","2","4","2","1","0","0","0","0","0","0","1","0","0","1","0","1","0","0","4","4","3","2","4","5","3","4","4","3","2","781446149684072450","袁","437","","","","","","","","","","","","","","","","","","","true","2","2","ability","1073","negative","无能","","","","","","","","","","","","","","","","",""
"null","","null","html-keyboard-response","36","183073","0.0-6.0-0.0-4.0-0.1","3","3","4","3","2","3","3","3","4","4","4","3","3","4","4","4","4","4","4","4","2","2","2","2","2","2","2","4","2","1","0","0","0","0","0","0","1","0","0","1","0","1","0","0","4","4","3","2","4","5","3","4","4","3","2","781446149684072450","袁","437","","","","","","","","","","","","","","","","","","","","","","","","","","","","","","","","","","","","","","","","","",""
"528","<p style=""color:white; font-size: 35px;"">蠢笨</p>","e","categorize-html","37","183603","0.0-6.0-0.0-4.0-1.1","3","3","4","3","2","3","3","3","4","4","4","3","3","4","4","4","4","4","4","4","2","2","2","2","2","2","2","4","2","1","0","0","0","0","0","0","1","0","0","1","0","1","0","0","4","4","3","2","4","5","3","4","4","3","2","781446149684072450","袁","437","","","","","","","","","","","","","","","","","","","true","2","2","ability","528","negative","蠢笨","","","","","","","","","","","","","","","","",""
"null","","null","html-keyboard-response","38","183854","0.0-6.0-0.0-4.0-0.2","3","3","4","3","2","3","3","3","4","4","4","3","3","4","4","4","4","4","4","4","2","2","2","2","2","2","2","4","2","1","0","0","0","0","0","0","1","0","0","1","0","1","0","0","4","4","3","2","4","5","3","4","4","3","2","781446149684072450","袁","437","","","","","","","","","","","","","","","","","","","","","","","","","","","","","","","","","","","","","","","","","",""
"492","<p style=""color:white; font-size: 35px;"">低能</p>","e","categorize-html","39","184348","0.0-6.0-0.0-4.0-1.2","3","3","4","3","2","3","3","3","4","4","4","3","3","4","4","4","4","4","4","4","2","2","2","2","2","2","2","4","2","1","0","0","0","0","0","0","1","0","0","1","0","1","0","0","4","4","3","2","4","5","3","4","4","3","2","781446149684072450","袁","437","","","","","","","","","","","","","","","","","","","true","2","2","ability","492","negative","低能","","","","","","","","","","","","","","","","",""
"null","","null","html-keyboard-response","40","184599","0.0-6.0-0.0-4.0-0.3","3","3","4","3","2","3","3","3","4","4","4","3","3","4","4","4","4","4","4","4","2","2","2","2","2","2","2","4","2","1","0","0","0","0","0","0","1","0","0","1","0","1","0","0","4","4","3","2","4","5","3","4","4","3","2","781446149684072450","袁","437","","","","","","","","","","","","","","","","","","","","","","","","","","","","","","","","","","","","","","","","","",""
"444","<p style=""color:white; font-size: 35px;"">精干</p>","i","categorize-html","41","185044","0.0-6.0-0.0-4.0-1.3","3","3","4","3","2","3","3","3","4","4","4","3","3","4","4","4","4","4","4","4","2","2","2","2","2","2","2","4","2","1","0","0","0","0","0","0","1","0","0","1","0","1","0","0","4","4","3","2","4","5","3","4","4","3","2","781446149684072450","袁","437","","","","","","","","","","","","","","","","","","","true","2","2","ability","444","positive","精干","","","","","","","","","","","","","","","","",""
"null","","null","html-keyboard-response","42","185296","0.0-6.0-0.0-4.0-0.4","3","3","4","3","2","3","3","3","4","4","4","3","3","4","4","4","4","4","4","4","2","2","2","2","2","2","2","4","2","1","0","0","0","0","0","0","1","0","0","1","0","1","0","0","4","4","3","2","4","5","3","4","4","3","2","781446149684072450","袁","437","","","","","","","","","","","","","","","","","","","","","","","","","","","","","","","","","","","","","","","","","",""
"392","<p style=""color:white; font-size: 35px;"">能干</p>","i","categorize-html","43","185690","0.0-6.0-0.0-4.0-1.4","3","3","4","3","2","3","3","3","4","4","4","3","3","4","4","4","4","4","4","4","2","2","2","2","2","2","2","4","2","1","0","0","0","0","0","0","1","0","0","1","0","1","0","0","4","4","3","2","4","5","3","4","4","3","2","781446149684072450","袁","437","","","","","","","","","","","","","","","","","","","true","2","2","ability","392","positive","能干","","","","","","","","","","","","","","","","",""
"null","","null","html-keyboard-response","44","185941","0.0-6.0-0.0-4.0-0.5","3","3","4","3","2","3","3","3","4","4","4","3","3","4","4","4","4","4","4","4","2","2","2","2","2","2","2","4","2","1","0","0","0","0","0","0","1","0","0","1","0","1","0","0","4","4","3","2","4","5","3","4","4","3","2","781446149684072450","袁","437","","","","","","","","","","","","","","","","","","","","","","","","","","","","","","","","","","","","","","","","","",""
"413","<p style=""color:white; font-size: 35px;"">全能</p>","i","categorize-html","45","186356","0.0-6.0-0.0-4.0-1.5","3","3","4","3","2","3","3","3","4","4","4","3","3","4","4","4","4","4","4","4","2","2","2","2","2","2","2","4","2","1","0","0","0","0","0","0","1","0","0","1","0","1","0","0","4","4","3","2","4","5","3","4","4","3","2","781446149684072450","袁","437","","","","","","","","","","","","","","","","","","","true","2","2","ability","413","positive","全能","","","","","","","","","","","","","","","","",""
"null","","null","html-keyboard-response","46","186608","0.0-6.0-0.0-4.0-0.6","3","3","4","3","2","3","3","3","4","4","4","3","3","4","4","4","4","4","4","4","2","2","2","2","2","2","2","4","2","1","0","0","0","0","0","0","1","0","0","1","0","1","0","0","4","4","3","2","4","5","3","4","4","3","2","781446149684072450","袁","437","","","","","","","","","","","","","","","","","","","","","","","","","","","","","","","","","","","","","","","","","",""
"459","<p style=""color:white; font-size: 35px;"">高效</p>","i","categorize-html","47","187068","0.0-6.0-0.0-4.0-1.6","3","3","4","3","2","3","3","3","4","4","4","3","3","4","4","4","4","4","4","4","2","2","2","2","2","2","2","4","2","1","0","0","0","0","0","0","1","0","0","1","0","1","0","0","4","4","3","2","4","5","3","4","4","3","2","781446149684072450","袁","437","","","","","","","","","","","","","","","","","","","true","2","2","ability","459","positive","高效","","","","","","","","","","","","","","","","",""
"null","","null","html-keyboard-response","48","187320","0.0-6.0-0.0-4.0-0.7","3","3","4","3","2","3","3","3","4","4","4","3","3","4","4","4","4","4","4","4","2","2","2","2","2","2","2","4","2","1","0","0","0","0","0","0","1","0","0","1","0","1","0","0","4","4","3","2","4","5","3","4","4","3","2","781446149684072450","袁","437","","","","","","","","","","","","","","","","","","","","","","","","","","","","","","","","","","","","","","","","","",""
"483","<p style=""color:white; font-size: 35px;"">拙笨</p>","e","categorize-html","49","187804","0.0-6.0-0.0-4.0-1.7","3","3","4","3","2","3","3","3","4","4","4","3","3","4","4","4","4","4","4","4","2","2","2","2","2","2","2","4","2","1","0","0","0","0","0","0","1","0","0","1","0","1","0","0","4","4","3","2","4","5","3","4","4","3","2","781446149684072450","袁","437","","","","","","","","","","","","","","","","","","","true","2","2","ability","483","negative","拙笨","","","","","","","","","","","","","","","","",""
"null","","null","html-keyboard-response","50","188055","0.0-6.0-0.0-4.0-0.8","3","3","4","3","2","3","3","3","4","4","4","3","3","4","4","4","4","4","4","4","2","2","2","2","2","2","2","4","2","1","0","0","0","0","0","0","1","0","0","1","0","1","0","0","4","4","3","2","4","5","3","4","4","3","2","781446149684072450","袁","437","","","","","","","","","","","","","","","","","","","","","","","","","","","","","","","","","","","","","","","","","",""
"438","<p style=""color:white; font-size: 35px;"">废物</p>","e","categorize-html","51","188494","0.0-6.0-0.0-4.0-1.8","3","3","4","3","2","3","3","3","4","4","4","3","3","4","4","4","4","4","4","4","2","2","2","2","2","2","2","4","2","1","0","0","0","0","0","0","1","0","0","1","0","1","0","0","4","4","3","2","4","5","3","4","4","3","2","781446149684072450","袁","437","","","","","","","","","","","","","","","","","","","true","2","2","ability","438","negative","废物","","","","","","","","","","","","","","","","",""
"null","","null","html-keyboard-response","52","188746","0.0-6.0-0.0-4.0-0.9","3","3","4","3","2","3","3","3","4","4","4","3","3","4","4","4","4","4","4","4","2","2","2","2","2","2","2","4","2","1","0","0","0","0","0","0","1","0","0","1","0","1","0","0","4","4","3","2","4","5","3","4","4","3","2","781446149684072450","袁","437","","","","","","","","","","","","","","","","","","","","","","","","","","","","","","","","","","","","","","","","","",""
"415","<p style=""color:white; font-size: 35px;"">全才</p>","i","categorize-html","53","189162","0.0-6.0-0.0-4.0-1.9","3","3","4","3","2","3","3","3","4","4","4","3","3","4","4","4","4","4","4","4","2","2","2","2","2","2","2","4","2","1","0","0","0","0","0","0","1","0","0","1","0","1","0","0","4","4","3","2","4","5","3","4","4","3","2","781446149684072450","袁","437","","","","","","","","","","","","","","","","","","","true","2","2","ability","415","positive","全才","","","","","","","","","","","","","","","","",""
"null","","null","html-keyboard-response","54","189413","0.0-6.0-0.0-4.0-0.10","3","3","4","3","2","3","3","3","4","4","4","3","3","4","4","4","4","4","4","4","2","2","2","2","2","2","2","4","2","1","0","0","0","0","0","0","1","0","0","1","0","1","0","0","4","4","3","2","4","5","3","4","4","3","2","781446149684072450","袁","437","","","","","","","","","","","","","","","","","","","","","","","","","","","","","","","","","","","","","","","","","",""
"475","<p style=""color:white; font-size: 35px;"">天才</p>","i","categorize-html","55","189890","0.0-6.0-0.0-4.0-1.10","3","3","4","3","2","3","3","3","4","4","4","3","3","4","4","4","4","4","4","4","2","2","2","2","2","2","2","4","2","1","0","0","0","0","0","0","1","0","0","1","0","1","0","0","4","4","3","2","4","5","3","4","4","3","2","781446149684072450","袁","437","","","","","","","","","","","","","","","","","","","true","2","2","ability","475","positive","天才","","","","","","","","","","","","","","","","",""
"null","","null","html-keyboard-response","56","190141","0.0-6.0-0.0-4.0-0.11","3","3","4","3","2","3","3","3","4","4","4","3","3","4","4","4","4","4","4","4","2","2","2","2","2","2","2","4","2","1","0","0","0","0","0","0","1","0","0","1","0","1","0","0","4","4","3","2","4","5","3","4","4","3","2","781446149684072450","袁","437","","","","","","","","","","","","","","","","","","","","","","","","","","","","","","","","","","","","","","","","","",""
"427","<p style=""color:white; font-size: 35px;"">愚钝</p>","e","categorize-html","57","190570","0.0-6.0-0.0-4.0-1.11","3","3","4","3","2","3","3","3","4","4","4","3","3","4","4","4","4","4","4","4","2","2","2","2","2","2","2","4","2","1","0","0","0","0","0","0","1","0","0","1","0","1","0","0","4","4","3","2","4","5","3","4","4","3","2","781446149684072450","袁","437","","","","","","","","","","","","","","","","","","","true","2","2","ability","427","negative","愚钝","","","","","","","","","","","","","","","","",""
"9377","
    <div class=""tag-bottom""><p>
    —— 任务3：对“自我/消极”词和“他人/积极”词分类 ——<p/>
    <span style=""color:#78DCE8""><b>注意上方，之前的四类词语将混合在一起交替呈现</b></span><p/>
    <span style=""color:#FFD866""><b>请根据上方标签的提示，尽可能正确并且快速地做出按键反应</b></span><p/>
    当按键错误时屏幕中会出现<span style=""color:red""> X </span>，需要按另一个键纠正才能继续<br/><p/>
    请把双手食指分别放在键盘的“E”键和“I”键上<p/>
    按<空格键>开始
    </p></div>"," ","html-keyboard-response","58","199948","0.0-6.0-0.0-5.0","3","3","4","3","2","3","3","3","4","4","4","3","3","4","4","4","4","4","4","4","2","2","2","2","2","2","2","4","2","1","0","0","0","0","0","0","1","0","0","1","0","1","0","0","4","4","3","2","4","5","3","4","4","3","2","781446149684072450","袁","437","","","","","","","","","","","","","","","","","","","","","","","","","","","","","","","","","","","","","","","","","",""
"null","","null","html-keyboard-response","59","200199","0.0-6.0-0.0-6.0-0.0","3","3","4","3","2","3","3","3","4","4","4","3","3","4","4","4","4","4","4","4","2","2","2","2","2","2","2","4","2","1","0","0","0","0","0","0","1","0","0","1","0","1","0","0","4","4","3","2","4","5","3","4","4","3","2","781446149684072450","袁","437","","","","","","","","","","","","","","","","","","","","","","","","","","","","","","","","","","","","","","","","","",""
"1134","<p style=""color:rgb(150, 250, 100); font-size: 35px;"">自己的</p>","e","categorize-html","60","201335","0.0-6.0-0.0-6.0-1.0","3","3","4","3","2","3","3","3","4","4","4","3","3","4","4","4","4","4","4","4","2","2","2","2","2","2","2","4","2","1","0","0","0","0","0","0","1","0","0","1","0","1","0","0","4","4","3","2","4","5","3","4","4","3","2","781446149684072450","袁","437","","","","","","","","","","","","","","","","","","","true","3","3","ability","1134","self","自己的","","","","","","","","","","","","","","","","",""
"null","","null","html-keyboard-response","61","201587","0.0-6.0-0.0-6.0-0.1","3","3","4","3","2","3","3","3","4","4","4","3","3","4","4","4","4","4","4","4","2","2","2","2","2","2","2","4","2","1","0","0","0","0","0","0","1","0","0","1","0","1","0","0","4","4","3","2","4","5","3","4","4","3","2","781446149684072450","袁","437","","","","","","","","","","","","","","","","","","","","","","","","","","","","","","","","","","","","","","","","","",""
"803","<p style=""color:white; font-size: 35px;"">无能</p>","e","categorize-html","62","202391","0.0-6.0-0.0-6.0-1.1","3","3","4","3","2","3","3","3","4","4","4","3","3","4","4","4","4","4","4","4","2","2","2","2","2","2","2","4","2","1","0","0","0","0","0","0","1","0","0","1","0","1","0","0","4","4","3","2","4","5","3","4","4","3","2","781446149684072450","袁","437","","","","","","","","","","","","","","","","","","","true","3","3","ability","803","negative","无能","","","","","","","","","","","","","","","","",""
"null","","null","html-keyboard-response","63","202642","0.0-6.0-0.0-6.0-0.2","3","3","4","3","2","3","3","3","4","4","4","3","3","4","4","4","4","4","4","4","2","2","2","2","2","2","2","4","2","1","0","0","0","0","0","0","1","0","0","1","0","1","0","0","4","4","3","2","4","5","3","4","4","3","2","781446149684072450","袁","437","","","","","","","","","","","","","","","","","","","","","","","","","","","","","","","","","","","","","","","","","",""
"704","<p style=""color:rgb(150, 250, 100); font-size: 35px;"">他人的</p>","i","categorize-html","64","203348","0.0-6.0-0.0-6.0-1.2","3","3","4","3","2","3","3","3","4","4","4","3","3","4","4","4","4","4","4","4","2","2","2","2","2","2","2","4","2","1","0","0","0","0","0","0","1","0","0","1","0","1","0","0","4","4","3","2","4","5","3","4","4","3","2","781446149684072450","袁","437","","","","","","","","","","","","","","","","","","","true","3","3","ability","704","other","他人的","","","","","","","","","","","","","","","","",""
"null","","null","html-keyboard-response","65","203599","0.0-6.0-0.0-6.0-0.3","3","3","4","3","2","3","3","3","4","4","4","3","3","4","4","4","4","4","4","4","2","2","2","2","2","2","2","4","2","1","0","0","0","0","0","0","1","0","0","1","0","1","0","0","4","4","3","2","4","5","3","4","4","3","2","781446149684072450","袁","437","","","","","","","","","","","","","","","","","","","","","","","","","","","","","","","","","","","","","","","","","",""
"1192","<p style=""color:white; font-size: 35px;"">精干</p>","i","categorize-html","66","204793","0.0-6.0-0.0-6.0-1.3","3","3","4","3","2","3","3","3","4","4","4","3","3","4","4","4","4","4","4","4","2","2","2","2","2","2","2","4","2","1","0","0","0","0","0","0","1","0","0","1","0","1","0","0","4","4","3","2","4","5","3","4","4","3","2","781446149684072450","袁","437","","","","","","","","","","","","","","","","","","","true","3","3","ability","1192","positive","精干","","","","","","","","","","","","","","","","",""
"null","","null","html-keyboard-response","67","205044","0.0-6.0-0.0-6.0-0.4","3","3","4","3","2","3","3","3","4","4","4","3","3","4","4","4","4","4","4","4","2","2","2","2","2","2","2","4","2","1","0","0","0","0","0","0","1","0","0","1","0","1","0","0","4","4","3","2","4","5","3","4","4","3","2","781446149684072450","袁","437","","","","","","","","","","","","","","","","","","","","","","","","","","","","","","","","","","","","","","","","","",""
"1040","<p style=""color:rgb(150, 250, 100); font-size: 35px;"">自己</p>","e","categorize-html","68","206086","0.0-6.0-0.0-6.0-1.4","3","3","4","3","2","3","3","3","4","4","4","3","3","4","4","4","4","4","4","4","2","2","2","2","2","2","2","4","2","1","0","0","0","0","0","0","1","0","0","1","0","1","0","0","4","4","3","2","4","5","3","4","4","3","2","781446149684072450","袁","437","","","","","","","","","","","","","","","","","","","true","3","3","ability","1040","self","自己","","","","","","","","","","","","","","","","",""
"null","","null","html-keyboard-response","69","206337","0.0-6.0-0.0-6.0-0.5","3","3","4","3","2","3","3","3","4","4","4","3","3","4","4","4","4","4","4","4","2","2","2","2","2","2","2","4","2","1","0","0","0","0","0","0","1","0","0","1","0","1","0","0","4","4","3","2","4","5","3","4","4","3","2","781446149684072450","袁","437","","","","","","","","","","","","","","","","","","","","","","","","","","","","","","","","","","","","","","","","","",""
"880","<p style=""color:white; font-size: 35px;"">全才</p>","e","categorize-html","70","214327","0.0-6.0-0.0-6.0-1.5","3","3","4","3","2","3","3","3","4","4","4","3","3","4","4","4","4","4","4","4","2","2","2","2","2","2","2","4","2","1","0","0","0","0","0","0","1","0","0","1","0","1","0","0","4","4","3","2","4","5","3","4","4","3","2","781446149684072450","袁","437","","","","","","","","","","","","","","","","","","","false","3","3","ability","1710.7391304347825","positive","全才","","","","","","","","","","","","","","","","",""
"null","","null","html-keyboard-response","71","214578","0.0-6.0-0.0-6.0-0.6","3","3","4","3","2","3","3","3","4","4","4","3","3","4","4","4","4","4","4","4","2","2","2","2","2","2","2","4","2","1","0","0","0","0","0","0","1","0","0","1","0","1","0","0","4","4","3","2","4","5","3","4","4","3","2","781446149684072450","袁","437","","","","","","","","","","","","","","","","","","","","","","","","","","","","","","","","","","","","","","","","","",""
"1066","<p style=""color:rgb(150, 250, 100); font-size: 35px;"">别人</p>","i","categorize-html","72","215645","0.0-6.0-0.0-6.0-1.6","3","3","4","3","2","3","3","3","4","4","4","3","3","4","4","4","4","4","4","4","2","2","2","2","2","2","2","4","2","1","0","0","0","0","0","0","1","0","0","1","0","1","0","0","4","4","3","2","4","5","3","4","4","3","2","781446149684072450","袁","437","","","","","","","","","","","","","","","","","","","true","3","3","ability","1066","other","别人","","","","","","","","","","","","","","","","",""
"null","","null","html-keyboard-response","73","215897","0.0-6.0-0.0-6.0-0.7","3","3","4","3","2","3","3","3","4","4","4","3","3","4","4","4","4","4","4","4","2","2","2","2","2","2","2","4","2","1","0","0","0","0","0","0","1","0","0","1","0","1","0","0","4","4","3","2","4","5","3","4","4","3","2","781446149684072450","袁","437","","","","","","","","","","","","","","","","","","","","","","","","","","","","","","","","","","","","","","","","","",""
"1022","<p style=""color:white; font-size: 35px;"">拙笨</p>","e","categorize-html","74","216922","0.0-6.0-0.0-6.0-1.7","3","3","4","3","2","3","3","3","4","4","4","3","3","4","4","4","4","4","4","4","2","2","2","2","2","2","2","4","2","1","0","0","0","0","0","0","1","0","0","1","0","1","0","0","4","4","3","2","4","5","3","4","4","3","2","781446149684072450","袁","437","","","","","","","","","","","","","","","","","","","true","3","3","ability","1022","negative","拙笨","","","","","","","","","","","","","","","","",""
"null","","null","html-keyboard-response","75","217172","0.0-6.0-0.0-6.0-0.8","3","3","4","3","2","3","3","3","4","4","4","3","3","4","4","4","4","4","4","4","2","2","2","2","2","2","2","4","2","1","0","0","0","0","0","0","1","0","0","1","0","1","0","0","4","4","3","2","4","5","3","4","4","3","2","781446149684072450","袁","437","","","","","","","","","","","","","","","","","","","","","","","","","","","","","","","","","","","","","","","","","",""
"834","<p style=""color:rgb(150, 250, 100); font-size: 35px;"">别人的</p>","i","categorize-html","76","218008","0.0-6.0-0.0-6.0-1.8","3","3","4","3","2","3","3","3","4","4","4","3","3","4","4","4","4","4","4","4","2","2","2","2","2","2","2","4","2","1","0","0","0","0","0","0","1","0","0","1","0","1","0","0","4","4","3","2","4","5","3","4","4","3","2","781446149684072450","袁","437","","","","","","","","","","","","","","","","","","","true","3","3","ability","834","other","别人的","","","","","","","","","","","","","","","","",""
"null","","null","html-keyboard-response","77","218259","0.0-6.0-0.0-6.0-0.9","3","3","4","3","2","3","3","3","4","4","4","3","3","4","4","4","4","4","4","4","2","2","2","2","2","2","2","4","2","1","0","0","0","0","0","0","1","0","0","1","0","1","0","0","4","4","3","2","4","5","3","4","4","3","2","781446149684072450","袁","437","","","","","","","","","","","","","","","","","","","","","","","","","","","","","","","","","","","","","","","","","",""
"1069","<p style=""color:white; font-size: 35px;"">低能</p>","e","categorize-html","78","219330","0.0-6.0-0.0-6.0-1.9","3","3","4","3","2","3","3","3","4","4","4","3","3","4","4","4","4","4","4","4","2","2","2","2","2","2","2","4","2","1","0","0","0","0","0","0","1","0","0","1","0","1","0","0","4","4","3","2","4","5","3","4","4","3","2","781446149684072450","袁","437","","","","","","","","","","","","","","","","","","","true","3","3","ability","1069","negative","低能","","","","","","","","","","","","","","","","",""
"null","","null","html-keyboard-response","79","219580","0.0-6.0-0.0-6.0-0.10","3","3","4","3","2","3","3","3","4","4","4","3","3","4","4","4","4","4","4","4","2","2","2","2","2","2","2","4","2","1","0","0","0","0","0","0","1","0","0","1","0","1","0","0","4","4","3","2","4","5","3","4","4","3","2","781446149684072450","袁","437","","","","","","","","","","","","","","","","","","","","","","","","","","","","","","","","","","","","","","","","","",""
"1382","<p style=""color:rgb(150, 250, 100); font-size: 35px;"">本人的</p>","e","categorize-html","80","220964","0.0-6.0-0.0-6.0-1.10","3","3","4","3","2","3","3","3","4","4","4","3","3","4","4","4","4","4","4","4","2","2","2","2","2","2","2","4","2","1","0","0","0","0","0","0","1","0","0","1","0","1","0","0","4","4","3","2","4","5","3","4","4","3","2","781446149684072450","袁","437","","","","","","","","","","","","","","","","","","","true","3","3","ability","1382","self","本人的","","","","","","","","","","","","","","","","",""
"null","","null","html-keyboard-response","81","221215","0.0-6.0-0.0-6.0-0.11","3","3","4","3","2","3","3","3","4","4","4","3","3","4","4","4","4","4","4","4","2","2","2","2","2","2","2","4","2","1","0","0","0","0","0","0","1","0","0","1","0","1","0","0","4","4","3","2","4","5","3","4","4","3","2","781446149684072450","袁","437","","","","","","","","","","","","","","","","","","","","","","","","","","","","","","","","","","","","","","","","","",""
"1087","<p style=""color:white; font-size: 35px;"">能干</p>","i","categorize-html","82","222304","0.0-6.0-0.0-6.0-1.11","3","3","4","3","2","3","3","3","4","4","4","3","3","4","4","4","4","4","4","4","2","2","2","2","2","2","2","4","2","1","0","0","0","0","0","0","1","0","0","1","0","1","0","0","4","4","3","2","4","5","3","4","4","3","2","781446149684072450","袁","437","","","","","","","","","","","","","","","","","","","true","3","3","ability","1087","positive","能干","","","","","","","","","","","","","","","","",""
"null","","null","html-keyboard-response","83","222554","0.0-6.0-0.0-6.0-0.12","3","3","4","3","2","3","3","3","4","4","4","3","3","4","4","4","4","4","4","4","2","2","2","2","2","2","2","4","2","1","0","0","0","0","0","0","1","0","0","1","0","1","0","0","4","4","3","2","4","5","3","4","4","3","2","781446149684072450","袁","437","","","","","","","","","","","","","","","","","","","","","","","","","","","","","","","","","","","","","","","","","",""
"887","<p style=""color:rgb(150, 250, 100); font-size: 35px;"">他的</p>","i","categorize-html","84","223443","0.0-6.0-0.0-6.0-1.12","3","3","4","3","2","3","3","3","4","4","4","3","3","4","4","4","4","4","4","4","2","2","2","2","2","2","2","4","2","1","0","0","0","0","0","0","1","0","0","1","0","1","0","0","4","4","3","2","4","5","3","4","4","3","2","781446149684072450","袁","437","","","","","","","","","","","","","","","","","","","true","3","3","ability","887","other","他的","","","","","","","","","","","","","","","","",""
"null","","null","html-keyboard-response","85","223703","0.0-6.0-0.0-6.0-0.13","3","3","4","3","2","3","3","3","4","4","4","3","3","4","4","4","4","4","4","4","2","2","2","2","2","2","2","4","2","1","0","0","0","0","0","0","1","0","0","1","0","1","0","0","4","4","3","2","4","5","3","4","4","3","2","781446149684072450","袁","437","","","","","","","","","","","","","","","","","","","","","","","","","","","","","","","","","","","","","","","","","",""
"2696","<p style=""color:white; font-size: 35px;"">全能</p>","i","categorize-html","86","226402","0.0-6.0-0.0-6.0-1.13","3","3","4","3","2","3","3","3","4","4","4","3","3","4","4","4","4","4","4","4","2","2","2","2","2","2","2","4","2","1","0","0","0","0","0","0","1","0","0","1","0","1","0","0","4","4","3","2","4","5","3","4","4","3","2","781446149684072450","袁","437","","","","","","","","","","","","","","","","","","","true","3","3","ability","2696","positive","全能","","","","","","","","","","","","","","","","",""
"null","","null","html-keyboard-response","87","226654","0.0-6.0-0.0-6.0-0.14","3","3","4","3","2","3","3","3","4","4","4","3","3","4","4","4","4","4","4","4","2","2","2","2","2","2","2","4","2","1","0","0","0","0","0","0","1","0","0","1","0","1","0","0","4","4","3","2","4","5","3","4","4","3","2","781446149684072450","袁","437","","","","","","","","","","","","","","","","","","","","","","","","","","","","","","","","","","","","","","","","","",""
"857","<p style=""color:rgb(150, 250, 100); font-size: 35px;"">我</p>","e","categorize-html","88","227512","0.0-6.0-0.0-6.0-1.14","3","3","4","3","2","3","3","3","4","4","4","3","3","4","4","4","4","4","4","4","2","2","2","2","2","2","2","4","2","1","0","0","0","0","0","0","1","0","0","1","0","1","0","0","4","4","3","2","4","5","3","4","4","3","2","781446149684072450","袁","437","","","","","","","","","","","","","","","","","","","true","3","3","ability","857","self","我","","","","","","","","","","","","","","","","",""
"null","","null","html-keyboard-response","89","227763","0.0-6.0-0.0-6.0-0.15","3","3","4","3","2","3","3","3","4","4","4","3","3","4","4","4","4","4","4","4","2","2","2","2","2","2","2","4","2","1","0","0","0","0","0","0","1","0","0","1","0","1","0","0","4","4","3","2","4","5","3","4","4","3","2","781446149684072450","袁","437","","","","","","","","","","","","","","","","","","","","","","","","","","","","","","","","","","","","","","","","","",""
"1331","<p style=""color:white; font-size: 35px;"">蠢笨</p>","e","categorize-html","90","229096","0.0-6.0-0.0-6.0-1.15","3","3","4","3","2","3","3","3","4","4","4","3","3","4","4","4","4","4","4","4","2","2","2","2","2","2","2","4","2","1","0","0","0","0","0","0","1","0","0","1","0","1","0","0","4","4","3","2","4","5","3","4","4","3","2","781446149684072450","袁","437","","","","","","","","","","","","","","","","","","","true","3","3","ability","1331","negative","蠢笨","","","","","","","","","","","","","","","","",""
"null","","null","html-keyboard-response","91","229348","0.0-6.0-0.0-6.0-0.16","3","3","4","3","2","3","3","3","4","4","4","3","3","4","4","4","4","4","4","4","2","2","2","2","2","2","2","4","2","1","0","0","0","0","0","0","1","0","0","1","0","1","0","0","4","4","3","2","4","5","3","4","4","3","2","781446149684072450","袁","437","","","","","","","","","","","","","","","","","","","","","","","","","","","","","","","","","","","","","","","","","",""
"948","<p style=""color:rgb(150, 250, 100); font-size: 35px;"">我的</p>","e","categorize-html","92","230298","0.0-6.0-0.0-6.0-1.16","3","3","4","3","2","3","3","3","4","4","4","3","3","4","4","4","4","4","4","4","2","2","2","2","2","2","2","4","2","1","0","0","0","0","0","0","1","0","0","1","0","1","0","0","4","4","3","2","4","5","3","4","4","3","2","781446149684072450","袁","437","","","","","","","","","","","","","","","","","","","true","3","3","ability","948","self","我的","","","","","","","","","","","","","","","","",""
"null","","null","html-keyboard-response","93","230549","0.0-6.0-0.0-6.0-0.17","3","3","4","3","2","3","3","3","4","4","4","3","3","4","4","4","4","4","4","4","2","2","2","2","2","2","2","4","2","1","0","0","0","0","0","0","1","0","0","1","0","1","0","0","4","4","3","2","4","5","3","4","4","3","2","781446149684072450","袁","437","","","","","","","","","","","","","","","","","","","","","","","","","","","","","","","","","","","","","","","","","",""
"869","<p style=""color:white; font-size: 35px;"">高效</p>","i","categorize-html","94","231420","0.0-6.0-0.0-6.0-1.17","3","3","4","3","2","3","3","3","4","4","4","3","3","4","4","4","4","4","4","4","2","2","2","2","2","2","2","4","2","1","0","0","0","0","0","0","1","0","0","1","0","1","0","0","4","4","3","2","4","5","3","4","4","3","2","781446149684072450","袁","437","","","","","","","","","","","","","","","","","","","true","3","3","ability","869","positive","高效","","","","","","","","","","","","","","","","",""
"null","","null","html-keyboard-response","95","231671","0.0-6.0-0.0-6.0-0.18","3","3","4","3","2","3","3","3","4","4","4","3","3","4","4","4","4","4","4","4","2","2","2","2","2","2","2","4","2","1","0","0","0","0","0","0","1","0","0","1","0","1","0","0","4","4","3","2","4","5","3","4","4","3","2","781446149684072450","袁","437","","","","","","","","","","","","","","","","","","","","","","","","","","","","","","","","","","","","","","","","","",""
"1243","<p style=""color:rgb(150, 250, 100); font-size: 35px;"">他人</p>","i","categorize-html","96","232916","0.0-6.0-0.0-6.0-1.18","3","3","4","3","2","3","3","3","4","4","4","3","3","4","4","4","4","4","4","4","2","2","2","2","2","2","2","4","2","1","0","0","0","0","0","0","1","0","0","1","0","1","0","0","4","4","3","2","4","5","3","4","4","3","2","781446149684072450","袁","437","","","","","","","","","","","","","","","","","","","true","3","3","ability","1243","other","他人","","","","","","","","","","","","","","","","",""
"null","","null","html-keyboard-response","97","233167","0.0-6.0-0.0-6.0-0.19","3","3","4","3","2","3","3","3","4","4","4","3","3","4","4","4","4","4","4","4","2","2","2","2","2","2","2","4","2","1","0","0","0","0","0","0","1","0","0","1","0","1","0","0","4","4","3","2","4","5","3","4","4","3","2","781446149684072450","袁","437","","","","","","","","","","","","","","","","","","","","","","","","","","","","","","","","","","","","","","","","","",""
"1402","<p style=""color:white; font-size: 35px;"">愚钝</p>","e","categorize-html","98","234571","0.0-6.0-0.0-6.0-1.19","3","3","4","3","2","3","3","3","4","4","4","3","3","4","4","4","4","4","4","4","2","2","2","2","2","2","2","4","2","1","0","0","0","0","0","0","1","0","0","1","0","1","0","0","4","4","3","2","4","5","3","4","4","3","2","781446149684072450","袁","437","","","","","","","","","","","","","","","","","","","true","3","3","ability","1402","negative","愚钝","","","","","","","","","","","","","","","","",""
"null","","null","html-keyboard-response","99","234822","0.0-6.0-0.0-6.0-0.20","3","3","4","3","2","3","3","3","4","4","4","3","3","4","4","4","4","4","4","4","2","2","2","2","2","2","2","4","2","1","0","0","0","0","0","0","1","0","0","1","0","1","0","0","4","4","3","2","4","5","3","4","4","3","2","781446149684072450","袁","437","","","","","","","","","","","","","","","","","","","","","","","","","","","","","","","","","","","","","","","","","",""
"612","<p style=""color:rgb(150, 250, 100); font-size: 35px;"">他</p>","i","categorize-html","100","235436","0.0-6.0-0.0-6.0-1.20","3","3","4","3","2","3","3","3","4","4","4","3","3","4","4","4","4","4","4","4","2","2","2","2","2","2","2","4","2","1","0","0","0","0","0","0","1","0","0","1","0","1","0","0","4","4","3","2","4","5","3","4","4","3","2","781446149684072450","袁","437","","","","","","","","","","","","","","","","","","","true","3","3","ability","612","other","他","","","","","","","","","","","","","","","","",""
"null","","null","html-keyboard-response","101","235688","0.0-6.0-0.0-6.0-0.21","3","3","4","3","2","3","3","3","4","4","4","3","3","4","4","4","4","4","4","4","2","2","2","2","2","2","2","4","2","1","0","0","0","0","0","0","1","0","0","1","0","1","0","0","4","4","3","2","4","5","3","4","4","3","2","781446149684072450","袁","437","","","","","","","","","","","","","","","","","","","","","","","","","","","","","","","","","","","","","","","","","",""
"1214","<p style=""color:white; font-size: 35px;"">天才</p>","i","categorize-html","102","236903","0.0-6.0-0.0-6.0-1.21","3","3","4","3","2","3","3","3","4","4","4","3","3","4","4","4","4","4","4","4","2","2","2","2","2","2","2","4","2","1","0","0","0","0","0","0","1","0","0","1","0","1","0","0","4","4","3","2","4","5","3","4","4","3","2","781446149684072450","袁","437","","","","","","","","","","","","","","","","","","","true","3","3","ability","1214","positive","天才","","","","","","","","","","","","","","","","",""
"null","","null","html-keyboard-response","103","237155","0.0-6.0-0.0-6.0-0.22","3","3","4","3","2","3","3","3","4","4","4","3","3","4","4","4","4","4","4","4","2","2","2","2","2","2","2","4","2","1","0","0","0","0","0","0","1","0","0","1","0","1","0","0","4","4","3","2","4","5","3","4","4","3","2","781446149684072450","袁","437","","","","","","","","","","","","","","","","","","","","","","","","","","","","","","","","","","","","","","","","","",""
"1303","<p style=""color:rgb(150, 250, 100); font-size: 35px;"">本人</p>","e","categorize-html","104","238459","0.0-6.0-0.0-6.0-1.22","3","3","4","3","2","3","3","3","4","4","4","3","3","4","4","4","4","4","4","4","2","2","2","2","2","2","2","4","2","1","0","0","0","0","0","0","1","0","0","1","0","1","0","0","4","4","3","2","4","5","3","4","4","3","2","781446149684072450","袁","437","","","","","","","","","","","","","","","","","","","true","3","3","ability","1303","self","本人","","","","","","","","","","","","","","","","",""
"null","","null","html-keyboard-response","105","238710","0.0-6.0-0.0-6.0-0.23","3","3","4","3","2","3","3","3","4","4","4","3","3","4","4","4","4","4","4","4","2","2","2","2","2","2","2","4","2","1","0","0","0","0","0","0","1","0","0","1","0","1","0","0","4","4","3","2","4","5","3","4","4","3","2","781446149684072450","袁","437","","","","","","","","","","","","","","","","","","","","","","","","","","","","","","","","","","","","","","","","","",""
"852","<p style=""color:white; font-size: 35px;"">废物</p>","e","categorize-html","106","239564","0.0-6.0-0.0-6.0-1.23","3","3","4","3","2","3","3","3","4","4","4","3","3","4","4","4","4","4","4","4","2","2","2","2","2","2","2","4","2","1","0","0","0","0","0","0","1","0","0","1","0","1","0","0","4","4","3","2","4","5","3","4","4","3","2","781446149684072450","袁","437","","","","","","","","","","","","","","","","","","","true","3","3","ability","852","negative","废物","","","","","","","","","","","","","","","","",""
"6328","
    <div class=""tag-bottom""><p>
    —— 任务4：对“自我/消极”词和“他人/积极”词分类 ——<p/>
    <span style=""color:#78DCE8""><b>与刚才的任务完全相同，请再次对这四类词语分类</b></span><p/>
    <span style=""color:#FFD866""><b>请根据上方标签的提示，尽可能正确并且快速地做出按键反应</b></span><p/>
    当按键错误时屏幕中会出现<span style=""color:red""> X </span>，需要按另一个键纠正才能继续<br/><p/>
    请把双手食指分别放在键盘的“E”键和“I”键上<p/>
    按<空格键>开始
    </p></div>"," ","html-keyboard-response","107","245892","0.0-6.0-0.0-7.0","3","3","4","3","2","3","3","3","4","4","4","3","3","4","4","4","4","4","4","4","2","2","2","2","2","2","2","4","2","1","0","0","0","0","0","0","1","0","0","1","0","1","0","0","4","4","3","2","4","5","3","4","4","3","2","781446149684072450","袁","437","","","","","","","","","","","","","","","","","","","","","","","","","","","","","","","","","","","","","","","","","",""
"null","","null","html-keyboard-response","108","246143","0.0-6.0-0.0-8.0-0.0","3","3","4","3","2","3","3","3","4","4","4","3","3","4","4","4","4","4","4","4","2","2","2","2","2","2","2","4","2","1","0","0","0","0","0","0","1","0","0","1","0","1","0","0","4","4","3","2","4","5","3","4","4","3","2","781446149684072450","袁","437","","","","","","","","","","","","","","","","","","","","","","","","","","","","","","","","","","","","","","","","","",""
"754","<p style=""color:rgb(150, 250, 100); font-size: 35px;"">他人的</p>","i","categorize-html","109","246899","0.0-6.0-0.0-8.0-1.0","3","3","4","3","2","3","3","3","4","4","4","3","3","4","4","4","4","4","4","4","2","2","2","2","2","2","2","4","2","1","0","0","0","0","0","0","1","0","0","1","0","1","0","0","4","4","3","2","4","5","3","4","4","3","2","781446149684072450","袁","437","","","","","","","","","","","","","","","","","","","true","4","4","ability","754","other","他人的","","","","","","","","","","","","","","","","",""
"null","","null","html-keyboard-response","110","247150","0.0-6.0-0.0-8.0-0.1","3","3","4","3","2","3","3","3","4","4","4","3","3","4","4","4","4","4","4","4","2","2","2","2","2","2","2","4","2","1","0","0","0","0","0","0","1","0","0","1","0","1","0","0","4","4","3","2","4","5","3","4","4","3","2","781446149684072450","袁","437","","","","","","","","","","","","","","","","","","","","","","","","","","","","","","","","","","","","","","","","","",""
"727","<p style=""color:white; font-size: 35px;"">高效</p>","i","categorize-html","111","247879","0.0-6.0-0.0-8.0-1.1","3","3","4","3","2","3","3","3","4","4","4","3","3","4","4","4","4","4","4","4","2","2","2","2","2","2","2","4","2","1","0","0","0","0","0","0","1","0","0","1","0","1","0","0","4","4","3","2","4","5","3","4","4","3","2","781446149684072450","袁","437","","","","","","","","","","","","","","","","","","","true","4","4","ability","727","positive","高效","","","","","","","","","","","","","","","","",""
"null","","null","html-keyboard-response","112","248130","0.0-6.0-0.0-8.0-0.2","3","3","4","3","2","3","3","3","4","4","4","3","3","4","4","4","4","4","4","4","2","2","2","2","2","2","2","4","2","1","0","0","0","0","0","0","1","0","0","1","0","1","0","0","4","4","3","2","4","5","3","4","4","3","2","781446149684072450","袁","437","","","","","","","","","","","","","","","","","","","","","","","","","","","","","","","","","","","","","","","","","",""
"626","<p style=""color:rgb(150, 250, 100); font-size: 35px;"">我</p>","i","categorize-html","113","249184","0.0-6.0-0.0-8.0-1.2","3","3","4","3","2","3","3","3","4","4","4","3","3","4","4","4","4","4","4","4","2","2","2","2","2","2","2","4","2","1","0","0","0","0","0","0","1","0","0","1","0","1","0","0","4","4","3","2","4","5","3","4","4","3","2","781446149684072450","袁","437","","","","","","","","","","","","","","","","","","","false","4","4","ability","1488.6888888888889","self","我","","","","","","","","","","","","","","","","",""
"null","","null","html-keyboard-response","114","249446","0.0-6.0-0.0-8.0-0.3","3","3","4","3","2","3","3","3","4","4","4","3","3","4","4","4","4","4","4","4","2","2","2","2","2","2","2","4","2","1","0","0","0","0","0","0","1","0","0","1","0","1","0","0","4","4","3","2","4","5","3","4","4","3","2","781446149684072450","袁","437","","","","","","","","","","","","","","","","","","","","","","","","","","","","","","","","","","","","","","","","","",""
"1756","<p style=""color:white; font-size: 35px;"">蠢笨</p>","e","categorize-html","115","251203","0.0-6.0-0.0-8.0-1.3","3","3","4","3","2","3","3","3","4","4","4","3","3","4","4","4","4","4","4","4","2","2","2","2","2","2","2","4","2","1","0","0","0","0","0","0","1","0","0","1","0","1","0","0","4","4","3","2","4","5","3","4","4","3","2","781446149684072450","袁","437","","","","","","","","","","","","","","","","","","","true","4","4","ability","1756","negative","蠢笨","","","","","","","","","","","","","","","","",""
"null","","null","html-keyboard-response","116","251454","0.0-6.0-0.0-8.0-0.4","3","3","4","3","2","3","3","3","4","4","4","3","3","4","4","4","4","4","4","4","2","2","2","2","2","2","2","4","2","1","0","0","0","0","0","0","1","0","0","1","0","1","0","0","4","4","3","2","4","5","3","4","4","3","2","781446149684072450","袁","437","","","","","","","","","","","","","","","","","","","","","","","","","","","","","","","","","","","","","","","","","",""
"907","<p style=""color:rgb(150, 250, 100); font-size: 35px;"">别人的</p>","i","categorize-html","117","252363","0.0-6.0-0.0-8.0-1.4","3","3","4","3","2","3","3","3","4","4","4","3","3","4","4","4","4","4","4","4","2","2","2","2","2","2","2","4","2","1","0","0","0","0","0","0","1","0","0","1","0","1","0","0","4","4","3","2","4","5","3","4","4","3","2","781446149684072450","袁","437","","","","","","","","","","","","","","","","","","","true","4","4","ability","907","other","别人的","","","","","","","","","","","","","","","","",""
"null","","null","html-keyboard-response","118","252614","0.0-6.0-0.0-8.0-0.5","3","3","4","3","2","3","3","3","4","4","4","3","3","4","4","4","4","4","4","4","2","2","2","2","2","2","2","4","2","1","0","0","0","0","0","0","1","0","0","1","0","1","0","0","4","4","3","2","4","5","3","4","4","3","2","781446149684072450","袁","437","","","","","","","","","","","","","","","","","","","","","","","","","","","","","","","","","","","","","","","","","",""
"988","<p style=""color:white; font-size: 35px;"">全才</p>","i","categorize-html","119","253603","0.0-6.0-0.0-8.0-1.5","3","3","4","3","2","3","3","3","4","4","4","3","3","4","4","4","4","4","4","4","2","2","2","2","2","2","2","4","2","1","0","0","0","0","0","0","1","0","0","1","0","1","0","0","4","4","3","2","4","5","3","4","4","3","2","781446149684072450","袁","437","","","","","","","","","","","","","","","","","","","true","4","4","ability","988","positive","全才","","","","","","","","","","","","","","","","",""
"null","","null","html-keyboard-response","120","253855","0.0-6.0-0.0-8.0-0.6","3","3","4","3","2","3","3","3","4","4","4","3","3","4","4","4","4","4","4","4","2","2","2","2","2","2","2","4","2","1","0","0","0","0","0","0","1","0","0","1","0","1","0","0","4","4","3","2","4","5","3","4","4","3","2","781446149684072450","袁","437","","","","","","","","","","","","","","","","","","","","","","","","","","","","","","","","","","","","","","","","","",""
"830","<p style=""color:rgb(150, 250, 100); font-size: 35px;"">自己的</p>","e","categorize-html","121","254688","0.0-6.0-0.0-8.0-1.6","3","3","4","3","2","3","3","3","4","4","4","3","3","4","4","4","4","4","4","4","2","2","2","2","2","2","2","4","2","1","0","0","0","0","0","0","1","0","0","1","0","1","0","0","4","4","3","2","4","5","3","4","4","3","2","781446149684072450","袁","437","","","","","","","","","","","","","","","","","","","true","4","4","ability","830","self","自己的","","","","","","","","","","","","","","","","",""
"null","","null","html-keyboard-response","122","254939","0.0-6.0-0.0-8.0-0.7","3","3","4","3","2","3","3","3","4","4","4","3","3","4","4","4","4","4","4","4","2","2","2","2","2","2","2","4","2","1","0","0","0","0","0","0","1","0","0","1","0","1","0","0","4","4","3","2","4","5","3","4","4","3","2","781446149684072450","袁","437","","","","","","","","","","","","","","","","","","","","","","","","","","","","","","","","","","","","","","","","","",""
"1230","<p style=""color:white; font-size: 35px;"">无能</p>","e","categorize-html","123","256172","0.0-6.0-0.0-8.0-1.7","3","3","4","3","2","3","3","3","4","4","4","3","3","4","4","4","4","4","4","4","2","2","2","2","2","2","2","4","2","1","0","0","0","0","0","0","1","0","0","1","0","1","0","0","4","4","3","2","4","5","3","4","4","3","2","781446149684072450","袁","437","","","","","","","","","","","","","","","","","","","true","4","4","ability","1230","negative","无能","","","","","","","","","","","","","","","","",""
"null","","null","html-keyboard-response","124","256423","0.0-6.0-0.0-8.0-0.8","3","3","4","3","2","3","3","3","4","4","4","3","3","4","4","4","4","4","4","4","2","2","2","2","2","2","2","4","2","1","0","0","0","0","0","0","1","0","0","1","0","1","0","0","4","4","3","2","4","5","3","4","4","3","2","781446149684072450","袁","437","","","","","","","","","","","","","","","","","","","","","","","","","","","","","","","","","","","","","","","","","",""
"1306","<p style=""color:rgb(150, 250, 100); font-size: 35px;"">本人</p>","e","categorize-html","125","257731","0.0-6.0-0.0-8.0-1.8","3","3","4","3","2","3","3","3","4","4","4","3","3","4","4","4","4","4","4","4","2","2","2","2","2","2","2","4","2","1","0","0","0","0","0","0","1","0","0","1","0","1","0","0","4","4","3","2","4","5","3","4","4","3","2","781446149684072450","袁","437","","","","","","","","","","","","","","","","","","","true","4","4","ability","1306","self","本人","","","","","","","","","","","","","","","","",""
"null","","null","html-keyboard-response","126","257983","0.0-6.0-0.0-8.0-0.9","3","3","4","3","2","3","3","3","4","4","4","3","3","4","4","4","4","4","4","4","2","2","2","2","2","2","2","4","2","1","0","0","0","0","0","0","1","0","0","1","0","1","0","0","4","4","3","2","4","5","3","4","4","3","2","781446149684072450","袁","437","","","","","","","","","","","","","","","","","","","","","","","","","","","","","","","","","","","","","","","","","",""
"1084","<p style=""color:white; font-size: 35px;"">拙笨</p>","e","categorize-html","127","259069","0.0-6.0-0.0-8.0-1.9","3","3","4","3","2","3","3","3","4","4","4","3","3","4","4","4","4","4","4","4","2","2","2","2","2","2","2","4","2","1","0","0","0","0","0","0","1","0","0","1","0","1","0","0","4","4","3","2","4","5","3","4","4","3","2","781446149684072450","袁","437","","","","","","","","","","","","","","","","","","","true","4","4","ability","1084","negative","拙笨","","","","","","","","","","","","","","","","",""
"null","","null","html-keyboard-response","128","259320","0.0-6.0-0.0-8.0-0.10","3","3","4","3","2","3","3","3","4","4","4","3","3","4","4","4","4","4","4","4","2","2","2","2","2","2","2","4","2","1","0","0","0","0","0","0","1","0","0","1","0","1","0","0","4","4","3","2","4","5","3","4","4","3","2","781446149684072450","袁","437","","","","","","","","","","","","","","","","","","","","","","","","","","","","","","","","","","","","","","","","","",""
"889","<p style=""color:rgb(150, 250, 100); font-size: 35px;"">他的</p>","i","categorize-html","129","260211","0.0-6.0-0.0-8.0-1.10","3","3","4","3","2","3","3","3","4","4","4","3","3","4","4","4","4","4","4","4","2","2","2","2","2","2","2","4","2","1","0","0","0","0","0","0","1","0","0","1","0","1","0","0","4","4","3","2","4","5","3","4","4","3","2","781446149684072450","袁","437","","","","","","","","","","","","","","","","","","","true","4","4","ability","889","other","他的","","","","","","","","","","","","","","","","",""
"null","","null","html-keyboard-response","130","260462","0.0-6.0-0.0-8.0-0.11","3","3","4","3","2","3","3","3","4","4","4","3","3","4","4","4","4","4","4","4","2","2","2","2","2","2","2","4","2","1","0","0","0","0","0","0","1","0","0","1","0","1","0","0","4","4","3","2","4","5","3","4","4","3","2","781446149684072450","袁","437","","","","","","","","","","","","","","","","","","","","","","","","","","","","","","","","","","","","","","","","","",""
"647","<p style=""color:white; font-size: 35px;"">全才</p>","i","categorize-html","131","261111","0.0-6.0-0.0-8.0-1.11","3","3","4","3","2","3","3","3","4","4","4","3","3","4","4","4","4","4","4","4","2","2","2","2","2","2","2","4","2","1","0","0","0","0","0","0","1","0","0","1","0","1","0","0","4","4","3","2","4","5","3","4","4","3","2","781446149684072450","袁","437","","","","","","","","","","","","","","","","","","","true","4","4","ability","647","positive","全才","","","","","","","","","","","","","","","","",""
"null","","null","html-keyboard-response","132","261363","0.0-6.0-0.0-8.0-0.12","3","3","4","3","2","3","3","3","4","4","4","3","3","4","4","4","4","4","4","4","2","2","2","2","2","2","2","4","2","1","0","0","0","0","0","0","1","0","0","1","0","1","0","0","4","4","3","2","4","5","3","4","4","3","2","781446149684072450","袁","437","","","","","","","","","","","","","","","","","","","","","","","","","","","","","","","","","","","","","","","","","",""
"786","<p style=""color:rgb(150, 250, 100); font-size: 35px;"">别人</p>","i","categorize-html","133","262151","0.0-6.0-0.0-8.0-1.12","3","3","4","3","2","3","3","3","4","4","4","3","3","4","4","4","4","4","4","4","2","2","2","2","2","2","2","4","2","1","0","0","0","0","0","0","1","0","0","1","0","1","0","0","4","4","3","2","4","5","3","4","4","3","2","781446149684072450","袁","437","","","","","","","","","","","","","","","","","","","true","4","4","ability","786","other","别人","","","","","","","","","","","","","","","","",""
"null","","null","html-keyboard-response","134","262403","0.0-6.0-0.0-8.0-0.13","3","3","4","3","2","3","3","3","4","4","4","3","3","4","4","4","4","4","4","4","2","2","2","2","2","2","2","4","2","1","0","0","0","0","0","0","1","0","0","1","0","1","0","0","4","4","3","2","4","5","3","4","4","3","2","781446149684072450","袁","437","","","","","","","","","","","","","","","","","","","","","","","","","","","","","","","","","","","","","","","","","",""
"719","<p style=""color:white; font-size: 35px;"">精干</p>","i","categorize-html","135","263123","0.0-6.0-0.0-8.0-1.13","3","3","4","3","2","3","3","3","4","4","4","3","3","4","4","4","4","4","4","4","2","2","2","2","2","2","2","4","2","1","0","0","0","0","0","0","1","0","0","1","0","1","0","0","4","4","3","2","4","5","3","4","4","3","2","781446149684072450","袁","437","","","","","","","","","","","","","","","","","","","true","4","4","ability","719","positive","精干","","","","","","","","","","","","","","","","",""
"null","","null","html-keyboard-response","136","263374","0.0-6.0-0.0-8.0-0.14","3","3","4","3","2","3","3","3","4","4","4","3","3","4","4","4","4","4","4","4","2","2","2","2","2","2","2","4","2","1","0","0","0","0","0","0","1","0","0","1","0","1","0","0","4","4","3","2","4","5","3","4","4","3","2","781446149684072450","袁","437","","","","","","","","","","","","","","","","","","","","","","","","","","","","","","","","","","","","","","","","","",""
"1305","<p style=""color:rgb(150, 250, 100); font-size: 35px;"">本人的</p>","e","categorize-html","137","264681","0.0-6.0-0.0-8.0-1.14","3","3","4","3","2","3","3","3","4","4","4","3","3","4","4","4","4","4","4","4","2","2","2","2","2","2","2","4","2","1","0","0","0","0","0","0","1","0","0","1","0","1","0","0","4","4","3","2","4","5","3","4","4","3","2","781446149684072450","袁","437","","","","","","","","","","","","","","","","","","","true","4","4","ability","1305","self","本人的","","","","","","","","","","","","","","","","",""
"null","","null","html-keyboard-response","138","264933","0.0-6.0-0.0-8.0-0.15","3","3","4","3","2","3","3","3","4","4","4","3","3","4","4","4","4","4","4","4","2","2","2","2","2","2","2","4","2","1","0","0","0","0","0","0","1","0","0","1","0","1","0","0","4","4","3","2","4","5","3","4","4","3","2","781446149684072450","袁","437","","","","","","","","","","","","","","","","","","","","","","","","","","","","","","","","","","","","","","","","","",""
"1500","<p style=""color:white; font-size: 35px;"">低能</p>","e","categorize-html","139","266435","0.0-6.0-0.0-8.0-1.15","3","3","4","3","2","3","3","3","4","4","4","3","3","4","4","4","4","4","4","4","2","2","2","2","2","2","2","4","2","1","0","0","0","0","0","0","1","0","0","1","0","1","0","0","4","4","3","2","4","5","3","4","4","3","2","781446149684072450","袁","437","","","","","","","","","","","","","","","","","","","true","4","4","ability","1500","negative","低能","","","","","","","","","","","","","","","","",""
"null","","null","html-keyboard-response","140","266686","0.0-6.0-0.0-8.0-0.16","3","3","4","3","2","3","3","3","4","4","4","3","3","4","4","4","4","4","4","4","2","2","2","2","2","2","2","4","2","1","0","0","0","0","0","0","1","0","0","1","0","1","0","0","4","4","3","2","4","5","3","4","4","3","2","781446149684072450","袁","437","","","","","","","","","","","","","","","","","","","","","","","","","","","","","","","","","","","","","","","","","",""
"1153","<p style=""color:rgb(150, 250, 100); font-size: 35px;"">我的</p>","i","categorize-html","141","268350","0.0-6.0-0.0-8.0-1.16","3","3","4","3","2","3","3","3","4","4","4","3","3","4","4","4","4","4","4","4","2","2","2","2","2","2","2","4","2","1","0","0","0","0","0","0","1","0","0","1","0","1","0","0","4","4","3","2","4","5","3","4","4","3","2","781446149684072450","袁","437","","","","","","","","","","","","","","","","","","","false","4","4","ability","1488.6888888888889","self","我的","","","","","","","","","","","","","","","","",""
"null","","null","html-keyboard-response","142","268601","0.0-6.0-0.0-8.0-0.17","3","3","4","3","2","3","3","3","4","4","4","3","3","4","4","4","4","4","4","4","2","2","2","2","2","2","2","4","2","1","0","0","0","0","0","0","1","0","0","1","0","1","0","0","4","4","3","2","4","5","3","4","4","3","2","781446149684072450","袁","437","","","","","","","","","","","","","","","","","","","","","","","","","","","","","","","","","","","","","","","","","",""
"736","<p style=""color:white; font-size: 35px;"">全能</p>","i","categorize-html","143","269339","0.0-6.0-0.0-8.0-1.17","3","3","4","3","2","3","3","3","4","4","4","3","3","4","4","4","4","4","4","4","2","2","2","2","2","2","2","4","2","1","0","0","0","0","0","0","1","0","0","1","0","1","0","0","4","4","3","2","4","5","3","4","4","3","2","781446149684072450","袁","437","","","","","","","","","","","","","","","","","","","true","4","4","ability","736","positive","全能","","","","","","","","","","","","","","","","",""
"null","","null","html-keyboard-response","144","269591","0.0-6.0-0.0-8.0-0.18","3","3","4","3","2","3","3","3","4","4","4","3","3","4","4","4","4","4","4","4","2","2","2","2","2","2","2","4","2","1","0","0","0","0","0","0","1","0","0","1","0","1","0","0","4","4","3","2","4","5","3","4","4","3","2","781446149684072450","袁","437","","","","","","","","","","","","","","","","","","","","","","","","","","","","","","","","","","","","","","","","","",""
"645","<p style=""color:rgb(150, 250, 100); font-size: 35px;"">他的</p>","i","categorize-html","145","270237","0.0-6.0-0.0-8.0-1.18","3","3","4","3","2","3","3","3","4","4","4","3","3","4","4","4","4","4","4","4","2","2","2","2","2","2","2","4","2","1","0","0","0","0","0","0","1","0","0","1","0","1","0","0","4","4","3","2","4","5","3","4","4","3","2","781446149684072450","袁","437","","","","","","","","","","","","","","","","","","","true","4","4","ability","645","other","他的","","","","","","","","","","","","","","","","",""
"null","","null","html-keyboard-response","146","270488","0.0-6.0-0.0-8.0-0.19","3","3","4","3","2","3","3","3","4","4","4","3","3","4","4","4","4","4","4","4","2","2","2","2","2","2","2","4","2","1","0","0","0","0","0","0","1","0","0","1","0","1","0","0","4","4","3","2","4","5","3","4","4","3","2","781446149684072450","袁","437","","","","","","","","","","","","","","","","","","","","","","","","","","","","","","","","","","","","","","","","","",""
"675","<p style=""color:white; font-size: 35px;"">废物</p>","e","categorize-html","147","271165","0.0-6.0-0.0-8.0-1.19","3","3","4","3","2","3","3","3","4","4","4","3","3","4","4","4","4","4","4","4","2","2","2","2","2","2","2","4","2","1","0","0","0","0","0","0","1","0","0","1","0","1","0","0","4","4","3","2","4","5","3","4","4","3","2","781446149684072450","袁","437","","","","","","","","","","","","","","","","","","","true","4","4","ability","675","negative","废物","","","","","","","","","","","","","","","","",""
"null","","null","html-keyboard-response","148","271417","0.0-6.0-0.0-8.0-0.20","3","3","4","3","2","3","3","3","4","4","4","3","3","4","4","4","4","4","4","4","2","2","2","2","2","2","2","4","2","1","0","0","0","0","0","0","1","0","0","1","0","1","0","0","4","4","3","2","4","5","3","4","4","3","2","781446149684072450","袁","437","","","","","","","","","","","","","","","","","","","","","","","","","","","","","","","","","","","","","","","","","",""
"824","<p style=""color:rgb(150, 250, 100); font-size: 35px;"">他人的</p>","i","categorize-html","149","272244","0.0-6.0-0.0-8.0-1.20","3","3","4","3","2","3","3","3","4","4","4","3","3","4","4","4","4","4","4","4","2","2","2","2","2","2","2","4","2","1","0","0","0","0","0","0","1","0","0","1","0","1","0","0","4","4","3","2","4","5","3","4","4","3","2","781446149684072450","袁","437","","","","","","","","","","","","","","","","","","","true","4","4","ability","824","other","他人的","","","","","","","","","","","","","","","","",""
"null","","null","html-keyboard-response","150","272494","0.0-6.0-0.0-8.0-0.21","3","3","4","3","2","3","3","3","4","4","4","3","3","4","4","4","4","4","4","4","2","2","2","2","2","2","2","4","2","1","0","0","0","0","0","0","1","0","0","1","0","1","0","0","4","4","3","2","4","5","3","4","4","3","2","781446149684072450","袁","437","","","","","","","","","","","","","","","","","","","","","","","","","","","","","","","","","","","","","","","","","",""
"1427","<p style=""color:white; font-size: 35px;"">高效</p>","i","categorize-html","151","273923","0.0-6.0-0.0-8.0-1.21","3","3","4","3","2","3","3","3","4","4","4","3","3","4","4","4","4","4","4","4","2","2","2","2","2","2","2","4","2","1","0","0","0","0","0","0","1","0","0","1","0","1","0","0","4","4","3","2","4","5","3","4","4","3","2","781446149684072450","袁","437","","","","","","","","","","","","","","","","","","","true","4","4","ability","1427","positive","高效","","","","","","","","","","","","","","","","",""
"null","","null","html-keyboard-response","152","274176","0.0-6.0-0.0-8.0-0.22","3","3","4","3","2","3","3","3","4","4","4","3","3","4","4","4","4","4","4","4","2","2","2","2","2","2","2","4","2","1","0","0","0","0","0","0","1","0","0","1","0","1","0","0","4","4","3","2","4","5","3","4","4","3","2","781446149684072450","袁","437","","","","","","","","","","","","","","","","","","","","","","","","","","","","","","","","","","","","","","","","","",""
"2182","<p style=""color:rgb(150, 250, 100); font-size: 35px;"">自己的</p>","e","categorize-html","153","276360","0.0-6.0-0.0-8.0-1.22","3","3","4","3","2","3","3","3","4","4","4","3","3","4","4","4","4","4","4","4","2","2","2","2","2","2","2","4","2","1","0","0","0","0","0","0","1","0","0","1","0","1","0","0","4","4","3","2","4","5","3","4","4","3","2","781446149684072450","袁","437","","","","","","","","","","","","","","","","","","","true","4","4","ability","2182","self","自己的","","","","","","","","","","","","","","","","",""
"null","","null","html-keyboard-response","154","276611","0.0-6.0-0.0-8.0-0.23","3","3","4","3","2","3","3","3","4","4","4","3","3","4","4","4","4","4","4","4","2","2","2","2","2","2","2","4","2","1","0","0","0","0","0","0","1","0","0","1","0","1","0","0","4","4","3","2","4","5","3","4","4","3","2","781446149684072450","袁","437","","","","","","","","","","","","","","","","","","","","","","","","","","","","","","","","","","","","","","","","","",""
"848","<p style=""color:white; font-size: 35px;"">蠢笨</p>","e","categorize-html","155","277461","0.0-6.0-0.0-8.0-1.23","3","3","4","3","2","3","3","3","4","4","4","3","3","4","4","4","4","4","4","4","2","2","2","2","2","2","2","4","2","1","0","0","0","0","0","0","1","0","0","1","0","1","0","0","4","4","3","2","4","5","3","4","4","3","2","781446149684072450","袁","437","","","","","","","","","","","","","","","","","","","true","4","4","ability","848","negative","蠢笨","","","","","","","","","","","","","","","","",""
"null","","null","html-keyboard-response","156","277715","0.0-6.0-0.0-8.0-0.24","3","3","4","3","2","3","3","3","4","4","4","3","3","4","4","4","4","4","4","4","2","2","2","2","2","2","2","4","2","1","0","0","0","0","0","0","1","0","0","1","0","1","0","0","4","4","3","2","4","5","3","4","4","3","2","781446149684072450","袁","437","","","","","","","","","","","","","","","","","","","","","","","","","","","","","","","","","","","","","","","","","",""
"614","<p style=""color:rgb(150, 250, 100); font-size: 35px;"">他人</p>","i","categorize-html","157","278331","0.0-6.0-0.0-8.0-1.24","3","3","4","3","2","3","3","3","4","4","4","3","3","4","4","4","4","4","4","4","2","2","2","2","2","2","2","4","2","1","0","0","0","0","0","0","1","0","0","1","0","1","0","0","4","4","3","2","4","5","3","4","4","3","2","781446149684072450","袁","437","","","","","","","","","","","","","","","","","","","true","4","4","ability","614","other","他人","","","","","","","","","","","","","","","","",""
"null","","null","html-keyboard-response","158","278583","0.0-6.0-0.0-8.0-0.25","3","3","4","3","2","3","3","3","4","4","4","3","3","4","4","4","4","4","4","4","2","2","2","2","2","2","2","4","2","1","0","0","0","0","0","0","1","0","0","1","0","1","0","0","4","4","3","2","4","5","3","4","4","3","2","781446149684072450","袁","437","","","","","","","","","","","","","","","","","","","","","","","","","","","","","","","","","","","","","","","","","",""
"689","<p style=""color:white; font-size: 35px;"">愚钝</p>","e","categorize-html","159","279273","0.0-6.0-0.0-8.0-1.25","3","3","4","3","2","3","3","3","4","4","4","3","3","4","4","4","4","4","4","4","2","2","2","2","2","2","2","4","2","1","0","0","0","0","0","0","1","0","0","1","0","1","0","0","4","4","3","2","4","5","3","4","4","3","2","781446149684072450","袁","437","","","","","","","","","","","","","","","","","","","true","4","4","ability","689","negative","愚钝","","","","","","","","","","","","","","","","",""
"null","","null","html-keyboard-response","160","279538","0.0-6.0-0.0-8.0-0.26","3","3","4","3","2","3","3","3","4","4","4","3","3","4","4","4","4","4","4","4","2","2","2","2","2","2","2","4","2","1","0","0","0","0","0","0","1","0","0","1","0","1","0","0","4","4","3","2","4","5","3","4","4","3","2","781446149684072450","袁","437","","","","","","","","","","","","","","","","","","","","","","","","","","","","","","","","","","","","","","","","","",""
"695","<p style=""color:rgb(150, 250, 100); font-size: 35px;"">我的</p>","e","categorize-html","161","280235","0.0-6.0-0.0-8.0-1.26","3","3","4","3","2","3","3","3","4","4","4","3","3","4","4","4","4","4","4","4","2","2","2","2","2","2","2","4","2","1","0","0","0","0","0","0","1","0","0","1","0","1","0","0","4","4","3","2","4","5","3","4","4","3","2","781446149684072450","袁","437","","","","","","","","","","","","","","","","","","","true","4","4","ability","695","self","我的","","","","","","","","","","","","","","","","",""
"null","","null","html-keyboard-response","162","280486","0.0-6.0-0.0-8.0-0.27","3","3","4","3","2","3","3","3","4","4","4","3","3","4","4","4","4","4","4","4","2","2","2","2","2","2","2","4","2","1","0","0","0","0","0","0","1","0","0","1","0","1","0","0","4","4","3","2","4","5","3","4","4","3","2","781446149684072450","袁","437","","","","","","","","","","","","","","","","","","","","","","","","","","","","","","","","","","","","","","","","","",""
"939","<p style=""color:white; font-size: 35px;"">能干</p>","i","categorize-html","163","281427","0.0-6.0-0.0-8.0-1.27","3","3","4","3","2","3","3","3","4","4","4","3","3","4","4","4","4","4","4","4","2","2","2","2","2","2","2","4","2","1","0","0","0","0","0","0","1","0","0","1","0","1","0","0","4","4","3","2","4","5","3","4","4","3","2","781446149684072450","袁","437","","","","","","","","","","","","","","","","","","","true","4","4","ability","939","positive","能干","","","","","","","","","","","","","","","","",""
"null","","null","html-keyboard-response","164","281678","0.0-6.0-0.0-8.0-0.28","3","3","4","3","2","3","3","3","4","4","4","3","3","4","4","4","4","4","4","4","2","2","2","2","2","2","2","4","2","1","0","0","0","0","0","0","1","0","0","1","0","1","0","0","4","4","3","2","4","5","3","4","4","3","2","781446149684072450","袁","437","","","","","","","","","","","","","","","","","","","","","","","","","","","","","","","","","","","","","","","","","",""
"844","<p style=""color:rgb(150, 250, 100); font-size: 35px;"">自己</p>","e","categorize-html","165","282524","0.0-6.0-0.0-8.0-1.28","3","3","4","3","2","3","3","3","4","4","4","3","3","4","4","4","4","4","4","4","2","2","2","2","2","2","2","4","2","1","0","0","0","0","0","0","1","0","0","1","0","1","0","0","4","4","3","2","4","5","3","4","4","3","2","781446149684072450","袁","437","","","","","","","","","","","","","","","","","","","true","4","4","ability","844","self","自己","","","","","","","","","","","","","","","","",""
"null","","null","html-keyboard-response","166","282775","0.0-6.0-0.0-8.0-0.29","3","3","4","3","2","3","3","3","4","4","4","3","3","4","4","4","4","4","4","4","2","2","2","2","2","2","2","4","2","1","0","0","0","0","0","0","1","0","0","1","0","1","0","0","4","4","3","2","4","5","3","4","4","3","2","781446149684072450","袁","437","","","","","","","","","","","","","","","","","","","","","","","","","","","","","","","","","","","","","","","","","",""
"591","<p style=""color:white; font-size: 35px;"">天才</p>","i","categorize-html","167","283367","0.0-6.0-0.0-8.0-1.29","3","3","4","3","2","3","3","3","4","4","4","3","3","4","4","4","4","4","4","4","2","2","2","2","2","2","2","4","2","1","0","0","0","0","0","0","1","0","0","1","0","1","0","0","4","4","3","2","4","5","3","4","4","3","2","781446149684072450","袁","437","","","","","","","","","","","","","","","","","","","true","4","4","ability","591","positive","天才","","","","","","","","","","","","","","","","",""
"null","","null","html-keyboard-response","168","283618","0.0-6.0-0.0-8.0-0.30","3","3","4","3","2","3","3","3","4","4","4","3","3","4","4","4","4","4","4","4","2","2","2","2","2","2","2","4","2","1","0","0","0","0","0","0","1","0","0","1","0","1","0","0","4","4","3","2","4","5","3","4","4","3","2","781446149684072450","袁","437","","","","","","","","","","","","","","","","","","","","","","","","","","","","","","","","","","","","","","","","","",""
"707","<p style=""color:rgb(150, 250, 100); font-size: 35px;"">别人的</p>","i","categorize-html","169","284327","0.0-6.0-0.0-8.0-1.30","3","3","4","3","2","3","3","3","4","4","4","3","3","4","4","4","4","4","4","4","2","2","2","2","2","2","2","4","2","1","0","0","0","0","0","0","1","0","0","1","0","1","0","0","4","4","3","2","4","5","3","4","4","3","2","781446149684072450","袁","437","","","","","","","","","","","","","","","","","","","true","4","4","ability","707","other","别人的","","","","","","","","","","","","","","","","",""
"null","","null","html-keyboard-response","170","284579","0.0-6.0-0.0-8.0-0.31","3","3","4","3","2","3","3","3","4","4","4","3","3","4","4","4","4","4","4","4","2","2","2","2","2","2","2","4","2","1","0","0","0","0","0","0","1","0","0","1","0","1","0","0","4","4","3","2","4","5","3","4","4","3","2","781446149684072450","袁","437","","","","","","","","","","","","","","","","","","","","","","","","","","","","","","","","","","","","","","","","","",""
"698","<p style=""color:white; font-size: 35px;"">拙笨</p>","e","categorize-html","171","285279","0.0-6.0-0.0-8.0-1.31","3","3","4","3","2","3","3","3","4","4","4","3","3","4","4","4","4","4","4","4","2","2","2","2","2","2","2","4","2","1","0","0","0","0","0","0","1","0","0","1","0","1","0","0","4","4","3","2","4","5","3","4","4","3","2","781446149684072450","袁","437","","","","","","","","","","","","","","","","","","","true","4","4","ability","698","negative","拙笨","","","","","","","","","","","","","","","","",""
"null","","null","html-keyboard-response","172","285529","0.0-6.0-0.0-8.0-0.32","3","3","4","3","2","3","3","3","4","4","4","3","3","4","4","4","4","4","4","4","2","2","2","2","2","2","2","4","2","1","0","0","0","0","0","0","1","0","0","1","0","1","0","0","4","4","3","2","4","5","3","4","4","3","2","781446149684072450","袁","437","","","","","","","","","","","","","","","","","","","","","","","","","","","","","","","","","","","","","","","","","",""
"652","<p style=""color:rgb(150, 250, 100); font-size: 35px;"">别人</p>","i","categorize-html","173","286183","0.0-6.0-0.0-8.0-1.32","3","3","4","3","2","3","3","3","4","4","4","3","3","4","4","4","4","4","4","4","2","2","2","2","2","2","2","4","2","1","0","0","0","0","0","0","1","0","0","1","0","1","0","0","4","4","3","2","4","5","3","4","4","3","2","781446149684072450","袁","437","","","","","","","","","","","","","","","","","","","true","4","4","ability","652","other","别人","","","","","","","","","","","","","","","","",""
"null","","null","html-keyboard-response","174","286434","0.0-6.0-0.0-8.0-0.33","3","3","4","3","2","3","3","3","4","4","4","3","3","4","4","4","4","4","4","4","2","2","2","2","2","2","2","4","2","1","0","0","0","0","0","0","1","0","0","1","0","1","0","0","4","4","3","2","4","5","3","4","4","3","2","781446149684072450","袁","437","","","","","","","","","","","","","","","","","","","","","","","","","","","","","","","","","","","","","","","","","",""
"979","<p style=""color:white; font-size: 35px;"">低能</p>","e","categorize-html","175","287415","0.0-6.0-0.0-8.0-1.33","3","3","4","3","2","3","3","3","4","4","4","3","3","4","4","4","4","4","4","4","2","2","2","2","2","2","2","4","2","1","0","0","0","0","0","0","1","0","0","1","0","1","0","0","4","4","3","2","4","5","3","4","4","3","2","781446149684072450","袁","437","","","","","","","","","","","","","","","","","","","true","4","4","ability","979","negative","低能","","","","","","","","","","","","","","","","",""
"null","","null","html-keyboard-response","176","287666","0.0-6.0-0.0-8.0-0.34","3","3","4","3","2","3","3","3","4","4","4","3","3","4","4","4","4","4","4","4","2","2","2","2","2","2","2","4","2","1","0","0","0","0","0","0","1","0","0","1","0","1","0","0","4","4","3","2","4","5","3","4","4","3","2","781446149684072450","袁","437","","","","","","","","","","","","","","","","","","","","","","","","","","","","","","","","","","","","","","","","","",""
"707","<p style=""color:rgb(150, 250, 100); font-size: 35px;"">本人的</p>","i","categorize-html","177","288648","0.0-6.0-0.0-8.0-1.34","3","3","4","3","2","3","3","3","4","4","4","3","3","4","4","4","4","4","4","4","2","2","2","2","2","2","2","4","2","1","0","0","0","0","0","0","1","0","0","1","0","1","0","0","4","4","3","2","4","5","3","4","4","3","2","781446149684072450","袁","437","","","","","","","","","","","","","","","","","","","false","4","4","ability","1488.6888888888889","self","本人的","","","","","","","","","","","","","","","","",""
"null","","null","html-keyboard-response","178","288900","0.0-6.0-0.0-8.0-0.35","3","3","4","3","2","3","3","3","4","4","4","3","3","4","4","4","4","4","4","4","2","2","2","2","2","2","2","4","2","1","0","0","0","0","0","0","1","0","0","1","0","1","0","0","4","4","3","2","4","5","3","4","4","3","2","781446149684072450","袁","437","","","","","","","","","","","","","","","","","","","","","","","","","","","","","","","","","","","","","","","","","",""
"697","<p style=""color:white; font-size: 35px;"">精干</p>","i","categorize-html","179","289599","0.0-6.0-0.0-8.0-1.35","3","3","4","3","2","3","3","3","4","4","4","3","3","4","4","4","4","4","4","4","2","2","2","2","2","2","2","4","2","1","0","0","0","0","0","0","1","0","0","1","0","1","0","0","4","4","3","2","4","5","3","4","4","3","2","781446149684072450","袁","437","","","","","","","","","","","","","","","","","","","true","4","4","ability","697","positive","精干","","","","","","","","","","","","","","","","",""
"null","","null","html-keyboard-response","180","289850","0.0-6.0-0.0-8.0-0.36","3","3","4","3","2","3","3","3","4","4","4","3","3","4","4","4","4","4","4","4","2","2","2","2","2","2","2","4","2","1","0","0","0","0","0","0","1","0","0","1","0","1","0","0","4","4","3","2","4","5","3","4","4","3","2","781446149684072450","袁","437","","","","","","","","","","","","","","","","","","","","","","","","","","","","","","","","","","","","","","","","","",""
"589","<p style=""color:rgb(150, 250, 100); font-size: 35px;"">我</p>","e","categorize-html","181","290441","0.0-6.0-0.0-8.0-1.36","3","3","4","3","2","3","3","3","4","4","4","3","3","4","4","4","4","4","4","4","2","2","2","2","2","2","2","4","2","1","0","0","0","0","0","0","1","0","0","1","0","1","0","0","4","4","3","2","4","5","3","4","4","3","2","781446149684072450","袁","437","","","","","","","","","","","","","","","","","","","true","4","4","ability","589","self","我","","","","","","","","","","","","","","","","",""
"null","","null","html-keyboard-response","182","290692","0.0-6.0-0.0-8.0-0.37","3","3","4","3","2","3","3","3","4","4","4","3","3","4","4","4","4","4","4","4","2","2","2","2","2","2","2","4","2","1","0","0","0","0","0","0","1","0","0","1","0","1","0","0","4","4","3","2","4","5","3","4","4","3","2","781446149684072450","袁","437","","","","","","","","","","","","","","","","","","","","","","","","","","","","","","","","","","","","","","","","","",""
"883","<p style=""color:white; font-size: 35px;"">全能</p>","i","categorize-html","183","291577","0.0-6.0-0.0-8.0-1.37","3","3","4","3","2","3","3","3","4","4","4","3","3","4","4","4","4","4","4","4","2","2","2","2","2","2","2","4","2","1","0","0","0","0","0","0","1","0","0","1","0","1","0","0","4","4","3","2","4","5","3","4","4","3","2","781446149684072450","袁","437","","","","","","","","","","","","","","","","","","","true","4","4","ability","883","positive","全能","","","","","","","","","","","","","","","","",""
"null","","null","html-keyboard-response","184","291828","0.0-6.0-0.0-8.0-0.38","3","3","4","3","2","3","3","3","4","4","4","3","3","4","4","4","4","4","4","4","2","2","2","2","2","2","2","4","2","1","0","0","0","0","0","0","1","0","0","1","0","1","0","0","4","4","3","2","4","5","3","4","4","3","2","781446149684072450","袁","437","","","","","","","","","","","","","","","","","","","","","","","","","","","","","","","","","","","","","","","","","",""
"743","<p style=""color:rgb(150, 250, 100); font-size: 35px;"">他</p>","i","categorize-html","185","292573","0.0-6.0-0.0-8.0-1.38","3","3","4","3","2","3","3","3","4","4","4","3","3","4","4","4","4","4","4","4","2","2","2","2","2","2","2","4","2","1","0","0","0","0","0","0","1","0","0","1","0","1","0","0","4","4","3","2","4","5","3","4","4","3","2","781446149684072450","袁","437","","","","","","","","","","","","","","","","","","","true","4","4","ability","743","other","他","","","","","","","","","","","","","","","","",""
"null","","null","html-keyboard-response","186","292824","0.0-6.0-0.0-8.0-0.39","3","3","4","3","2","3","3","3","4","4","4","3","3","4","4","4","4","4","4","4","2","2","2","2","2","2","2","4","2","1","0","0","0","0","0","0","1","0","0","1","0","1","0","0","4","4","3","2","4","5","3","4","4","3","2","781446149684072450","袁","437","","","","","","","","","","","","","","","","","","","","","","","","","","","","","","","","","","","","","","","","","",""
"607","<p style=""color:white; font-size: 35px;"">废物</p>","e","categorize-html","187","293433","0.0-6.0-0.0-8.0-1.39","3","3","4","3","2","3","3","3","4","4","4","3","3","4","4","4","4","4","4","4","2","2","2","2","2","2","2","4","2","1","0","0","0","0","0","0","1","0","0","1","0","1","0","0","4","4","3","2","4","5","3","4","4","3","2","781446149684072450","袁","437","","","","","","","","","","","","","","","","","","","true","4","4","ability","607","negative","废物","","","","","","","","","","","","","","","","",""
"null","","null","html-keyboard-response","188","293684","0.0-6.0-0.0-8.0-0.40","3","3","4","3","2","3","3","3","4","4","4","3","3","4","4","4","4","4","4","4","2","2","2","2","2","2","2","4","2","1","0","0","0","0","0","0","1","0","0","1","0","1","0","0","4","4","3","2","4","5","3","4","4","3","2","781446149684072450","袁","437","","","","","","","","","","","","","","","","","","","","","","","","","","","","","","","","","","","","","","","","","",""
"904","<p style=""color:rgb(150, 250, 100); font-size: 35px;"">自己</p>","e","categorize-html","189","294590","0.0-6.0-0.0-8.0-1.40","3","3","4","3","2","3","3","3","4","4","4","3","3","4","4","4","4","4","4","4","2","2","2","2","2","2","2","4","2","1","0","0","0","0","0","0","1","0","0","1","0","1","0","0","4","4","3","2","4","5","3","4","4","3","2","781446149684072450","袁","437","","","","","","","","","","","","","","","","","","","true","4","4","ability","904","self","自己","","","","","","","","","","","","","","","","",""
"null","","null","html-keyboard-response","190","294841","0.0-6.0-0.0-8.0-0.41","3","3","4","3","2","3","3","3","4","4","4","3","3","4","4","4","4","4","4","4","2","2","2","2","2","2","2","4","2","1","0","0","0","0","0","0","1","0","0","1","0","1","0","0","4","4","3","2","4","5","3","4","4","3","2","781446149684072450","袁","437","","","","","","","","","","","","","","","","","","","","","","","","","","","","","","","","","","","","","","","","","",""
"1542","<p style=""color:white; font-size: 35px;"">天才</p>","i","categorize-html","191","296385","0.0-6.0-0.0-8.0-1.41","3","3","4","3","2","3","3","3","4","4","4","3","3","4","4","4","4","4","4","4","2","2","2","2","2","2","2","4","2","1","0","0","0","0","0","0","1","0","0","1","0","1","0","0","4","4","3","2","4","5","3","4","4","3","2","781446149684072450","袁","437","","","","","","","","","","","","","","","","","","","true","4","4","ability","1542","positive","天才","","","","","","","","","","","","","","","","",""
"null","","null","html-keyboard-response","192","296636","0.0-6.0-0.0-8.0-0.42","3","3","4","3","2","3","3","3","4","4","4","3","3","4","4","4","4","4","4","4","2","2","2","2","2","2","2","4","2","1","0","0","0","0","0","0","1","0","0","1","0","1","0","0","4","4","3","2","4","5","3","4","4","3","2","781446149684072450","袁","437","","","","","","","","","","","","","","","","","","","","","","","","","","","","","","","","","","","","","","","","","",""
