"rt","stimulus","response","trial_type","trial_index","time_elapsed","internal_node_id","ses_1","ses_2","ses_3","ses_4","ses_5","ses_6","ses_7","ses_8","ses_9","ses_10","coreself_1","coreself_2","coreself_3","coreself_4","coreself_5","coreself_6","coreself_7","coreself_8","coreself_9","coreself_10","SGPS_1","SGPS_2","SGPS_3","SGPS_4","SGPS_5","SGPS_6","SGPS_7","SGPS_8","SGPS_9","NPI1","NPI2","NPI3","NPI4","NPI5","NPI6","NPI7","NPI8","NPI9","NPI10","NPI11","NPI12","NPI13","NPI14","NPI15","hsns_1","hsns_2","hsns_3","hsns_4","hsns_5","trap1","hsns_6","hsns_7","hsns_8","hsns_9","hsns_10","subj_idx","friend_name","ParticipantID","value","success","user_agent","responses","item_order","radio_event_ids","radio_event_times","key_event_times","mouse_event_times","straightlining","zigzagging","honeypot","timeout","failed_images","failed_audio","failed_video","version_attrib","version_target","correct","IAT","screen_id","task_id","RT","condition","word","varname","summary","version_attrib2","version_target2","time_stamp","view_history","response_type","key_press","avg_frame_time","center_x","center_y","correct_response","identity","Image","question_order","correct_answer","trap1_item"
"21832","
   <p><div style = ""color: white;font-size:25px;"">您好，欢迎参加本次实验。</div> </p>
   <p><div style = ""color: white;font-size:25px;"">为充分保障您的权利，请确保您已经知晓并同意《参与实验同意书》以及《数据公开知情同意书》。</div></p>
   <p><div style = ""color: white;font-size:25px;"">如果您未见过上述内容，请咨询实验员。</div></p>
   <p><div style = ""color: white;font-size:25px;"">如果您选择继续实验，则表示您已经清楚两份知情同意书的内容并同意。</div></p>
   <p><div style = ""color: pink;font-size:30px;"">请确保您记得day0的实验编号，您将在本次实验输入该编号，若您忘记，请咨询实验员后作答。</div></p>
   <p><div style = ""color: lightblue;font-size:25px;"">请您尽可能认真地作答，我们将依据您在各问卷和按键任务中的作答质量发放报酬。</div></p>
   <p> <div style = ""color: green;font-size:25px;""><按空格键至下页></div> </p>
   "," ","html-keyboard-response","0","21837","0.0-0.0","4","3","3","3","2","3","3","3","3","3","4","4","3","3","2","4","4","3","4","4","3","4","4","4","4","2","2","3","4","1","0","0","1","0","0","1","0","0","1","1","0","1","0","1","3","4","4","3","4","2","4","3","4","4","2","775465718602010626","刘","419","","","","","","","","","","","","","","","","","","","","","","","","","","","","","","","","","","","","","","","","","",""
"","","","call-function","1","21841","0.0-1.0-0.0","4","3","3","3","2","3","3","3","3","3","4","4","3","3","2","4","4","3","4","4","3","4","4","4","4","2","2","3","4","1","0","0","1","0","0","1","0","0","1","1","0","1","0","1","3","4","4","3","4","2","4","3","4","4","2","775465718602010626","刘","419","","","","","","","","","","","","","","","","","","","","","","","","","","","","","","","","","","","","","","","","","",""
"72246","","{""friend_name"":""刘"",""ParticipantID"":""419""}","survey-html-form","2","94088","0.0-1.0-1.0","4","3","3","3","2","3","3","3","3","3","4","4","3","3","2","4","4","3","4","4","3","4","4","4","4","2","2","3","4","1","0","0","1","0","0","1","0","0","1","1","0","1","0","1","3","4","4","3","4","2","4","3","4","4","2","775465718602010626","刘","419","","","","","","","","","","","","","","","","","","","","","","","","","","","","","","","","","","","","","","","","","",""
"","","","fullscreen","3","111574","0.0-2.0","4","3","3","3","2","3","3","3","3","3","4","4","3","3","2","4","4","3","4","4","3","4","4","4","4","2","2","3","4","1","0","0","1","0","0","1","0","0","1","1","0","1","0","1","3","4","4","3","4","2","4","3","4","4","2","775465718602010626","刘","419","","true","{}","","","","","","","","","","","","","","","","","","","","","","","","","","","","","","","","","","","","","","",""
"48549.89999997616","","{""Q01"":""4"",""Q02"":""3"",""Q03"":""3"",""Q04"":""3"",""Q05"":""2"",""Q06"":""3"",""Q07"":""3"",""Q08"":""3"",""Q09"":""3"",""Q10"":""3""}","survey-template","4","160128","0.0-3.0","4","3","3","3","2","3","3","3","3","3","4","4","3","3","2","4","4","3","4","4","3","4","4","4","4","2","2","3","4","1","0","0","1","0","0","1","0","0","1","1","0","1","0","1","3","4","4","3","4","2","4","3","4","4","2","775465718602010626","刘","419","","","","{""Q01"":""4"",""Q02"":""3"",""Q03"":""3"",""Q04"":""3"",""Q05"":""2"",""Q06"":""3"",""Q07"":""3"",""Q08"":""3"",""Q09"":""3"",""Q10"":""3""}","[0,1,2,3,4,5,6,7,8,9]","[""Q01"",""Q02"",""Q01"",""Q03"",""Q04"",""Q05"",""Q06"",""Q07"",""Q09"",""Q10"",""Q08"",""Q08""]","[13134.199999988079,17077.099999964237,17695.299999952316,19838,22680.099999964237,26086.19999998808,26905.399999976158,30008,34136.5,35746.89999997616,44794,46044]","[]","[13134.199999988079,17077.099999964237,17695.299999952316,19838,22680.099999964237,26086.19999998808,26905.399999976158,27682.19999998808,30008,31524.899999976158,34136.5,35219.09999996424,35746.89999997616,38107.89999997616,44794,46044,48548.5]","0.5","0.4444444444444444","0","","","","","","","","","","","","","","","","","","","","","","","","","","","","","",""
"86294.60000002384","","{""Q01"":""4"",""Q02"":""4"",""Q03"":""3"",""Q04"":""3"",""Q05"":""2"",""Q06"":""4"",""Q07"":""4"",""Q08"":""3"",""Q09"":""4"",""Q10"":""4""}","survey-template","5","246432","0.0-4.0","4","3","3","3","2","3","3","3","3","3","4","4","3","3","2","4","4","3","4","4","3","4","4","4","4","2","2","3","4","1","0","0","1","0","0","1","0","0","1","1","0","1","0","1","3","4","4","3","4","2","4","3","4","4","2","775465718602010626","刘","419","","","","{""Q01"":""4"",""Q02"":""4"",""Q03"":""3"",""Q04"":""3"",""Q05"":""2"",""Q06"":""4"",""Q07"":""4"",""Q08"":""3"",""Q09"":""4"",""Q10"":""4""}","[0,1,2,3,4,5,6,7,8,9]","[""Q10"",""Q09"",""Q01"",""Q02"",""Q03"",""Q04"",""Q05"",""Q06"",""Q05"",""Q04"",""Q06"",""Q07"",""Q08"",""Q09""]","[11599.100000023842,26394.80000001192,45507.19999998808,48965.30000001192,51641,54044.10000002384,55542.5,56757.10000002384,61122.30000001192,69328.90000003576,72135.80000001192,73731.69999998808,77058,83668.90000003576]","[]","[11599.100000023842,26394.80000001192,32718.19999998808,35651.30000001192,45084.80000001192,45507.19999998808,48965.30000001192,51641,54044.10000002384,55542.5,56757.10000002384,60651,61122.30000001192,69328.90000003576,72135.80000001192,73731.69999998808,75834.10000002384,76613.30000001192,77058,82588.80000001192,83668.90000003576,86292.80000001192]","0.4","0.4444444444444444","0","","","","","","","","","","","","","","","","","","","","","","","","","","","","","",""
"","","","preload","6","246686","0.0-5.0","4","3","3","3","2","3","3","3","3","3","4","4","3","3","2","4","4","3","4","4","3","4","4","4","4","2","2","3","4","1","0","0","1","0","0","1","0","0","1","1","0","1","0","1","3","4","4","3","4","2","4","3","4","4","2","775465718602010626","刘","419","","true","","","","","","","","","","","false","[]","[]","[]","","","","","","","","","","","","","","","","","","","","","","","","","",""
"25278","
    <h3>词语分类任务</h3>
    <p>在接下来的任务中，你需要对一系列词语进行分类。</p>
    <p>请先熟悉这些词语，这有利于你完成接下来的任务。</p>
    <table align=""center"" border=1 cellpadding=3 cellspacing=0>
    <tr> <th>类别</th> <th>词语</th> </tr>
    <tr> <td>&emsp;积极&emsp;</td> <td>&emsp;能干、全能、全才、高效、精干、天才&emsp;</td> </tr>
    <tr> <td>&emsp;消极&emsp;</td> <td>&emsp;无能、低能、废物、拙笨、愚钝、蠢笨&emsp;</td> </tr>
    <tr> <td>&emsp;自我&emsp;</td> <td>&emsp;我、我的、自己、自己的、本人、本人的&emsp;</td> </tr>
    <tr> <td>&emsp;他人&emsp;</td> <td>&emsp;他、他的、别人、别人的、他人、他人的&emsp;</td> </tr>
    </table><br/>","0","html-button-response","7","271966","0.0-6.0-0.0-0.0","4","3","3","3","2","3","3","3","3","3","4","4","3","3","2","4","4","3","4","4","3","4","4","4","4","2","2","3","4","1","0","0","1","0","0","1","0","0","1","1","0","1","0","1","3","4","4","3","4","2","4","3","4","4","2","775465718602010626","刘","419","","","","","","","","","","","","","","","","","2","2","","","","","","","","","","","","","","","","","","","","","","","",""
"43321","
    <div class=""tag-bottom"">
    <p> —— 任务1：对“他人”词和“自我”词分类 ——<p/>
    不同词语会出现在屏幕中央，类别标签将始终显示在屏幕上方<p/>   
    <span style=""color:#FFD866""><b>请根据上方标签的提示，尽可能正确并且快速地做出按键反应</b></span><p/>
    当按键错误时屏幕中会出现<span style=""color:red""> X </span>，需要按另一个键纠正才能继续<br/><p/>
    请把双手食指分别放在键盘的“E”键和“I”键上<p/>
    按<空格键>开始
    </p></div>"," ","html-keyboard-response","8","315292","0.0-6.0-0.0-1.0","4","3","3","3","2","3","3","3","3","3","4","4","3","3","2","4","4","3","4","4","3","4","4","4","4","2","2","3","4","1","0","0","1","0","0","1","0","0","1","1","0","1","0","1","3","4","4","3","4","2","4","3","4","4","2","775465718602010626","刘","419","","","","","","","","","","","","","","","","","","","","","","","","","","","","","","","","","","","","","","","","","",""
"null","","null","html-keyboard-response","9","315544","0.0-6.0-0.0-2.0-0.0","4","3","3","3","2","3","3","3","3","3","4","4","3","3","2","4","4","3","4","4","3","4","4","4","4","2","2","3","4","1","0","0","1","0","0","1","0","0","1","1","0","1","0","1","3","4","4","3","4","2","4","3","4","4","2","775465718602010626","刘","419","","","","","","","","","","","","","","","","","","","","","","","","","","","","","","","","","","","","","","","","","",""
"813","<p style=""color:rgb(150, 250, 100); font-size: 35px;"">别人的</p>","i","categorize-html","10","317050","0.0-6.0-0.0-2.0-1.0","4","3","3","3","2","3","3","3","3","3","4","4","3","3","2","4","4","3","4","4","3","4","4","4","4","2","2","3","4","1","0","0","1","0","0","1","0","0","1","1","0","1","0","1","3","4","4","3","4","2","4","3","4","4","2","775465718602010626","刘","419","","","","","","","","","","","","","","","","","","","false","1","1","ability","813","other","别人的","","","","","","","","","","","","","","","","",""
"null","","null","html-keyboard-response","11","317303","0.0-6.0-0.0-2.0-0.1","4","3","3","3","2","3","3","3","3","3","4","4","3","3","2","4","4","3","4","4","3","4","4","4","4","2","2","3","4","1","0","0","1","0","0","1","0","0","1","1","0","1","0","1","3","4","4","3","4","2","4","3","4","4","2","775465718602010626","刘","419","","","","","","","","","","","","","","","","","","","","","","","","","","","","","","","","","","","","","","","","","",""
"704","<p style=""color:rgb(150, 250, 100); font-size: 35px;"">自己</p>","e","categorize-html","12","318907","0.0-6.0-0.0-2.0-1.1","4","3","3","3","2","3","3","3","3","3","4","4","3","3","2","4","4","3","4","4","3","4","4","4","4","2","2","3","4","1","0","0","1","0","0","1","0","0","1","1","0","1","0","1","3","4","4","3","4","2","4","3","4","4","2","775465718602010626","刘","419","","","","","","","","","","","","","","","","","","","false","1","1","ability","704","self","自己","","","","","","","","","","","","","","","","",""
"null","","null","html-keyboard-response","13","319159","0.0-6.0-0.0-2.0-0.2","4","3","3","3","2","3","3","3","3","3","4","4","3","3","2","4","4","3","4","4","3","4","4","4","4","2","2","3","4","1","0","0","1","0","0","1","0","0","1","1","0","1","0","1","3","4","4","3","4","2","4","3","4","4","2","775465718602010626","刘","419","","","","","","","","","","","","","","","","","","","","","","","","","","","","","","","","","","","","","","","","","",""
"1480","<p style=""color:rgb(150, 250, 100); font-size: 35px;"">我</p>","i","categorize-html","14","320645","0.0-6.0-0.0-2.0-1.2","4","3","3","3","2","3","3","3","3","3","4","4","3","3","2","4","4","3","4","4","3","4","4","4","4","2","2","3","4","1","0","0","1","0","0","1","0","0","1","1","0","1","0","1","3","4","4","3","4","2","4","3","4","4","2","775465718602010626","刘","419","","","","","","","","","","","","","","","","","","","true","1","1","ability","1480","self","我","","","","","","","","","","","","","","","","",""
"null","","null","html-keyboard-response","15","320898","0.0-6.0-0.0-2.0-0.3","4","3","3","3","2","3","3","3","3","3","4","4","3","3","2","4","4","3","4","4","3","4","4","4","4","2","2","3","4","1","0","0","1","0","0","1","0","0","1","1","0","1","0","1","3","4","4","3","4","2","4","3","4","4","2","775465718602010626","刘","419","","","","","","","","","","","","","","","","","","","","","","","","","","","","","","","","","","","","","","","","","",""
"1246","<p style=""color:rgb(150, 250, 100); font-size: 35px;"">本人的</p>","i","categorize-html","16","322150","0.0-6.0-0.0-2.0-1.3","4","3","3","3","2","3","3","3","3","3","4","4","3","3","2","4","4","3","4","4","3","4","4","4","4","2","2","3","4","1","0","0","1","0","0","1","0","0","1","1","0","1","0","1","3","4","4","3","4","2","4","3","4","4","2","775465718602010626","刘","419","","","","","","","","","","","","","","","","","","","true","1","1","ability","1246","self","本人的","","","","","","","","","","","","","","","","",""
"null","","null","html-keyboard-response","17","322402","0.0-6.0-0.0-2.0-0.4","4","3","3","3","2","3","3","3","3","3","4","4","3","3","2","4","4","3","4","4","3","4","4","4","4","2","2","3","4","1","0","0","1","0","0","1","0","0","1","1","0","1","0","1","3","4","4","3","4","2","4","3","4","4","2","775465718602010626","刘","419","","","","","","","","","","","","","","","","","","","","","","","","","","","","","","","","","","","","","","","","","",""
"668","<p style=""color:rgb(150, 250, 100); font-size: 35px;"">他人</p>","e","categorize-html","18","323077","0.0-6.0-0.0-2.0-1.4","4","3","3","3","2","3","3","3","3","3","4","4","3","3","2","4","4","3","4","4","3","4","4","4","4","2","2","3","4","1","0","0","1","0","0","1","0","0","1","1","0","1","0","1","3","4","4","3","4","2","4","3","4","4","2","775465718602010626","刘","419","","","","","","","","","","","","","","","","","","","true","1","1","ability","668","other","他人","","","","","","","","","","","","","","","","",""
"null","","null","html-keyboard-response","19","323330","0.0-6.0-0.0-2.0-0.5","4","3","3","3","2","3","3","3","3","3","4","4","3","3","2","4","4","3","4","4","3","4","4","4","4","2","2","3","4","1","0","0","1","0","0","1","0","0","1","1","0","1","0","1","3","4","4","3","4","2","4","3","4","4","2","775465718602010626","刘","419","","","","","","","","","","","","","","","","","","","","","","","","","","","","","","","","","","","","","","","","","",""
"782","<p style=""color:rgb(150, 250, 100); font-size: 35px;"">我的</p>","i","categorize-html","20","324119","0.0-6.0-0.0-2.0-1.5","4","3","3","3","2","3","3","3","3","3","4","4","3","3","2","4","4","3","4","4","3","4","4","4","4","2","2","3","4","1","0","0","1","0","0","1","0","0","1","1","0","1","0","1","3","4","4","3","4","2","4","3","4","4","2","775465718602010626","刘","419","","","","","","","","","","","","","","","","","","","true","1","1","ability","782","self","我的","","","","","","","","","","","","","","","","",""
"null","","null","html-keyboard-response","21","324373","0.0-6.0-0.0-2.0-0.6","4","3","3","3","2","3","3","3","3","3","4","4","3","3","2","4","4","3","4","4","3","4","4","4","4","2","2","3","4","1","0","0","1","0","0","1","0","0","1","1","0","1","0","1","3","4","4","3","4","2","4","3","4","4","2","775465718602010626","刘","419","","","","","","","","","","","","","","","","","","","","","","","","","","","","","","","","","","","","","","","","","",""
"883","<p style=""color:rgb(150, 250, 100); font-size: 35px;"">他人的</p>","e","categorize-html","22","325261","0.0-6.0-0.0-2.0-1.6","4","3","3","3","2","3","3","3","3","3","4","4","3","3","2","4","4","3","4","4","3","4","4","4","4","2","2","3","4","1","0","0","1","0","0","1","0","0","1","1","0","1","0","1","3","4","4","3","4","2","4","3","4","4","2","775465718602010626","刘","419","","","","","","","","","","","","","","","","","","","true","1","1","ability","883","other","他人的","","","","","","","","","","","","","","","","",""
"null","","null","html-keyboard-response","23","325514","0.0-6.0-0.0-2.0-0.7","4","3","3","3","2","3","3","3","3","3","4","4","3","3","2","4","4","3","4","4","3","4","4","4","4","2","2","3","4","1","0","0","1","0","0","1","0","0","1","1","0","1","0","1","3","4","4","3","4","2","4","3","4","4","2","775465718602010626","刘","419","","","","","","","","","","","","","","","","","","","","","","","","","","","","","","","","","","","","","","","","","",""
"550","<p style=""color:rgb(150, 250, 100); font-size: 35px;"">他</p>","e","categorize-html","24","326069","0.0-6.0-0.0-2.0-1.7","4","3","3","3","2","3","3","3","3","3","4","4","3","3","2","4","4","3","4","4","3","4","4","4","4","2","2","3","4","1","0","0","1","0","0","1","0","0","1","1","0","1","0","1","3","4","4","3","4","2","4","3","4","4","2","775465718602010626","刘","419","","","","","","","","","","","","","","","","","","","true","1","1","ability","550","other","他","","","","","","","","","","","","","","","","",""
"null","","null","html-keyboard-response","25","326322","0.0-6.0-0.0-2.0-0.8","4","3","3","3","2","3","3","3","3","3","4","4","3","3","2","4","4","3","4","4","3","4","4","4","4","2","2","3","4","1","0","0","1","0","0","1","0","0","1","1","0","1","0","1","3","4","4","3","4","2","4","3","4","4","2","775465718602010626","刘","419","","","","","","","","","","","","","","","","","","","","","","","","","","","","","","","","","","","","","","","","","",""
"742","<p style=""color:rgb(150, 250, 100); font-size: 35px;"">本人</p>","i","categorize-html","26","327069","0.0-6.0-0.0-2.0-1.8","4","3","3","3","2","3","3","3","3","3","4","4","3","3","2","4","4","3","4","4","3","4","4","4","4","2","2","3","4","1","0","0","1","0","0","1","0","0","1","1","0","1","0","1","3","4","4","3","4","2","4","3","4","4","2","775465718602010626","刘","419","","","","","","","","","","","","","","","","","","","true","1","1","ability","742","self","本人","","","","","","","","","","","","","","","","",""
"null","","null","html-keyboard-response","27","327324","0.0-6.0-0.0-2.0-0.9","4","3","3","3","2","3","3","3","3","3","4","4","3","3","2","4","4","3","4","4","3","4","4","4","4","2","2","3","4","1","0","0","1","0","0","1","0","0","1","1","0","1","0","1","3","4","4","3","4","2","4","3","4","4","2","775465718602010626","刘","419","","","","","","","","","","","","","","","","","","","","","","","","","","","","","","","","","","","","","","","","","",""
"867","<p style=""color:rgb(150, 250, 100); font-size: 35px;"">别人</p>","e","categorize-html","28","328197","0.0-6.0-0.0-2.0-1.9","4","3","3","3","2","3","3","3","3","3","4","4","3","3","2","4","4","3","4","4","3","4","4","4","4","2","2","3","4","1","0","0","1","0","0","1","0","0","1","1","0","1","0","1","3","4","4","3","4","2","4","3","4","4","2","775465718602010626","刘","419","","","","","","","","","","","","","","","","","","","true","1","1","ability","867","other","别人","","","","","","","","","","","","","","","","",""
"null","","null","html-keyboard-response","29","328451","0.0-6.0-0.0-2.0-0.10","4","3","3","3","2","3","3","3","3","3","4","4","3","3","2","4","4","3","4","4","3","4","4","4","4","2","2","3","4","1","0","0","1","0","0","1","0","0","1","1","0","1","0","1","3","4","4","3","4","2","4","3","4","4","2","775465718602010626","刘","419","","","","","","","","","","","","","","","","","","","","","","","","","","","","","","","","","","","","","","","","","",""
"516","<p style=""color:rgb(150, 250, 100); font-size: 35px;"">自己的</p>","i","categorize-html","30","328974","0.0-6.0-0.0-2.0-1.10","4","3","3","3","2","3","3","3","3","3","4","4","3","3","2","4","4","3","4","4","3","4","4","4","4","2","2","3","4","1","0","0","1","0","0","1","0","0","1","1","0","1","0","1","3","4","4","3","4","2","4","3","4","4","2","775465718602010626","刘","419","","","","","","","","","","","","","","","","","","","true","1","1","ability","516","self","自己的","","","","","","","","","","","","","","","","",""
"null","","null","html-keyboard-response","31","329225","0.0-6.0-0.0-2.0-0.11","4","3","3","3","2","3","3","3","3","3","4","4","3","3","2","4","4","3","4","4","3","4","4","4","4","2","2","3","4","1","0","0","1","0","0","1","0","0","1","1","0","1","0","1","3","4","4","3","4","2","4","3","4","4","2","775465718602010626","刘","419","","","","","","","","","","","","","","","","","","","","","","","","","","","","","","","","","","","","","","","","","",""
"630","<p style=""color:rgb(150, 250, 100); font-size: 35px;"">他的</p>","e","categorize-html","32","329859","0.0-6.0-0.0-2.0-1.11","4","3","3","3","2","3","3","3","3","3","4","4","3","3","2","4","4","3","4","4","3","4","4","4","4","2","2","3","4","1","0","0","1","0","0","1","0","0","1","1","0","1","0","1","3","4","4","3","4","2","4","3","4","4","2","775465718602010626","刘","419","","","","","","","","","","","","","","","","","","","true","1","1","ability","630","other","他的","","","","","","","","","","","","","","","","",""
"23703","
    <div class=""tag-bottom""><p>
    —— 任务2：对“消极”词和“积极”词分类 ——<p/>   
    <span style=""color:#78DCE8""><b>注意上方，类别标签和需要分类的词语都已经改变</b></span><p/>
    <span style=""color:#FFD866""><b>请根据上方标签的提示，尽可能正确并且快速地做出按键反应</b></span><p/>
    当按键错误时屏幕中会出现<span style=""color:red""> X </span>，需要按另一个键纠正才能继续<br/><p/>
    请把双手食指分别放在键盘的“E”键和“I”键上<p/>
    按<空格键>开始
    </p></div>"," ","html-keyboard-response","33","353563","0.0-6.0-0.0-3.0","4","3","3","3","2","3","3","3","3","3","4","4","3","3","2","4","4","3","4","4","3","4","4","4","4","2","2","3","4","1","0","0","1","0","0","1","0","0","1","1","0","1","0","1","3","4","4","3","4","2","4","3","4","4","2","775465718602010626","刘","419","","","","","","","","","","","","","","","","","","","","","","","","","","","","","","","","","","","","","","","","","",""
"null","","null","html-keyboard-response","34","353815","0.0-6.0-0.0-4.0-0.0","4","3","3","3","2","3","3","3","3","3","4","4","3","3","2","4","4","3","4","4","3","4","4","4","4","2","2","3","4","1","0","0","1","0","0","1","0","0","1","1","0","1","0","1","3","4","4","3","4","2","4","3","4","4","2","775465718602010626","刘","419","","","","","","","","","","","","","","","","","","","","","","","","","","","","","","","","","","","","","","","","","",""
"815","<p style=""color:white; font-size: 35px;"">全能</p>","i","categorize-html","35","354637","0.0-6.0-0.0-4.0-1.0","4","3","3","3","2","3","3","3","3","3","4","4","3","3","2","4","4","3","4","4","3","4","4","4","4","2","2","3","4","1","0","0","1","0","0","1","0","0","1","1","0","1","0","1","3","4","4","3","4","2","4","3","4","4","2","775465718602010626","刘","419","","","","","","","","","","","","","","","","","","","true","2","2","ability","815","positive","全能","","","","","","","","","","","","","","","","",""
"null","","null","html-keyboard-response","36","354889","0.0-6.0-0.0-4.0-0.1","4","3","3","3","2","3","3","3","3","3","4","4","3","3","2","4","4","3","4","4","3","4","4","4","4","2","2","3","4","1","0","0","1","0","0","1","0","0","1","1","0","1","0","1","3","4","4","3","4","2","4","3","4","4","2","775465718602010626","刘","419","","","","","","","","","","","","","","","","","","","","","","","","","","","","","","","","","","","","","","","","","",""
"599","<p style=""color:white; font-size: 35px;"">蠢笨</p>","e","categorize-html","37","355494","0.0-6.0-0.0-4.0-1.1","4","3","3","3","2","3","3","3","3","3","4","4","3","3","2","4","4","3","4","4","3","4","4","4","4","2","2","3","4","1","0","0","1","0","0","1","0","0","1","1","0","1","0","1","3","4","4","3","4","2","4","3","4","4","2","775465718602010626","刘","419","","","","","","","","","","","","","","","","","","","true","2","2","ability","599","negative","蠢笨","","","","","","","","","","","","","","","","",""
"null","","null","html-keyboard-response","38","355746","0.0-6.0-0.0-4.0-0.2","4","3","3","3","2","3","3","3","3","3","4","4","3","3","2","4","4","3","4","4","3","4","4","4","4","2","2","3","4","1","0","0","1","0","0","1","0","0","1","1","0","1","0","1","3","4","4","3","4","2","4","3","4","4","2","775465718602010626","刘","419","","","","","","","","","","","","","","","","","","","","","","","","","","","","","","","","","","","","","","","","","",""
"621","<p style=""color:white; font-size: 35px;"">拙笨</p>","e","categorize-html","39","356375","0.0-6.0-0.0-4.0-1.2","4","3","3","3","2","3","3","3","3","3","4","4","3","3","2","4","4","3","4","4","3","4","4","4","4","2","2","3","4","1","0","0","1","0","0","1","0","0","1","1","0","1","0","1","3","4","4","3","4","2","4","3","4","4","2","775465718602010626","刘","419","","","","","","","","","","","","","","","","","","","true","2","2","ability","621","negative","拙笨","","","","","","","","","","","","","","","","",""
"null","","null","html-keyboard-response","40","356628","0.0-6.0-0.0-4.0-0.3","4","3","3","3","2","3","3","3","3","3","4","4","3","3","2","4","4","3","4","4","3","4","4","4","4","2","2","3","4","1","0","0","1","0","0","1","0","0","1","1","0","1","0","1","3","4","4","3","4","2","4","3","4","4","2","775465718602010626","刘","419","","","","","","","","","","","","","","","","","","","","","","","","","","","","","","","","","","","","","","","","","",""
"667","<p style=""color:white; font-size: 35px;"">愚钝</p>","e","categorize-html","41","357301","0.0-6.0-0.0-4.0-1.3","4","3","3","3","2","3","3","3","3","3","4","4","3","3","2","4","4","3","4","4","3","4","4","4","4","2","2","3","4","1","0","0","1","0","0","1","0","0","1","1","0","1","0","1","3","4","4","3","4","2","4","3","4","4","2","775465718602010626","刘","419","","","","","","","","","","","","","","","","","","","true","2","2","ability","667","negative","愚钝","","","","","","","","","","","","","","","","",""
"null","","null","html-keyboard-response","42","357554","0.0-6.0-0.0-4.0-0.4","4","3","3","3","2","3","3","3","3","3","4","4","3","3","2","4","4","3","4","4","3","4","4","4","4","2","2","3","4","1","0","0","1","0","0","1","0","0","1","1","0","1","0","1","3","4","4","3","4","2","4","3","4","4","2","775465718602010626","刘","419","","","","","","","","","","","","","","","","","","","","","","","","","","","","","","","","","","","","","","","","","",""
"548","<p style=""color:white; font-size: 35px;"">低能</p>","e","categorize-html","43","358105","0.0-6.0-0.0-4.0-1.4","4","3","3","3","2","3","3","3","3","3","4","4","3","3","2","4","4","3","4","4","3","4","4","4","4","2","2","3","4","1","0","0","1","0","0","1","0","0","1","1","0","1","0","1","3","4","4","3","4","2","4","3","4","4","2","775465718602010626","刘","419","","","","","","","","","","","","","","","","","","","true","2","2","ability","548","negative","低能","","","","","","","","","","","","","","","","",""
"null","","null","html-keyboard-response","44","358355","0.0-6.0-0.0-4.0-0.5","4","3","3","3","2","3","3","3","3","3","4","4","3","3","2","4","4","3","4","4","3","4","4","4","4","2","2","3","4","1","0","0","1","0","0","1","0","0","1","1","0","1","0","1","3","4","4","3","4","2","4","3","4","4","2","775465718602010626","刘","419","","","","","","","","","","","","","","","","","","","","","","","","","","","","","","","","","","","","","","","","","",""
"590","<p style=""color:white; font-size: 35px;"">全才</p>","i","categorize-html","45","358949","0.0-6.0-0.0-4.0-1.5","4","3","3","3","2","3","3","3","3","3","4","4","3","3","2","4","4","3","4","4","3","4","4","4","4","2","2","3","4","1","0","0","1","0","0","1","0","0","1","1","0","1","0","1","3","4","4","3","4","2","4","3","4","4","2","775465718602010626","刘","419","","","","","","","","","","","","","","","","","","","true","2","2","ability","590","positive","全才","","","","","","","","","","","","","","","","",""
"null","","null","html-keyboard-response","46","359202","0.0-6.0-0.0-4.0-0.6","4","3","3","3","2","3","3","3","3","3","4","4","3","3","2","4","4","3","4","4","3","4","4","4","4","2","2","3","4","1","0","0","1","0","0","1","0","0","1","1","0","1","0","1","3","4","4","3","4","2","4","3","4","4","2","775465718602010626","刘","419","","","","","","","","","","","","","","","","","","","","","","","","","","","","","","","","","","","","","","","","","",""
"462","<p style=""color:white; font-size: 35px;"">高效</p>","i","categorize-html","47","359669","0.0-6.0-0.0-4.0-1.6","4","3","3","3","2","3","3","3","3","3","4","4","3","3","2","4","4","3","4","4","3","4","4","4","4","2","2","3","4","1","0","0","1","0","0","1","0","0","1","1","0","1","0","1","3","4","4","3","4","2","4","3","4","4","2","775465718602010626","刘","419","","","","","","","","","","","","","","","","","","","true","2","2","ability","462","positive","高效","","","","","","","","","","","","","","","","",""
"null","","null","html-keyboard-response","48","359922","0.0-6.0-0.0-4.0-0.7","4","3","3","3","2","3","3","3","3","3","4","4","3","3","2","4","4","3","4","4","3","4","4","4","4","2","2","3","4","1","0","0","1","0","0","1","0","0","1","1","0","1","0","1","3","4","4","3","4","2","4","3","4","4","2","775465718602010626","刘","419","","","","","","","","","","","","","","","","","","","","","","","","","","","","","","","","","","","","","","","","","",""
"455","<p style=""color:white; font-size: 35px;"">精干</p>","i","categorize-html","49","360381","0.0-6.0-0.0-4.0-1.7","4","3","3","3","2","3","3","3","3","3","4","4","3","3","2","4","4","3","4","4","3","4","4","4","4","2","2","3","4","1","0","0","1","0","0","1","0","0","1","1","0","1","0","1","3","4","4","3","4","2","4","3","4","4","2","775465718602010626","刘","419","","","","","","","","","","","","","","","","","","","true","2","2","ability","455","positive","精干","","","","","","","","","","","","","","","","",""
"null","","null","html-keyboard-response","50","360633","0.0-6.0-0.0-4.0-0.8","4","3","3","3","2","3","3","3","3","3","4","4","3","3","2","4","4","3","4","4","3","4","4","4","4","2","2","3","4","1","0","0","1","0","0","1","0","0","1","1","0","1","0","1","3","4","4","3","4","2","4","3","4","4","2","775465718602010626","刘","419","","","","","","","","","","","","","","","","","","","","","","","","","","","","","","","","","","","","","","","","","",""
"438","<p style=""color:white; font-size: 35px;"">天才</p>","i","categorize-html","51","361075","0.0-6.0-0.0-4.0-1.8","4","3","3","3","2","3","3","3","3","3","4","4","3","3","2","4","4","3","4","4","3","4","4","4","4","2","2","3","4","1","0","0","1","0","0","1","0","0","1","1","0","1","0","1","3","4","4","3","4","2","4","3","4","4","2","775465718602010626","刘","419","","","","","","","","","","","","","","","","","","","true","2","2","ability","438","positive","天才","","","","","","","","","","","","","","","","",""
"null","","null","html-keyboard-response","52","361327","0.0-6.0-0.0-4.0-0.9","4","3","3","3","2","3","3","3","3","3","4","4","3","3","2","4","4","3","4","4","3","4","4","4","4","2","2","3","4","1","0","0","1","0","0","1","0","0","1","1","0","1","0","1","3","4","4","3","4","2","4","3","4","4","2","775465718602010626","刘","419","","","","","","","","","","","","","","","","","","","","","","","","","","","","","","","","","","","","","","","","","",""
"463","<p style=""color:white; font-size: 35px;"">废物</p>","e","categorize-html","53","361797","0.0-6.0-0.0-4.0-1.9","4","3","3","3","2","3","3","3","3","3","4","4","3","3","2","4","4","3","4","4","3","4","4","4","4","2","2","3","4","1","0","0","1","0","0","1","0","0","1","1","0","1","0","1","3","4","4","3","4","2","4","3","4","4","2","775465718602010626","刘","419","","","","","","","","","","","","","","","","","","","true","2","2","ability","463","negative","废物","","","","","","","","","","","","","","","","",""
"null","","null","html-keyboard-response","54","362049","0.0-6.0-0.0-4.0-0.10","4","3","3","3","2","3","3","3","3","3","4","4","3","3","2","4","4","3","4","4","3","4","4","4","4","2","2","3","4","1","0","0","1","0","0","1","0","0","1","1","0","1","0","1","3","4","4","3","4","2","4","3","4","4","2","775465718602010626","刘","419","","","","","","","","","","","","","","","","","","","","","","","","","","","","","","","","","","","","","","","","","",""
"495","<p style=""color:white; font-size: 35px;"">能干</p>","i","categorize-html","55","362547","0.0-6.0-0.0-4.0-1.10","4","3","3","3","2","3","3","3","3","3","4","4","3","3","2","4","4","3","4","4","3","4","4","4","4","2","2","3","4","1","0","0","1","0","0","1","0","0","1","1","0","1","0","1","3","4","4","3","4","2","4","3","4","4","2","775465718602010626","刘","419","","","","","","","","","","","","","","","","","","","true","2","2","ability","495","positive","能干","","","","","","","","","","","","","","","","",""
"null","","null","html-keyboard-response","56","362798","0.0-6.0-0.0-4.0-0.11","4","3","3","3","2","3","3","3","3","3","4","4","3","3","2","4","4","3","4","4","3","4","4","4","4","2","2","3","4","1","0","0","1","0","0","1","0","0","1","1","0","1","0","1","3","4","4","3","4","2","4","3","4","4","2","775465718602010626","刘","419","","","","","","","","","","","","","","","","","","","","","","","","","","","","","","","","","","","","","","","","","",""
"794","<p style=""color:white; font-size: 35px;"">无能</p>","e","categorize-html","57","363596","0.0-6.0-0.0-4.0-1.11","4","3","3","3","2","3","3","3","3","3","4","4","3","3","2","4","4","3","4","4","3","4","4","4","4","2","2","3","4","1","0","0","1","0","0","1","0","0","1","1","0","1","0","1","3","4","4","3","4","2","4","3","4","4","2","775465718602010626","刘","419","","","","","","","","","","","","","","","","","","","true","2","2","ability","794","negative","无能","","","","","","","","","","","","","","","","",""
"12781","
    <div class=""tag-bottom""><p>
    —— 任务3：对“他人/消极”词和“自我/积极”词分类 ——<p/>
    <span style=""color:#78DCE8""><b>注意上方，之前的四类词语将混合在一起交替呈现</b></span><p/>
    <span style=""color:#FFD866""><b>请根据上方标签的提示，尽可能正确并且快速地做出按键反应</b></span><p/>
    当按键错误时屏幕中会出现<span style=""color:red""> X </span>，需要按另一个键纠正才能继续<br/><p/>
    请把双手食指分别放在键盘的“E”键和“I”键上<p/>
    按<空格键>开始
    </p></div>"," ","html-keyboard-response","58","376378","0.0-6.0-0.0-5.0","4","3","3","3","2","3","3","3","3","3","4","4","3","3","2","4","4","3","4","4","3","4","4","4","4","2","2","3","4","1","0","0","1","0","0","1","0","0","1","1","0","1","0","1","3","4","4","3","4","2","4","3","4","4","2","775465718602010626","刘","419","","","","","","","","","","","","","","","","","","","","","","","","","","","","","","","","","","","","","","","","","",""
"null","","null","html-keyboard-response","59","376631","0.0-6.0-0.0-6.0-0.0","4","3","3","3","2","3","3","3","3","3","4","4","3","3","2","4","4","3","4","4","3","4","4","4","4","2","2","3","4","1","0","0","1","0","0","1","0","0","1","1","0","1","0","1","3","4","4","3","4","2","4","3","4","4","2","775465718602010626","刘","419","","","","","","","","","","","","","","","","","","","","","","","","","","","","","","","","","","","","","","","","","",""
"621","<p style=""color:rgb(150, 250, 100); font-size: 35px;"">本人</p>","i","categorize-html","60","377260","0.0-6.0-0.0-6.0-1.0","4","3","3","3","2","3","3","3","3","3","4","4","3","3","2","4","4","3","4","4","3","4","4","4","4","2","2","3","4","1","0","0","1","0","0","1","0","0","1","1","0","1","0","1","3","4","4","3","4","2","4","3","4","4","2","775465718602010626","刘","419","","","","","","","","","","","","","","","","","","","true","3","3","ability","621","self","本人","","","","","","","","","","","","","","","","",""
"null","","null","html-keyboard-response","61","377513","0.0-6.0-0.0-6.0-0.1","4","3","3","3","2","3","3","3","3","3","4","4","3","3","2","4","4","3","4","4","3","4","4","4","4","2","2","3","4","1","0","0","1","0","0","1","0","0","1","1","0","1","0","1","3","4","4","3","4","2","4","3","4","4","2","775465718602010626","刘","419","","","","","","","","","","","","","","","","","","","","","","","","","","","","","","","","","","","","","","","","","",""
"666","<p style=""color:white; font-size: 35px;"">拙笨</p>","e","categorize-html","62","378181","0.0-6.0-0.0-6.0-1.1","4","3","3","3","2","3","3","3","3","3","4","4","3","3","2","4","4","3","4","4","3","4","4","4","4","2","2","3","4","1","0","0","1","0","0","1","0","0","1","1","0","1","0","1","3","4","4","3","4","2","4","3","4","4","2","775465718602010626","刘","419","","","","","","","","","","","","","","","","","","","true","3","3","ability","666","negative","拙笨","","","","","","","","","","","","","","","","",""
"null","","null","html-keyboard-response","63","378433","0.0-6.0-0.0-6.0-0.2","4","3","3","3","2","3","3","3","3","3","4","4","3","3","2","4","4","3","4","4","3","4","4","4","4","2","2","3","4","1","0","0","1","0","0","1","0","0","1","1","0","1","0","1","3","4","4","3","4","2","4","3","4","4","2","775465718602010626","刘","419","","","","","","","","","","","","","","","","","","","","","","","","","","","","","","","","","","","","","","","","","",""
"797","<p style=""color:rgb(150, 250, 100); font-size: 35px;"">别人的</p>","e","categorize-html","64","379236","0.0-6.0-0.0-6.0-1.2","4","3","3","3","2","3","3","3","3","3","4","4","3","3","2","4","4","3","4","4","3","4","4","4","4","2","2","3","4","1","0","0","1","0","0","1","0","0","1","1","0","1","0","1","3","4","4","3","4","2","4","3","4","4","2","775465718602010626","刘","419","","","","","","","","","","","","","","","","","","","true","3","3","ability","797","other","别人的","","","","","","","","","","","","","","","","",""
"null","","null","html-keyboard-response","65","379489","0.0-6.0-0.0-6.0-0.3","4","3","3","3","2","3","3","3","3","3","4","4","3","3","2","4","4","3","4","4","3","4","4","4","4","2","2","3","4","1","0","0","1","0","0","1","0","0","1","1","0","1","0","1","3","4","4","3","4","2","4","3","4","4","2","775465718602010626","刘","419","","","","","","","","","","","","","","","","","","","","","","","","","","","","","","","","","","","","","","","","","",""
"1079","<p style=""color:white; font-size: 35px;"">全才</p>","i","categorize-html","66","380573","0.0-6.0-0.0-6.0-1.3","4","3","3","3","2","3","3","3","3","3","4","4","3","3","2","4","4","3","4","4","3","4","4","4","4","2","2","3","4","1","0","0","1","0","0","1","0","0","1","1","0","1","0","1","3","4","4","3","4","2","4","3","4","4","2","775465718602010626","刘","419","","","","","","","","","","","","","","","","","","","true","3","3","ability","1079","positive","全才","","","","","","","","","","","","","","","","",""
"null","","null","html-keyboard-response","67","380826","0.0-6.0-0.0-6.0-0.4","4","3","3","3","2","3","3","3","3","3","4","4","3","3","2","4","4","3","4","4","3","4","4","4","4","2","2","3","4","1","0","0","1","0","0","1","0","0","1","1","0","1","0","1","3","4","4","3","4","2","4","3","4","4","2","775465718602010626","刘","419","","","","","","","","","","","","","","","","","","","","","","","","","","","","","","","","","","","","","","","","","",""
"1005","<p style=""color:rgb(150, 250, 100); font-size: 35px;"">本人的</p>","i","categorize-html","68","381836","0.0-6.0-0.0-6.0-1.4","4","3","3","3","2","3","3","3","3","3","4","4","3","3","2","4","4","3","4","4","3","4","4","4","4","2","2","3","4","1","0","0","1","0","0","1","0","0","1","1","0","1","0","1","3","4","4","3","4","2","4","3","4","4","2","775465718602010626","刘","419","","","","","","","","","","","","","","","","","","","true","3","3","ability","1005","self","本人的","","","","","","","","","","","","","","","","",""
"null","","null","html-keyboard-response","69","382112","0.0-6.0-0.0-6.0-0.5","4","3","3","3","2","3","3","3","3","3","4","4","3","3","2","4","4","3","4","4","3","4","4","4","4","2","2","3","4","1","0","0","1","0","0","1","0","0","1","1","0","1","0","1","3","4","4","3","4","2","4","3","4","4","2","775465718602010626","刘","419","","","","","","","","","","","","","","","","","","","","","","","","","","","","","","","","","","","","","","","","","",""
"672","<p style=""color:white; font-size: 35px;"">蠢笨</p>","e","categorize-html","70","382790","0.0-6.0-0.0-6.0-1.5","4","3","3","3","2","3","3","3","3","3","4","4","3","3","2","4","4","3","4","4","3","4","4","4","4","2","2","3","4","1","0","0","1","0","0","1","0","0","1","1","0","1","0","1","3","4","4","3","4","2","4","3","4","4","2","775465718602010626","刘","419","","","","","","","","","","","","","","","","","","","true","3","3","ability","672","negative","蠢笨","","","","","","","","","","","","","","","","",""
"null","","null","html-keyboard-response","71","383042","0.0-6.0-0.0-6.0-0.6","4","3","3","3","2","3","3","3","3","3","4","4","3","3","2","4","4","3","4","4","3","4","4","4","4","2","2","3","4","1","0","0","1","0","0","1","0","0","1","1","0","1","0","1","3","4","4","3","4","2","4","3","4","4","2","775465718602010626","刘","419","","","","","","","","","","","","","","","","","","","","","","","","","","","","","","","","","","","","","","","","","",""
"692","<p style=""color:rgb(150, 250, 100); font-size: 35px;"">他人</p>","e","categorize-html","72","383740","0.0-6.0-0.0-6.0-1.6","4","3","3","3","2","3","3","3","3","3","4","4","3","3","2","4","4","3","4","4","3","4","4","4","4","2","2","3","4","1","0","0","1","0","0","1","0","0","1","1","0","1","0","1","3","4","4","3","4","2","4","3","4","4","2","775465718602010626","刘","419","","","","","","","","","","","","","","","","","","","true","3","3","ability","692","other","他人","","","","","","","","","","","","","","","","",""
"null","","null","html-keyboard-response","73","383992","0.0-6.0-0.0-6.0-0.7","4","3","3","3","2","3","3","3","3","3","4","4","3","3","2","4","4","3","4","4","3","4","4","4","4","2","2","3","4","1","0","0","1","0","0","1","0","0","1","1","0","1","0","1","3","4","4","3","4","2","4","3","4","4","2","775465718602010626","刘","419","","","","","","","","","","","","","","","","","","","","","","","","","","","","","","","","","","","","","","","","","",""
"950","<p style=""color:white; font-size: 35px;"">天才</p>","i","categorize-html","74","384948","0.0-6.0-0.0-6.0-1.7","4","3","3","3","2","3","3","3","3","3","4","4","3","3","2","4","4","3","4","4","3","4","4","4","4","2","2","3","4","1","0","0","1","0","0","1","0","0","1","1","0","1","0","1","3","4","4","3","4","2","4","3","4","4","2","775465718602010626","刘","419","","","","","","","","","","","","","","","","","","","true","3","3","ability","950","positive","天才","","","","","","","","","","","","","","","","",""
"null","","null","html-keyboard-response","75","385200","0.0-6.0-0.0-6.0-0.8","4","3","3","3","2","3","3","3","3","3","4","4","3","3","2","4","4","3","4","4","3","4","4","4","4","2","2","3","4","1","0","0","1","0","0","1","0","0","1","1","0","1","0","1","3","4","4","3","4","2","4","3","4","4","2","775465718602010626","刘","419","","","","","","","","","","","","","","","","","","","","","","","","","","","","","","","","","","","","","","","","","",""
"585","<p style=""color:rgb(150, 250, 100); font-size: 35px;"">我的</p>","i","categorize-html","76","385791","0.0-6.0-0.0-6.0-1.8","4","3","3","3","2","3","3","3","3","3","4","4","3","3","2","4","4","3","4","4","3","4","4","4","4","2","2","3","4","1","0","0","1","0","0","1","0","0","1","1","0","1","0","1","3","4","4","3","4","2","4","3","4","4","2","775465718602010626","刘","419","","","","","","","","","","","","","","","","","","","true","3","3","ability","585","self","我的","","","","","","","","","","","","","","","","",""
"null","","null","html-keyboard-response","77","386042","0.0-6.0-0.0-6.0-0.9","4","3","3","3","2","3","3","3","3","3","4","4","3","3","2","4","4","3","4","4","3","4","4","4","4","2","2","3","4","1","0","0","1","0","0","1","0","0","1","1","0","1","0","1","3","4","4","3","4","2","4","3","4","4","2","775465718602010626","刘","419","","","","","","","","","","","","","","","","","","","","","","","","","","","","","","","","","","","","","","","","","",""
"645","<p style=""color:white; font-size: 35px;"">废物</p>","e","categorize-html","78","386694","0.0-6.0-0.0-6.0-1.9","4","3","3","3","2","3","3","3","3","3","4","4","3","3","2","4","4","3","4","4","3","4","4","4","4","2","2","3","4","1","0","0","1","0","0","1","0","0","1","1","0","1","0","1","3","4","4","3","4","2","4","3","4","4","2","775465718602010626","刘","419","","","","","","","","","","","","","","","","","","","true","3","3","ability","645","negative","废物","","","","","","","","","","","","","","","","",""
"null","","null","html-keyboard-response","79","386948","0.0-6.0-0.0-6.0-0.10","4","3","3","3","2","3","3","3","3","3","4","4","3","3","2","4","4","3","4","4","3","4","4","4","4","2","2","3","4","1","0","0","1","0","0","1","0","0","1","1","0","1","0","1","3","4","4","3","4","2","4","3","4","4","2","775465718602010626","刘","419","","","","","","","","","","","","","","","","","","","","","","","","","","","","","","","","","","","","","","","","","",""
"555","<p style=""color:rgb(150, 250, 100); font-size: 35px;"">他</p>","e","categorize-html","80","387508","0.0-6.0-0.0-6.0-1.10","4","3","3","3","2","3","3","3","3","3","4","4","3","3","2","4","4","3","4","4","3","4","4","4","4","2","2","3","4","1","0","0","1","0","0","1","0","0","1","1","0","1","0","1","3","4","4","3","4","2","4","3","4","4","2","775465718602010626","刘","419","","","","","","","","","","","","","","","","","","","true","3","3","ability","555","other","他","","","","","","","","","","","","","","","","",""
"null","","null","html-keyboard-response","81","387760","0.0-6.0-0.0-6.0-0.11","4","3","3","3","2","3","3","3","3","3","4","4","3","3","2","4","4","3","4","4","3","4","4","4","4","2","2","3","4","1","0","0","1","0","0","1","0","0","1","1","0","1","0","1","3","4","4","3","4","2","4","3","4","4","2","775465718602010626","刘","419","","","","","","","","","","","","","","","","","","","","","","","","","","","","","","","","","","","","","","","","","",""
"772","<p style=""color:white; font-size: 35px;"">能干</p>","i","categorize-html","82","388538","0.0-6.0-0.0-6.0-1.11","4","3","3","3","2","3","3","3","3","3","4","4","3","3","2","4","4","3","4","4","3","4","4","4","4","2","2","3","4","1","0","0","1","0","0","1","0","0","1","1","0","1","0","1","3","4","4","3","4","2","4","3","4","4","2","775465718602010626","刘","419","","","","","","","","","","","","","","","","","","","true","3","3","ability","772","positive","能干","","","","","","","","","","","","","","","","",""
"null","","null","html-keyboard-response","83","388791","0.0-6.0-0.0-6.0-0.12","4","3","3","3","2","3","3","3","3","3","4","4","3","3","2","4","4","3","4","4","3","4","4","4","4","2","2","3","4","1","0","0","1","0","0","1","0","0","1","1","0","1","0","1","3","4","4","3","4","2","4","3","4","4","2","775465718602010626","刘","419","","","","","","","","","","","","","","","","","","","","","","","","","","","","","","","","","","","","","","","","","",""
"559","<p style=""color:rgb(150, 250, 100); font-size: 35px;"">我</p>","i","categorize-html","84","389356","0.0-6.0-0.0-6.0-1.12","4","3","3","3","2","3","3","3","3","3","4","4","3","3","2","4","4","3","4","4","3","4","4","4","4","2","2","3","4","1","0","0","1","0","0","1","0","0","1","1","0","1","0","1","3","4","4","3","4","2","4","3","4","4","2","775465718602010626","刘","419","","","","","","","","","","","","","","","","","","","true","3","3","ability","559","self","我","","","","","","","","","","","","","","","","",""
"null","","null","html-keyboard-response","85","389609","0.0-6.0-0.0-6.0-0.13","4","3","3","3","2","3","3","3","3","3","4","4","3","3","2","4","4","3","4","4","3","4","4","4","4","2","2","3","4","1","0","0","1","0","0","1","0","0","1","1","0","1","0","1","3","4","4","3","4","2","4","3","4","4","2","775465718602010626","刘","419","","","","","","","","","","","","","","","","","","","","","","","","","","","","","","","","","","","","","","","","","",""
"894","<p style=""color:white; font-size: 35px;"">精干</p>","i","categorize-html","86","390509","0.0-6.0-0.0-6.0-1.13","4","3","3","3","2","3","3","3","3","3","4","4","3","3","2","4","4","3","4","4","3","4","4","4","4","2","2","3","4","1","0","0","1","0","0","1","0","0","1","1","0","1","0","1","3","4","4","3","4","2","4","3","4","4","2","775465718602010626","刘","419","","","","","","","","","","","","","","","","","","","true","3","3","ability","894","positive","精干","","","","","","","","","","","","","","","","",""
"null","","null","html-keyboard-response","87","390762","0.0-6.0-0.0-6.0-0.14","4","3","3","3","2","3","3","3","3","3","4","4","3","3","2","4","4","3","4","4","3","4","4","4","4","2","2","3","4","1","0","0","1","0","0","1","0","0","1","1","0","1","0","1","3","4","4","3","4","2","4","3","4","4","2","775465718602010626","刘","419","","","","","","","","","","","","","","","","","","","","","","","","","","","","","","","","","","","","","","","","","",""
"597","<p style=""color:rgb(150, 250, 100); font-size: 35px;"">他的</p>","e","categorize-html","88","391365","0.0-6.0-0.0-6.0-1.14","4","3","3","3","2","3","3","3","3","3","4","4","3","3","2","4","4","3","4","4","3","4","4","4","4","2","2","3","4","1","0","0","1","0","0","1","0","0","1","1","0","1","0","1","3","4","4","3","4","2","4","3","4","4","2","775465718602010626","刘","419","","","","","","","","","","","","","","","","","","","true","3","3","ability","597","other","他的","","","","","","","","","","","","","","","","",""
"null","","null","html-keyboard-response","89","391628","0.0-6.0-0.0-6.0-0.15","4","3","3","3","2","3","3","3","3","3","4","4","3","3","2","4","4","3","4","4","3","4","4","4","4","2","2","3","4","1","0","0","1","0","0","1","0","0","1","1","0","1","0","1","3","4","4","3","4","2","4","3","4","4","2","775465718602010626","刘","419","","","","","","","","","","","","","","","","","","","","","","","","","","","","","","","","","","","","","","","","","",""
"764","<p style=""color:white; font-size: 35px;"">低能</p>","e","categorize-html","90","392397","0.0-6.0-0.0-6.0-1.15","4","3","3","3","2","3","3","3","3","3","4","4","3","3","2","4","4","3","4","4","3","4","4","4","4","2","2","3","4","1","0","0","1","0","0","1","0","0","1","1","0","1","0","1","3","4","4","3","4","2","4","3","4","4","2","775465718602010626","刘","419","","","","","","","","","","","","","","","","","","","true","3","3","ability","764","negative","低能","","","","","","","","","","","","","","","","",""
"null","","null","html-keyboard-response","91","392650","0.0-6.0-0.0-6.0-0.16","4","3","3","3","2","3","3","3","3","3","4","4","3","3","2","4","4","3","4","4","3","4","4","4","4","2","2","3","4","1","0","0","1","0","0","1","0","0","1","1","0","1","0","1","3","4","4","3","4","2","4","3","4","4","2","775465718602010626","刘","419","","","","","","","","","","","","","","","","","","","","","","","","","","","","","","","","","","","","","","","","","",""
"606","<p style=""color:rgb(150, 250, 100); font-size: 35px;"">自己</p>","i","categorize-html","92","393261","0.0-6.0-0.0-6.0-1.16","4","3","3","3","2","3","3","3","3","3","4","4","3","3","2","4","4","3","4","4","3","4","4","4","4","2","2","3","4","1","0","0","1","0","0","1","0","0","1","1","0","1","0","1","3","4","4","3","4","2","4","3","4","4","2","775465718602010626","刘","419","","","","","","","","","","","","","","","","","","","true","3","3","ability","606","self","自己","","","","","","","","","","","","","","","","",""
"null","","null","html-keyboard-response","93","393514","0.0-6.0-0.0-6.0-0.17","4","3","3","3","2","3","3","3","3","3","4","4","3","3","2","4","4","3","4","4","3","4","4","4","4","2","2","3","4","1","0","0","1","0","0","1","0","0","1","1","0","1","0","1","3","4","4","3","4","2","4","3","4","4","2","775465718602010626","刘","419","","","","","","","","","","","","","","","","","","","","","","","","","","","","","","","","","","","","","","","","","",""
"908","<p style=""color:white; font-size: 35px;"">愚钝</p>","e","categorize-html","94","394428","0.0-6.0-0.0-6.0-1.17","4","3","3","3","2","3","3","3","3","3","4","4","3","3","2","4","4","3","4","4","3","4","4","4","4","2","2","3","4","1","0","0","1","0","0","1","0","0","1","1","0","1","0","1","3","4","4","3","4","2","4","3","4","4","2","775465718602010626","刘","419","","","","","","","","","","","","","","","","","","","true","3","3","ability","908","negative","愚钝","","","","","","","","","","","","","","","","",""
"null","","null","html-keyboard-response","95","394681","0.0-6.0-0.0-6.0-0.18","4","3","3","3","2","3","3","3","3","3","4","4","3","3","2","4","4","3","4","4","3","4","4","4","4","2","2","3","4","1","0","0","1","0","0","1","0","0","1","1","0","1","0","1","3","4","4","3","4","2","4","3","4","4","2","775465718602010626","刘","419","","","","","","","","","","","","","","","","","","","","","","","","","","","","","","","","","","","","","","","","","",""
"783","<p style=""color:rgb(150, 250, 100); font-size: 35px;"">别人</p>","e","categorize-html","96","395469","0.0-6.0-0.0-6.0-1.18","4","3","3","3","2","3","3","3","3","3","4","4","3","3","2","4","4","3","4","4","3","4","4","4","4","2","2","3","4","1","0","0","1","0","0","1","0","0","1","1","0","1","0","1","3","4","4","3","4","2","4","3","4","4","2","775465718602010626","刘","419","","","","","","","","","","","","","","","","","","","true","3","3","ability","783","other","别人","","","","","","","","","","","","","","","","",""
"null","","null","html-keyboard-response","97","395721","0.0-6.0-0.0-6.0-0.19","4","3","3","3","2","3","3","3","3","3","4","4","3","3","2","4","4","3","4","4","3","4","4","4","4","2","2","3","4","1","0","0","1","0","0","1","0","0","1","1","0","1","0","1","3","4","4","3","4","2","4","3","4","4","2","775465718602010626","刘","419","","","","","","","","","","","","","","","","","","","","","","","","","","","","","","","","","","","","","","","","","",""
"678","<p style=""color:white; font-size: 35px;"">全能</p>","i","categorize-html","98","396405","0.0-6.0-0.0-6.0-1.19","4","3","3","3","2","3","3","3","3","3","4","4","3","3","2","4","4","3","4","4","3","4","4","4","4","2","2","3","4","1","0","0","1","0","0","1","0","0","1","1","0","1","0","1","3","4","4","3","4","2","4","3","4","4","2","775465718602010626","刘","419","","","","","","","","","","","","","","","","","","","true","3","3","ability","678","positive","全能","","","","","","","","","","","","","","","","",""
"null","","null","html-keyboard-response","99","396657","0.0-6.0-0.0-6.0-0.20","4","3","3","3","2","3","3","3","3","3","4","4","3","3","2","4","4","3","4","4","3","4","4","4","4","2","2","3","4","1","0","0","1","0","0","1","0","0","1","1","0","1","0","1","3","4","4","3","4","2","4","3","4","4","2","775465718602010626","刘","419","","","","","","","","","","","","","","","","","","","","","","","","","","","","","","","","","","","","","","","","","",""
"718","<p style=""color:rgb(150, 250, 100); font-size: 35px;"">他人的</p>","e","categorize-html","100","397381","0.0-6.0-0.0-6.0-1.20","4","3","3","3","2","3","3","3","3","3","4","4","3","3","2","4","4","3","4","4","3","4","4","4","4","2","2","3","4","1","0","0","1","0","0","1","0","0","1","1","0","1","0","1","3","4","4","3","4","2","4","3","4","4","2","775465718602010626","刘","419","","","","","","","","","","","","","","","","","","","true","3","3","ability","718","other","他人的","","","","","","","","","","","","","","","","",""
"null","","null","html-keyboard-response","101","397634","0.0-6.0-0.0-6.0-0.21","4","3","3","3","2","3","3","3","3","3","4","4","3","3","2","4","4","3","4","4","3","4","4","4","4","2","2","3","4","1","0","0","1","0","0","1","0","0","1","1","0","1","0","1","3","4","4","3","4","2","4","3","4","4","2","775465718602010626","刘","419","","","","","","","","","","","","","","","","","","","","","","","","","","","","","","","","","","","","","","","","","",""
"1381","<p style=""color:white; font-size: 35px;"">无能</p>","e","categorize-html","102","399020","0.0-6.0-0.0-6.0-1.21","4","3","3","3","2","3","3","3","3","3","4","4","3","3","2","4","4","3","4","4","3","4","4","4","4","2","2","3","4","1","0","0","1","0","0","1","0","0","1","1","0","1","0","1","3","4","4","3","4","2","4","3","4","4","2","775465718602010626","刘","419","","","","","","","","","","","","","","","","","","","true","3","3","ability","1381","negative","无能","","","","","","","","","","","","","","","","",""
"null","","null","html-keyboard-response","103","399273","0.0-6.0-0.0-6.0-0.22","4","3","3","3","2","3","3","3","3","3","4","4","3","3","2","4","4","3","4","4","3","4","4","4","4","2","2","3","4","1","0","0","1","0","0","1","0","0","1","1","0","1","0","1","3","4","4","3","4","2","4","3","4","4","2","775465718602010626","刘","419","","","","","","","","","","","","","","","","","","","","","","","","","","","","","","","","","","","","","","","","","",""
"614","<p style=""color:rgb(150, 250, 100); font-size: 35px;"">自己的</p>","i","categorize-html","104","399893","0.0-6.0-0.0-6.0-1.22","4","3","3","3","2","3","3","3","3","3","4","4","3","3","2","4","4","3","4","4","3","4","4","4","4","2","2","3","4","1","0","0","1","0","0","1","0","0","1","1","0","1","0","1","3","4","4","3","4","2","4","3","4","4","2","775465718602010626","刘","419","","","","","","","","","","","","","","","","","","","true","3","3","ability","614","self","自己的","","","","","","","","","","","","","","","","",""
"null","","null","html-keyboard-response","105","400147","0.0-6.0-0.0-6.0-0.23","4","3","3","3","2","3","3","3","3","3","4","4","3","3","2","4","4","3","4","4","3","4","4","4","4","2","2","3","4","1","0","0","1","0","0","1","0","0","1","1","0","1","0","1","3","4","4","3","4","2","4","3","4","4","2","775465718602010626","刘","419","","","","","","","","","","","","","","","","","","","","","","","","","","","","","","","","","","","","","","","","","",""
"1187","<p style=""color:white; font-size: 35px;"">高效</p>","i","categorize-html","106","401339","0.0-6.0-0.0-6.0-1.23","4","3","3","3","2","3","3","3","3","3","4","4","3","3","2","4","4","3","4","4","3","4","4","4","4","2","2","3","4","1","0","0","1","0","0","1","0","0","1","1","0","1","0","1","3","4","4","3","4","2","4","3","4","4","2","775465718602010626","刘","419","","","","","","","","","","","","","","","","","","","true","3","3","ability","1187","positive","高效","","","","","","","","","","","","","","","","",""
"17139","
    <div class=""tag-bottom""><p>
    —— 任务4：对“他人/消极”词和“自我/积极”词分类 ——<p/>
    <span style=""color:#78DCE8""><b>与刚才的任务完全相同，请再次对这四类词语分类</b></span><p/>
    <span style=""color:#FFD866""><b>请根据上方标签的提示，尽可能正确并且快速地做出按键反应</b></span><p/>
    当按键错误时屏幕中会出现<span style=""color:red""> X </span>，需要按另一个键纠正才能继续<br/><p/>
    请把双手食指分别放在键盘的“E”键和“I”键上<p/>
    按<空格键>开始
    </p></div>"," ","html-keyboard-response","107","418479","0.0-6.0-0.0-7.0","4","3","3","3","2","3","3","3","3","3","4","4","3","3","2","4","4","3","4","4","3","4","4","4","4","2","2","3","4","1","0","0","1","0","0","1","0","0","1","1","0","1","0","1","3","4","4","3","4","2","4","3","4","4","2","775465718602010626","刘","419","","","","","","","","","","","","","","","","","","","","","","","","","","","","","","","","","","","","","","","","","",""
"null","","null","html-keyboard-response","108","418731","0.0-6.0-0.0-8.0-0.0","4","3","3","3","2","3","3","3","3","3","4","4","3","3","2","4","4","3","4","4","3","4","4","4","4","2","2","3","4","1","0","0","1","0","0","1","0","0","1","1","0","1","0","1","3","4","4","3","4","2","4","3","4","4","2","775465718602010626","刘","419","","","","","","","","","","","","","","","","","","","","","","","","","","","","","","","","","","","","","","","","","",""
"556","<p style=""color:rgb(150, 250, 100); font-size: 35px;"">自己</p>","i","categorize-html","109","419292","0.0-6.0-0.0-8.0-1.0","4","3","3","3","2","3","3","3","3","3","4","4","3","3","2","4","4","3","4","4","3","4","4","4","4","2","2","3","4","1","0","0","1","0","0","1","0","0","1","1","0","1","0","1","3","4","4","3","4","2","4","3","4","4","2","775465718602010626","刘","419","","","","","","","","","","","","","","","","","","","true","4","4","ability","556","self","自己","","","","","","","","","","","","","","","","",""
"null","","null","html-keyboard-response","110","419545","0.0-6.0-0.0-8.0-0.1","4","3","3","3","2","3","3","3","3","3","4","4","3","3","2","4","4","3","4","4","3","4","4","4","4","2","2","3","4","1","0","0","1","0","0","1","0","0","1","1","0","1","0","1","3","4","4","3","4","2","4","3","4","4","2","775465718602010626","刘","419","","","","","","","","","","","","","","","","","","","","","","","","","","","","","","","","","","","","","","","","","",""
"694","<p style=""color:white; font-size: 35px;"">全能</p>","i","categorize-html","111","420243","0.0-6.0-0.0-8.0-1.1","4","3","3","3","2","3","3","3","3","3","4","4","3","3","2","4","4","3","4","4","3","4","4","4","4","2","2","3","4","1","0","0","1","0","0","1","0","0","1","1","0","1","0","1","3","4","4","3","4","2","4","3","4","4","2","775465718602010626","刘","419","","","","","","","","","","","","","","","","","","","true","4","4","ability","694","positive","全能","","","","","","","","","","","","","","","","",""
"null","","null","html-keyboard-response","112","420495","0.0-6.0-0.0-8.0-0.2","4","3","3","3","2","3","3","3","3","3","4","4","3","3","2","4","4","3","4","4","3","4","4","4","4","2","2","3","4","1","0","0","1","0","0","1","0","0","1","1","0","1","0","1","3","4","4","3","4","2","4","3","4","4","2","775465718602010626","刘","419","","","","","","","","","","","","","","","","","","","","","","","","","","","","","","","","","","","","","","","","","",""
"703","<p style=""color:rgb(150, 250, 100); font-size: 35px;"">别人的</p>","e","categorize-html","113","421204","0.0-6.0-0.0-8.0-1.2","4","3","3","3","2","3","3","3","3","3","4","4","3","3","2","4","4","3","4","4","3","4","4","4","4","2","2","3","4","1","0","0","1","0","0","1","0","0","1","1","0","1","0","1","3","4","4","3","4","2","4","3","4","4","2","775465718602010626","刘","419","","","","","","","","","","","","","","","","","","","true","4","4","ability","703","other","别人的","","","","","","","","","","","","","","","","",""
"null","","null","html-keyboard-response","114","421471","0.0-6.0-0.0-8.0-0.3","4","3","3","3","2","3","3","3","3","3","4","4","3","3","2","4","4","3","4","4","3","4","4","4","4","2","2","3","4","1","0","0","1","0","0","1","0","0","1","1","0","1","0","1","3","4","4","3","4","2","4","3","4","4","2","775465718602010626","刘","419","","","","","","","","","","","","","","","","","","","","","","","","","","","","","","","","","","","","","","","","","",""
"891","<p style=""color:white; font-size: 35px;"">无能</p>","e","categorize-html","115","422367","0.0-6.0-0.0-8.0-1.3","4","3","3","3","2","3","3","3","3","3","4","4","3","3","2","4","4","3","4","4","3","4","4","4","4","2","2","3","4","1","0","0","1","0","0","1","0","0","1","1","0","1","0","1","3","4","4","3","4","2","4","3","4","4","2","775465718602010626","刘","419","","","","","","","","","","","","","","","","","","","true","4","4","ability","891","negative","无能","","","","","","","","","","","","","","","","",""
"null","","null","html-keyboard-response","116","422619","0.0-6.0-0.0-8.0-0.4","4","3","3","3","2","3","3","3","3","3","4","4","3","3","2","4","4","3","4","4","3","4","4","4","4","2","2","3","4","1","0","0","1","0","0","1","0","0","1","1","0","1","0","1","3","4","4","3","4","2","4","3","4","4","2","775465718602010626","刘","419","","","","","","","","","","","","","","","","","","","","","","","","","","","","","","","","","","","","","","","","","",""
"476","<p style=""color:rgb(150, 250, 100); font-size: 35px;"">别人</p>","i","categorize-html","117","423833","0.0-6.0-0.0-8.0-1.4","4","3","3","3","2","3","3","3","3","3","4","4","3","3","2","4","4","3","4","4","3","4","4","4","4","2","2","3","4","1","0","0","1","0","0","1","0","0","1","1","0","1","0","1","3","4","4","3","4","2","4","3","4","4","2","775465718602010626","刘","419","","","","","","","","","","","","","","","","","","","false","4","4","ability","1260.9565217391305","other","别人","","","","","","","","","","","","","","","","",""
"null","","null","html-keyboard-response","118","424086","0.0-6.0-0.0-8.0-0.5","4","3","3","3","2","3","3","3","3","3","4","4","3","3","2","4","4","3","4","4","3","4","4","4","4","2","2","3","4","1","0","0","1","0","0","1","0","0","1","1","0","1","0","1","3","4","4","3","4","2","4","3","4","4","2","775465718602010626","刘","419","","","","","","","","","","","","","","","","","","","","","","","","","","","","","","","","","","","","","","","","","",""
"631","<p style=""color:white; font-size: 35px;"">愚钝</p>","e","categorize-html","119","424722","0.0-6.0-0.0-8.0-1.5","4","3","3","3","2","3","3","3","3","3","4","4","3","3","2","4","4","3","4","4","3","4","4","4","4","2","2","3","4","1","0","0","1","0","0","1","0","0","1","1","0","1","0","1","3","4","4","3","4","2","4","3","4","4","2","775465718602010626","刘","419","","","","","","","","","","","","","","","","","","","true","4","4","ability","631","negative","愚钝","","","","","","","","","","","","","","","","",""
"null","","null","html-keyboard-response","120","424974","0.0-6.0-0.0-8.0-0.6","4","3","3","3","2","3","3","3","3","3","4","4","3","3","2","4","4","3","4","4","3","4","4","4","4","2","2","3","4","1","0","0","1","0","0","1","0","0","1","1","0","1","0","1","3","4","4","3","4","2","4","3","4","4","2","775465718602010626","刘","419","","","","","","","","","","","","","","","","","","","","","","","","","","","","","","","","","","","","","","","","","",""
"554","<p style=""color:rgb(150, 250, 100); font-size: 35px;"">自己</p>","i","categorize-html","121","425533","0.0-6.0-0.0-8.0-1.6","4","3","3","3","2","3","3","3","3","3","4","4","3","3","2","4","4","3","4","4","3","4","4","4","4","2","2","3","4","1","0","0","1","0","0","1","0","0","1","1","0","1","0","1","3","4","4","3","4","2","4","3","4","4","2","775465718602010626","刘","419","","","","","","","","","","","","","","","","","","","true","4","4","ability","554","self","自己","","","","","","","","","","","","","","","","",""
"null","","null","html-keyboard-response","122","425786","0.0-6.0-0.0-8.0-0.7","4","3","3","3","2","3","3","3","3","3","4","4","3","3","2","4","4","3","4","4","3","4","4","4","4","2","2","3","4","1","0","0","1","0","0","1","0","0","1","1","0","1","0","1","3","4","4","3","4","2","4","3","4","4","2","775465718602010626","刘","419","","","","","","","","","","","","","","","","","","","","","","","","","","","","","","","","","","","","","","","","","",""
"509","<p style=""color:white; font-size: 35px;"">高效</p>","i","categorize-html","123","426301","0.0-6.0-0.0-8.0-1.7","4","3","3","3","2","3","3","3","3","3","4","4","3","3","2","4","4","3","4","4","3","4","4","4","4","2","2","3","4","1","0","0","1","0","0","1","0","0","1","1","0","1","0","1","3","4","4","3","4","2","4","3","4","4","2","775465718602010626","刘","419","","","","","","","","","","","","","","","","","","","true","4","4","ability","509","positive","高效","","","","","","","","","","","","","","","","",""
"null","","null","html-keyboard-response","124","426553","0.0-6.0-0.0-8.0-0.8","4","3","3","3","2","3","3","3","3","3","4","4","3","3","2","4","4","3","4","4","3","4","4","4","4","2","2","3","4","1","0","0","1","0","0","1","0","0","1","1","0","1","0","1","3","4","4","3","4","2","4","3","4","4","2","775465718602010626","刘","419","","","","","","","","","","","","","","","","","","","","","","","","","","","","","","","","","","","","","","","","","",""
"589","<p style=""color:rgb(150, 250, 100); font-size: 35px;"">别人的</p>","e","categorize-html","125","427149","0.0-6.0-0.0-8.0-1.8","4","3","3","3","2","3","3","3","3","3","4","4","3","3","2","4","4","3","4","4","3","4","4","4","4","2","2","3","4","1","0","0","1","0","0","1","0","0","1","1","0","1","0","1","3","4","4","3","4","2","4","3","4","4","2","775465718602010626","刘","419","","","","","","","","","","","","","","","","","","","true","4","4","ability","589","other","别人的","","","","","","","","","","","","","","","","",""
"null","","null","html-keyboard-response","126","427403","0.0-6.0-0.0-8.0-0.9","4","3","3","3","2","3","3","3","3","3","4","4","3","3","2","4","4","3","4","4","3","4","4","4","4","2","2","3","4","1","0","0","1","0","0","1","0","0","1","1","0","1","0","1","3","4","4","3","4","2","4","3","4","4","2","775465718602010626","刘","419","","","","","","","","","","","","","","","","","","","","","","","","","","","","","","","","","","","","","","","","","",""
"604","<p style=""color:white; font-size: 35px;"">愚钝</p>","e","categorize-html","127","428013","0.0-6.0-0.0-8.0-1.9","4","3","3","3","2","3","3","3","3","3","4","4","3","3","2","4","4","3","4","4","3","4","4","4","4","2","2","3","4","1","0","0","1","0","0","1","0","0","1","1","0","1","0","1","3","4","4","3","4","2","4","3","4","4","2","775465718602010626","刘","419","","","","","","","","","","","","","","","","","","","true","4","4","ability","604","negative","愚钝","","","","","","","","","","","","","","","","",""
"null","","null","html-keyboard-response","128","428279","0.0-6.0-0.0-8.0-0.10","4","3","3","3","2","3","3","3","3","3","4","4","3","3","2","4","4","3","4","4","3","4","4","4","4","2","2","3","4","1","0","0","1","0","0","1","0","0","1","1","0","1","0","1","3","4","4","3","4","2","4","3","4","4","2","775465718602010626","刘","419","","","","","","","","","","","","","","","","","","","","","","","","","","","","","","","","","","","","","","","","","",""
"496","<p style=""color:rgb(150, 250, 100); font-size: 35px;"">我</p>","i","categorize-html","129","428781","0.0-6.0-0.0-8.0-1.10","4","3","3","3","2","3","3","3","3","3","4","4","3","3","2","4","4","3","4","4","3","4","4","4","4","2","2","3","4","1","0","0","1","0","0","1","0","0","1","1","0","1","0","1","3","4","4","3","4","2","4","3","4","4","2","775465718602010626","刘","419","","","","","","","","","","","","","","","","","","","true","4","4","ability","496","self","我","","","","","","","","","","","","","","","","",""
"null","","null","html-keyboard-response","130","429033","0.0-6.0-0.0-8.0-0.11","4","3","3","3","2","3","3","3","3","3","4","4","3","3","2","4","4","3","4","4","3","4","4","4","4","2","2","3","4","1","0","0","1","0","0","1","0","0","1","1","0","1","0","1","3","4","4","3","4","2","4","3","4","4","2","775465718602010626","刘","419","","","","","","","","","","","","","","","","","","","","","","","","","","","","","","","","","","","","","","","","","",""
"501","<p style=""color:white; font-size: 35px;"">精干</p>","i","categorize-html","131","429541","0.0-6.0-0.0-8.0-1.11","4","3","3","3","2","3","3","3","3","3","4","4","3","3","2","4","4","3","4","4","3","4","4","4","4","2","2","3","4","1","0","0","1","0","0","1","0","0","1","1","0","1","0","1","3","4","4","3","4","2","4","3","4","4","2","775465718602010626","刘","419","","","","","","","","","","","","","","","","","","","true","4","4","ability","501","positive","精干","","","","","","","","","","","","","","","","",""
"null","","null","html-keyboard-response","132","429794","0.0-6.0-0.0-8.0-0.12","4","3","3","3","2","3","3","3","3","3","4","4","3","3","2","4","4","3","4","4","3","4","4","4","4","2","2","3","4","1","0","0","1","0","0","1","0","0","1","1","0","1","0","1","3","4","4","3","4","2","4","3","4","4","2","775465718602010626","刘","419","","","","","","","","","","","","","","","","","","","","","","","","","","","","","","","","","","","","","","","","","",""
"532","<p style=""color:rgb(150, 250, 100); font-size: 35px;"">他的</p>","e","categorize-html","133","430333","0.0-6.0-0.0-8.0-1.12","4","3","3","3","2","3","3","3","3","3","4","4","3","3","2","4","4","3","4","4","3","4","4","4","4","2","2","3","4","1","0","0","1","0","0","1","0","0","1","1","0","1","0","1","3","4","4","3","4","2","4","3","4","4","2","775465718602010626","刘","419","","","","","","","","","","","","","","","","","","","true","4","4","ability","532","other","他的","","","","","","","","","","","","","","","","",""
"null","","null","html-keyboard-response","134","430585","0.0-6.0-0.0-8.0-0.13","4","3","3","3","2","3","3","3","3","3","4","4","3","3","2","4","4","3","4","4","3","4","4","4","4","2","2","3","4","1","0","0","1","0","0","1","0","0","1","1","0","1","0","1","3","4","4","3","4","2","4","3","4","4","2","775465718602010626","刘","419","","","","","","","","","","","","","","","","","","","","","","","","","","","","","","","","","","","","","","","","","",""
"470","<p style=""color:white; font-size: 35px;"">天才</p>","i","categorize-html","135","431059","0.0-6.0-0.0-8.0-1.13","4","3","3","3","2","3","3","3","3","3","4","4","3","3","2","4","4","3","4","4","3","4","4","4","4","2","2","3","4","1","0","0","1","0","0","1","0","0","1","1","0","1","0","1","3","4","4","3","4","2","4","3","4","4","2","775465718602010626","刘","419","","","","","","","","","","","","","","","","","","","true","4","4","ability","470","positive","天才","","","","","","","","","","","","","","","","",""
"null","","null","html-keyboard-response","136","431311","0.0-6.0-0.0-8.0-0.14","4","3","3","3","2","3","3","3","3","3","4","4","3","3","2","4","4","3","4","4","3","4","4","4","4","2","2","3","4","1","0","0","1","0","0","1","0","0","1","1","0","1","0","1","3","4","4","3","4","2","4","3","4","4","2","775465718602010626","刘","419","","","","","","","","","","","","","","","","","","","","","","","","","","","","","","","","","","","","","","","","","",""
"672","<p style=""color:rgb(150, 250, 100); font-size: 35px;"">自己的</p>","i","categorize-html","137","431991","0.0-6.0-0.0-8.0-1.14","4","3","3","3","2","3","3","3","3","3","4","4","3","3","2","4","4","3","4","4","3","4","4","4","4","2","2","3","4","1","0","0","1","0","0","1","0","0","1","1","0","1","0","1","3","4","4","3","4","2","4","3","4","4","2","775465718602010626","刘","419","","","","","","","","","","","","","","","","","","","true","4","4","ability","672","self","自己的","","","","","","","","","","","","","","","","",""
"null","","null","html-keyboard-response","138","432258","0.0-6.0-0.0-8.0-0.15","4","3","3","3","2","3","3","3","3","3","4","4","3","3","2","4","4","3","4","4","3","4","4","4","4","2","2","3","4","1","0","0","1","0","0","1","0","0","1","1","0","1","0","1","3","4","4","3","4","2","4","3","4","4","2","775465718602010626","刘","419","","","","","","","","","","","","","","","","","","","","","","","","","","","","","","","","","","","","","","","","","",""
"526","<p style=""color:white; font-size: 35px;"">拙笨</p>","e","categorize-html","139","432789","0.0-6.0-0.0-8.0-1.15","4","3","3","3","2","3","3","3","3","3","4","4","3","3","2","4","4","3","4","4","3","4","4","4","4","2","2","3","4","1","0","0","1","0","0","1","0","0","1","1","0","1","0","1","3","4","4","3","4","2","4","3","4","4","2","775465718602010626","刘","419","","","","","","","","","","","","","","","","","","","true","4","4","ability","526","negative","拙笨","","","","","","","","","","","","","","","","",""
"null","","null","html-keyboard-response","140","433042","0.0-6.0-0.0-8.0-0.16","4","3","3","3","2","3","3","3","3","3","4","4","3","3","2","4","4","3","4","4","3","4","4","4","4","2","2","3","4","1","0","0","1","0","0","1","0","0","1","1","0","1","0","1","3","4","4","3","4","2","4","3","4","4","2","775465718602010626","刘","419","","","","","","","","","","","","","","","","","","","","","","","","","","","","","","","","","","","","","","","","","",""
"476","<p style=""color:rgb(150, 250, 100); font-size: 35px;"">我的</p>","i","categorize-html","141","433526","0.0-6.0-0.0-8.0-1.16","4","3","3","3","2","3","3","3","3","3","4","4","3","3","2","4","4","3","4","4","3","4","4","4","4","2","2","3","4","1","0","0","1","0","0","1","0","0","1","1","0","1","0","1","3","4","4","3","4","2","4","3","4","4","2","775465718602010626","刘","419","","","","","","","","","","","","","","","","","","","true","4","4","ability","476","self","我的","","","","","","","","","","","","","","","","",""
"null","","null","html-keyboard-response","142","433777","0.0-6.0-0.0-8.0-0.17","4","3","3","3","2","3","3","3","3","3","4","4","3","3","2","4","4","3","4","4","3","4","4","4","4","2","2","3","4","1","0","0","1","0","0","1","0","0","1","1","0","1","0","1","3","4","4","3","4","2","4","3","4","4","2","775465718602010626","刘","419","","","","","","","","","","","","","","","","","","","","","","","","","","","","","","","","","","","","","","","","","",""
"660","<p style=""color:white; font-size: 35px;"">废物</p>","e","categorize-html","143","434443","0.0-6.0-0.0-8.0-1.17","4","3","3","3","2","3","3","3","3","3","4","4","3","3","2","4","4","3","4","4","3","4","4","4","4","2","2","3","4","1","0","0","1","0","0","1","0","0","1","1","0","1","0","1","3","4","4","3","4","2","4","3","4","4","2","775465718602010626","刘","419","","","","","","","","","","","","","","","","","","","true","4","4","ability","660","negative","废物","","","","","","","","","","","","","","","","",""
"null","","null","html-keyboard-response","144","434696","0.0-6.0-0.0-8.0-0.18","4","3","3","3","2","3","3","3","3","3","4","4","3","3","2","4","4","3","4","4","3","4","4","4","4","2","2","3","4","1","0","0","1","0","0","1","0","0","1","1","0","1","0","1","3","4","4","3","4","2","4","3","4","4","2","775465718602010626","刘","419","","","","","","","","","","","","","","","","","","","","","","","","","","","","","","","","","","","","","","","","","",""
"645","<p style=""color:rgb(150, 250, 100); font-size: 35px;"">他</p>","e","categorize-html","145","435346","0.0-6.0-0.0-8.0-1.18","4","3","3","3","2","3","3","3","3","3","4","4","3","3","2","4","4","3","4","4","3","4","4","4","4","2","2","3","4","1","0","0","1","0","0","1","0","0","1","1","0","1","0","1","3","4","4","3","4","2","4","3","4","4","2","775465718602010626","刘","419","","","","","","","","","","","","","","","","","","","true","4","4","ability","645","other","他","","","","","","","","","","","","","","","","",""
"null","","null","html-keyboard-response","146","435597","0.0-6.0-0.0-8.0-0.19","4","3","3","3","2","3","3","3","3","3","4","4","3","3","2","4","4","3","4","4","3","4","4","4","4","2","2","3","4","1","0","0","1","0","0","1","0","0","1","1","0","1","0","1","3","4","4","3","4","2","4","3","4","4","2","775465718602010626","刘","419","","","","","","","","","","","","","","","","","","","","","","","","","","","","","","","","","","","","","","","","","",""
"658","<p style=""color:white; font-size: 35px;"">天才</p>","i","categorize-html","147","436263","0.0-6.0-0.0-8.0-1.19","4","3","3","3","2","3","3","3","3","3","4","4","3","3","2","4","4","3","4","4","3","4","4","4","4","2","2","3","4","1","0","0","1","0","0","1","0","0","1","1","0","1","0","1","3","4","4","3","4","2","4","3","4","4","2","775465718602010626","刘","419","","","","","","","","","","","","","","","","","","","true","4","4","ability","658","positive","天才","","","","","","","","","","","","","","","","",""
"null","","null","html-keyboard-response","148","436516","0.0-6.0-0.0-8.0-0.20","4","3","3","3","2","3","3","3","3","3","4","4","3","3","2","4","4","3","4","4","3","4","4","4","4","2","2","3","4","1","0","0","1","0","0","1","0","0","1","1","0","1","0","1","3","4","4","3","4","2","4","3","4","4","2","775465718602010626","刘","419","","","","","","","","","","","","","","","","","","","","","","","","","","","","","","","","","","","","","","","","","",""
"468","<p style=""color:rgb(150, 250, 100); font-size: 35px;"">我</p>","i","categorize-html","149","436990","0.0-6.0-0.0-8.0-1.20","4","3","3","3","2","3","3","3","3","3","4","4","3","3","2","4","4","3","4","4","3","4","4","4","4","2","2","3","4","1","0","0","1","0","0","1","0","0","1","1","0","1","0","1","3","4","4","3","4","2","4","3","4","4","2","775465718602010626","刘","419","","","","","","","","","","","","","","","","","","","true","4","4","ability","468","self","我","","","","","","","","","","","","","","","","",""
"null","","null","html-keyboard-response","150","437254","0.0-6.0-0.0-8.0-0.21","4","3","3","3","2","3","3","3","3","3","4","4","3","3","2","4","4","3","4","4","3","4","4","4","4","2","2","3","4","1","0","0","1","0","0","1","0","0","1","1","0","1","0","1","3","4","4","3","4","2","4","3","4","4","2","775465718602010626","刘","419","","","","","","","","","","","","","","","","","","","","","","","","","","","","","","","","","","","","","","","","","",""
"531","<p style=""color:white; font-size: 35px;"">能干</p>","i","categorize-html","151","437790","0.0-6.0-0.0-8.0-1.21","4","3","3","3","2","3","3","3","3","3","4","4","3","3","2","4","4","3","4","4","3","4","4","4","4","2","2","3","4","1","0","0","1","0","0","1","0","0","1","1","0","1","0","1","3","4","4","3","4","2","4","3","4","4","2","775465718602010626","刘","419","","","","","","","","","","","","","","","","","","","true","4","4","ability","531","positive","能干","","","","","","","","","","","","","","","","",""
"null","","null","html-keyboard-response","152","438054","0.0-6.0-0.0-8.0-0.22","4","3","3","3","2","3","3","3","3","3","4","4","3","3","2","4","4","3","4","4","3","4","4","4","4","2","2","3","4","1","0","0","1","0","0","1","0","0","1","1","0","1","0","1","3","4","4","3","4","2","4","3","4","4","2","775465718602010626","刘","419","","","","","","","","","","","","","","","","","","","","","","","","","","","","","","","","","","","","","","","","","",""
"523","<p style=""color:rgb(150, 250, 100); font-size: 35px;"">他人</p>","e","categorize-html","153","438581","0.0-6.0-0.0-8.0-1.22","4","3","3","3","2","3","3","3","3","3","4","4","3","3","2","4","4","3","4","4","3","4","4","4","4","2","2","3","4","1","0","0","1","0","0","1","0","0","1","1","0","1","0","1","3","4","4","3","4","2","4","3","4","4","2","775465718602010626","刘","419","","","","","","","","","","","","","","","","","","","true","4","4","ability","523","other","他人","","","","","","","","","","","","","","","","",""
"null","","null","html-keyboard-response","154","438834","0.0-6.0-0.0-8.0-0.23","4","3","3","3","2","3","3","3","3","3","4","4","3","3","2","4","4","3","4","4","3","4","4","4","4","2","2","3","4","1","0","0","1","0","0","1","0","0","1","1","0","1","0","1","3","4","4","3","4","2","4","3","4","4","2","775465718602010626","刘","419","","","","","","","","","","","","","","","","","","","","","","","","","","","","","","","","","","","","","","","","","",""
"551","<p style=""color:white; font-size: 35px;"">废物</p>","i","categorize-html","155","440010","0.0-6.0-0.0-8.0-1.23","4","3","3","3","2","3","3","3","3","3","4","4","3","3","2","4","4","3","4","4","3","4","4","4","4","2","2","3","4","1","0","0","1","0","0","1","0","0","1","1","0","1","0","1","3","4","4","3","4","2","4","3","4","4","2","775465718602010626","刘","419","","","","","","","","","","","","","","","","","","","false","4","4","ability","1260.9565217391305","negative","废物","","","","","","","","","","","","","","","","",""
"null","","null","html-keyboard-response","156","440263","0.0-6.0-0.0-8.0-0.24","4","3","3","3","2","3","3","3","3","3","4","4","3","3","2","4","4","3","4","4","3","4","4","4","4","2","2","3","4","1","0","0","1","0","0","1","0","0","1","1","0","1","0","1","3","4","4","3","4","2","4","3","4","4","2","775465718602010626","刘","419","","","","","","","","","","","","","","","","","","","","","","","","","","","","","","","","","","","","","","","","","",""
"873","<p style=""color:rgb(150, 250, 100); font-size: 35px;"">他的</p>","e","categorize-html","157","441142","0.0-6.0-0.0-8.0-1.24","4","3","3","3","2","3","3","3","3","3","4","4","3","3","2","4","4","3","4","4","3","4","4","4","4","2","2","3","4","1","0","0","1","0","0","1","0","0","1","1","0","1","0","1","3","4","4","3","4","2","4","3","4","4","2","775465718602010626","刘","419","","","","","","","","","","","","","","","","","","","true","4","4","ability","873","other","他的","","","","","","","","","","","","","","","","",""
"null","","null","html-keyboard-response","158","441395","0.0-6.0-0.0-8.0-0.25","4","3","3","3","2","3","3","3","3","3","4","4","3","3","2","4","4","3","4","4","3","4","4","4","4","2","2","3","4","1","0","0","1","0","0","1","0","0","1","1","0","1","0","1","3","4","4","3","4","2","4","3","4","4","2","775465718602010626","刘","419","","","","","","","","","","","","","","","","","","","","","","","","","","","","","","","","","","","","","","","","","",""
"662","<p style=""color:white; font-size: 35px;"">能干</p>","i","categorize-html","159","442062","0.0-6.0-0.0-8.0-1.25","4","3","3","3","2","3","3","3","3","3","4","4","3","3","2","4","4","3","4","4","3","4","4","4","4","2","2","3","4","1","0","0","1","0","0","1","0","0","1","1","0","1","0","1","3","4","4","3","4","2","4","3","4","4","2","775465718602010626","刘","419","","","","","","","","","","","","","","","","","","","true","4","4","ability","662","positive","能干","","","","","","","","","","","","","","","","",""
"null","","null","html-keyboard-response","160","442314","0.0-6.0-0.0-8.0-0.26","4","3","3","3","2","3","3","3","3","3","4","4","3","3","2","4","4","3","4","4","3","4","4","4","4","2","2","3","4","1","0","0","1","0","0","1","0","0","1","1","0","1","0","1","3","4","4","3","4","2","4","3","4","4","2","775465718602010626","刘","419","","","","","","","","","","","","","","","","","","","","","","","","","","","","","","","","","","","","","","","","","",""
"1010","<p style=""color:rgb(150, 250, 100); font-size: 35px;"">本人的</p>","i","categorize-html","161","443329","0.0-6.0-0.0-8.0-1.26","4","3","3","3","2","3","3","3","3","3","4","4","3","3","2","4","4","3","4","4","3","4","4","4","4","2","2","3","4","1","0","0","1","0","0","1","0","0","1","1","0","1","0","1","3","4","4","3","4","2","4","3","4","4","2","775465718602010626","刘","419","","","","","","","","","","","","","","","","","","","true","4","4","ability","1010","self","本人的","","","","","","","","","","","","","","","","",""
"null","","null","html-keyboard-response","162","443582","0.0-6.0-0.0-8.0-0.27","4","3","3","3","2","3","3","3","3","3","4","4","3","3","2","4","4","3","4","4","3","4","4","4","4","2","2","3","4","1","0","0","1","0","0","1","0","0","1","1","0","1","0","1","3","4","4","3","4","2","4","3","4","4","2","775465718602010626","刘","419","","","","","","","","","","","","","","","","","","","","","","","","","","","","","","","","","","","","","","","","","",""
"850","<p style=""color:white; font-size: 35px;"">拙笨</p>","e","categorize-html","163","444438","0.0-6.0-0.0-8.0-1.27","4","3","3","3","2","3","3","3","3","3","4","4","3","3","2","4","4","3","4","4","3","4","4","4","4","2","2","3","4","1","0","0","1","0","0","1","0","0","1","1","0","1","0","1","3","4","4","3","4","2","4","3","4","4","2","775465718602010626","刘","419","","","","","","","","","","","","","","","","","","","true","4","4","ability","850","negative","拙笨","","","","","","","","","","","","","","","","",""
"null","","null","html-keyboard-response","164","444690","0.0-6.0-0.0-8.0-0.28","4","3","3","3","2","3","3","3","3","3","4","4","3","3","2","4","4","3","4","4","3","4","4","4","4","2","2","3","4","1","0","0","1","0","0","1","0","0","1","1","0","1","0","1","3","4","4","3","4","2","4","3","4","4","2","775465718602010626","刘","419","","","","","","","","","","","","","","","","","","","","","","","","","","","","","","","","","","","","","","","","","",""
"948","<p style=""color:rgb(150, 250, 100); font-size: 35px;"">别人</p>","e","categorize-html","165","445642","0.0-6.0-0.0-8.0-1.28","4","3","3","3","2","3","3","3","3","3","4","4","3","3","2","4","4","3","4","4","3","4","4","4","4","2","2","3","4","1","0","0","1","0","0","1","0","0","1","1","0","1","0","1","3","4","4","3","4","2","4","3","4","4","2","775465718602010626","刘","419","","","","","","","","","","","","","","","","","","","true","4","4","ability","948","other","别人","","","","","","","","","","","","","","","","",""
"null","","null","html-keyboard-response","166","445894","0.0-6.0-0.0-8.0-0.29","4","3","3","3","2","3","3","3","3","3","4","4","3","3","2","4","4","3","4","4","3","4","4","4","4","2","2","3","4","1","0","0","1","0","0","1","0","0","1","1","0","1","0","1","3","4","4","3","4","2","4","3","4","4","2","775465718602010626","刘","419","","","","","","","","","","","","","","","","","","","","","","","","","","","","","","","","","","","","","","","","","",""
"540","<p style=""color:white; font-size: 35px;"">低能</p>","e","categorize-html","167","446443","0.0-6.0-0.0-8.0-1.29","4","3","3","3","2","3","3","3","3","3","4","4","3","3","2","4","4","3","4","4","3","4","4","4","4","2","2","3","4","1","0","0","1","0","0","1","0","0","1","1","0","1","0","1","3","4","4","3","4","2","4","3","4","4","2","775465718602010626","刘","419","","","","","","","","","","","","","","","","","","","true","4","4","ability","540","negative","低能","","","","","","","","","","","","","","","","",""
"null","","null","html-keyboard-response","168","446695","0.0-6.0-0.0-8.0-0.30","4","3","3","3","2","3","3","3","3","3","4","4","3","3","2","4","4","3","4","4","3","4","4","4","4","2","2","3","4","1","0","0","1","0","0","1","0","0","1","1","0","1","0","1","3","4","4","3","4","2","4","3","4","4","2","775465718602010626","刘","419","","","","","","","","","","","","","","","","","","","","","","","","","","","","","","","","","","","","","","","","","",""
"537","<p style=""color:rgb(150, 250, 100); font-size: 35px;"">本人的</p>","i","categorize-html","169","447238","0.0-6.0-0.0-8.0-1.30","4","3","3","3","2","3","3","3","3","3","4","4","3","3","2","4","4","3","4","4","3","4","4","4","4","2","2","3","4","1","0","0","1","0","0","1","0","0","1","1","0","1","0","1","3","4","4","3","4","2","4","3","4","4","2","775465718602010626","刘","419","","","","","","","","","","","","","","","","","","","true","4","4","ability","537","self","本人的","","","","","","","","","","","","","","","","",""
"null","","null","html-keyboard-response","170","447491","0.0-6.0-0.0-8.0-0.31","4","3","3","3","2","3","3","3","3","3","4","4","3","3","2","4","4","3","4","4","3","4","4","4","4","2","2","3","4","1","0","0","1","0","0","1","0","0","1","1","0","1","0","1","3","4","4","3","4","2","4","3","4","4","2","775465718602010626","刘","419","","","","","","","","","","","","","","","","","","","","","","","","","","","","","","","","","","","","","","","","","",""
"814","<p style=""color:white; font-size: 35px;"">全能</p>","i","categorize-html","171","448311","0.0-6.0-0.0-8.0-1.31","4","3","3","3","2","3","3","3","3","3","4","4","3","3","2","4","4","3","4","4","3","4","4","4","4","2","2","3","4","1","0","0","1","0","0","1","0","0","1","1","0","1","0","1","3","4","4","3","4","2","4","3","4","4","2","775465718602010626","刘","419","","","","","","","","","","","","","","","","","","","true","4","4","ability","814","positive","全能","","","","","","","","","","","","","","","","",""
"null","","null","html-keyboard-response","172","448564","0.0-6.0-0.0-8.0-0.32","4","3","3","3","2","3","3","3","3","3","4","4","3","3","2","4","4","3","4","4","3","4","4","4","4","2","2","3","4","1","0","0","1","0","0","1","0","0","1","1","0","1","0","1","3","4","4","3","4","2","4","3","4","4","2","775465718602010626","刘","419","","","","","","","","","","","","","","","","","","","","","","","","","","","","","","","","","","","","","","","","","",""
"667","<p style=""color:rgb(150, 250, 100); font-size: 35px;"">他人的</p>","e","categorize-html","173","449236","0.0-6.0-0.0-8.0-1.32","4","3","3","3","2","3","3","3","3","3","4","4","3","3","2","4","4","3","4","4","3","4","4","4","4","2","2","3","4","1","0","0","1","0","0","1","0","0","1","1","0","1","0","1","3","4","4","3","4","2","4","3","4","4","2","775465718602010626","刘","419","","","","","","","","","","","","","","","","","","","true","4","4","ability","667","other","他人的","","","","","","","","","","","","","","","","",""
"null","","null","html-keyboard-response","174","449488","0.0-6.0-0.0-8.0-0.33","4","3","3","3","2","3","3","3","3","3","4","4","3","3","2","4","4","3","4","4","3","4","4","4","4","2","2","3","4","1","0","0","1","0","0","1","0","0","1","1","0","1","0","1","3","4","4","3","4","2","4","3","4","4","2","775465718602010626","刘","419","","","","","","","","","","","","","","","","","","","","","","","","","","","","","","","","","","","","","","","","","",""
"1345","<p style=""color:white; font-size: 35px;"">低能</p>","e","categorize-html","175","450837","0.0-6.0-0.0-8.0-1.33","4","3","3","3","2","3","3","3","3","3","4","4","3","3","2","4","4","3","4","4","3","4","4","4","4","2","2","3","4","1","0","0","1","0","0","1","0","0","1","1","0","1","0","1","3","4","4","3","4","2","4","3","4","4","2","775465718602010626","刘","419","","","","","","","","","","","","","","","","","","","true","4","4","ability","1345","negative","低能","","","","","","","","","","","","","","","","",""
"null","","null","html-keyboard-response","176","451090","0.0-6.0-0.0-8.0-0.34","4","3","3","3","2","3","3","3","3","3","4","4","3","3","2","4","4","3","4","4","3","4","4","4","4","2","2","3","4","1","0","0","1","0","0","1","0","0","1","1","0","1","0","1","3","4","4","3","4","2","4","3","4","4","2","775465718602010626","刘","419","","","","","","","","","","","","","","","","","","","","","","","","","","","","","","","","","","","","","","","","","",""
"670","<p style=""color:rgb(150, 250, 100); font-size: 35px;"">我的</p>","i","categorize-html","177","451765","0.0-6.0-0.0-8.0-1.34","4","3","3","3","2","3","3","3","3","3","4","4","3","3","2","4","4","3","4","4","3","4","4","4","4","2","2","3","4","1","0","0","1","0","0","1","0","0","1","1","0","1","0","1","3","4","4","3","4","2","4","3","4","4","2","775465718602010626","刘","419","","","","","","","","","","","","","","","","","","","true","4","4","ability","670","self","我的","","","","","","","","","","","","","","","","",""
"null","","null","html-keyboard-response","178","452017","0.0-6.0-0.0-8.0-0.35","4","3","3","3","2","3","3","3","3","3","4","4","3","3","2","4","4","3","4","4","3","4","4","4","4","2","2","3","4","1","0","0","1","0","0","1","0","0","1","1","0","1","0","1","3","4","4","3","4","2","4","3","4","4","2","775465718602010626","刘","419","","","","","","","","","","","","","","","","","","","","","","","","","","","","","","","","","","","","","","","","","",""
"871","<p style=""color:white; font-size: 35px;"">全才</p>","i","categorize-html","179","452894","0.0-6.0-0.0-8.0-1.35","4","3","3","3","2","3","3","3","3","3","4","4","3","3","2","4","4","3","4","4","3","4","4","4","4","2","2","3","4","1","0","0","1","0","0","1","0","0","1","1","0","1","0","1","3","4","4","3","4","2","4","3","4","4","2","775465718602010626","刘","419","","","","","","","","","","","","","","","","","","","true","4","4","ability","871","positive","全才","","","","","","","","","","","","","","","","",""
"null","","null","html-keyboard-response","180","453148","0.0-6.0-0.0-8.0-0.36","4","3","3","3","2","3","3","3","3","3","4","4","3","3","2","4","4","3","4","4","3","4","4","4","4","2","2","3","4","1","0","0","1","0","0","1","0","0","1","1","0","1","0","1","3","4","4","3","4","2","4","3","4","4","2","775465718602010626","刘","419","","","","","","","","","","","","","","","","","","","","","","","","","","","","","","","","","","","","","","","","","",""
"587","<p style=""color:rgb(150, 250, 100); font-size: 35px;"">他</p>","e","categorize-html","181","453741","0.0-6.0-0.0-8.0-1.36","4","3","3","3","2","3","3","3","3","3","4","4","3","3","2","4","4","3","4","4","3","4","4","4","4","2","2","3","4","1","0","0","1","0","0","1","0","0","1","1","0","1","0","1","3","4","4","3","4","2","4","3","4","4","2","775465718602010626","刘","419","","","","","","","","","","","","","","","","","","","true","4","4","ability","587","other","他","","","","","","","","","","","","","","","","",""
"null","","null","html-keyboard-response","182","453994","0.0-6.0-0.0-8.0-0.37","4","3","3","3","2","3","3","3","3","3","4","4","3","3","2","4","4","3","4","4","3","4","4","4","4","2","2","3","4","1","0","0","1","0","0","1","0","0","1","1","0","1","0","1","3","4","4","3","4","2","4","3","4","4","2","775465718602010626","刘","419","","","","","","","","","","","","","","","","","","","","","","","","","","","","","","","","","","","","","","","","","",""
"934","<p style=""color:white; font-size: 35px;"">精干</p>","i","categorize-html","183","454937","0.0-6.0-0.0-8.0-1.37","4","3","3","3","2","3","3","3","3","3","4","4","3","3","2","4","4","3","4","4","3","4","4","4","4","2","2","3","4","1","0","0","1","0","0","1","0","0","1","1","0","1","0","1","3","4","4","3","4","2","4","3","4","4","2","775465718602010626","刘","419","","","","","","","","","","","","","","","","","","","true","4","4","ability","934","positive","精干","","","","","","","","","","","","","","","","",""
"null","","null","html-keyboard-response","184","455189","0.0-6.0-0.0-8.0-0.38","4","3","3","3","2","3","3","3","3","3","4","4","3","3","2","4","4","3","4","4","3","4","4","4","4","2","2","3","4","1","0","0","1","0","0","1","0","0","1","1","0","1","0","1","3","4","4","3","4","2","4","3","4","4","2","775465718602010626","刘","419","","","","","","","","","","","","","","","","","","","","","","","","","","","","","","","","","","","","","","","","","",""
"657","<p style=""color:rgb(150, 250, 100); font-size: 35px;"">本人</p>","i","categorize-html","185","455849","0.0-6.0-0.0-8.0-1.38","4","3","3","3","2","3","3","3","3","3","4","4","3","3","2","4","4","3","4","4","3","4","4","4","4","2","2","3","4","1","0","0","1","0","0","1","0","0","1","1","0","1","0","1","3","4","4","3","4","2","4","3","4","4","2","775465718602010626","刘","419","","","","","","","","","","","","","","","","","","","true","4","4","ability","657","self","本人","","","","","","","","","","","","","","","","",""
"null","","null","html-keyboard-response","186","456102","0.0-6.0-0.0-8.0-0.39","4","3","3","3","2","3","3","3","3","3","4","4","3","3","2","4","4","3","4","4","3","4","4","4","4","2","2","3","4","1","0","0","1","0","0","1","0","0","1","1","0","1","0","1","3","4","4","3","4","2","4","3","4","4","2","775465718602010626","刘","419","","","","","","","","","","","","","","","","","","","","","","","","","","","","","","","","","","","","","","","","","",""
"970","<p style=""color:white; font-size: 35px;"">无能</p>","e","categorize-html","187","457078","0.0-6.0-0.0-8.0-1.39","4","3","3","3","2","3","3","3","3","3","4","4","3","3","2","4","4","3","4","4","3","4","4","4","4","2","2","3","4","1","0","0","1","0","0","1","0","0","1","1","0","1","0","1","3","4","4","3","4","2","4","3","4","4","2","775465718602010626","刘","419","","","","","","","","","","","","","","","","","","","true","4","4","ability","970","negative","无能","","","","","","","","","","","","","","","","",""
"null","","null","html-keyboard-response","188","457332","0.0-6.0-0.0-8.0-0.40","4","3","3","3","2","3","3","3","3","3","4","4","3","3","2","4","4","3","4","4","3","4","4","4","4","2","2","3","4","1","0","0","1","0","0","1","0","0","1","1","0","1","0","1","3","4","4","3","4","2","4","3","4","4","2","775465718602010626","刘","419","","","","","","","","","","","","","","","","","","","","","","","","","","","","","","","","","","","","","","","","","",""
"620","<p style=""color:rgb(150, 250, 100); font-size: 35px;"">他人</p>","e","categorize-html","189","457956","0.0-6.0-0.0-8.0-1.40","4","3","3","3","2","3","3","3","3","3","4","4","3","3","2","4","4","3","4","4","3","4","4","4","4","2","2","3","4","1","0","0","1","0","0","1","0","0","1","1","0","1","0","1","3","4","4","3","4","2","4","3","4","4","2","775465718602010626","刘","419","","","","","","","","","","","","","","","","","","","true","4","4","ability","620","other","他人","","","","","","","","","","","","","","","","",""
"null","","null","html-keyboard-response","190","458208","0.0-6.0-0.0-8.0-0.41","4","3","3","3","2","3","3","3","3","3","4","4","3","3","2","4","4","3","4","4","3","4","4","4","4","2","2","3","4","1","0","0","1","0","0","1","0","0","1","1","0","1","0","1","3","4","4","3","4","2","4","3","4","4","2","775465718602010626","刘","419","","","","","","","","","","","","","","","","","","","","","","","","","","","","","","","","","","","","","","","","","",""
"591","<p style=""color:white; font-size: 35px;"">高效</p>","i","categorize-html","191","458806","0.0-6.0-0.0-8.0-1.41","4","3","3","3","2","3","3","3","3","3","4","4","3","3","2","4","4","3","4","4","3","4","4","4","4","2","2","3","4","1","0","0","1","0","0","1","0","0","1","1","0","1","0","1","3","4","4","3","4","2","4","3","4","4","2","775465718602010626","刘","419","","","","","","","","","","","","","","","","","","","true","4","4","ability","591","positive","高效","","","","","","","","","","","","","","","","",""
"null","","null","html-keyboard-response","192","459058","0.0-6.0-0.0-8.0-0.42","4","3","3","3","2","3","3","3","3","3","4","4","3","3","2","4","4","3","4","4","3","4","4","4","4","2","2","3","4","1","0","0","1","0","0","1","0","0","1","1","0","1","0","1","3","4","4","3","4","2","4","3","4","4","2","775465718602010626","刘","419","","","","","","","","","","","","","","","","","","","","","","","","","","","","","","","","","","","","","","","","","",""
