"rt","stimulus","response","trial_type","trial_index","time_elapsed","internal_node_id","ses_1","ses_2","ses_3","ses_4","ses_5","ses_6","ses_7","ses_8","ses_9","ses_10","coreself_1","coreself_2","coreself_3","coreself_4","coreself_5","coreself_6","coreself_7","coreself_8","coreself_9","coreself_10","SGPS_1","SGPS_2","SGPS_3","SGPS_4","SGPS_5","SGPS_6","SGPS_7","SGPS_8","SGPS_9","NPI1","NPI2","NPI3","NPI4","NPI5","NPI6","NPI7","NPI8","NPI9","NPI10","NPI11","NPI12","NPI13","NPI14","NPI15","hsns_1","hsns_2","hsns_3","hsns_4","hsns_5","trap1","hsns_6","hsns_7","hsns_8","hsns_9","hsns_10","subj_idx","friend_name","ParticipantID","value","success","user_agent","responses","item_order","radio_event_ids","radio_event_times","key_event_times","mouse_event_times","straightlining","zigzagging","honeypot","timeout","failed_images","failed_audio","failed_video","view_history","response_type","key_press","avg_frame_time","center_x","center_y","correct_response","correct","identity","Image","word","condition","task_id","screen_id","time_stamp","version_attrib","version_target","IAT","RT","varname","summary","version_attrib2","version_target2","question_order","correct_answer","trap1_item"
"2785","
   <p><div style = ""color: white;font-size:25px;"">您好，欢迎参加本次实验。</div> </p>
   <p><div style = ""color: white;font-size:25px;"">为充分保障您的权利，请确保您已经知晓并同意《参与实验同意书》以及《数据公开知情同意书》。</div></p>
   <p><div style = ""color: white;font-size:25px;"">如果您未见过上述内容，请咨询实验员。</div></p>
   <p><div style = ""color: white;font-size:25px;"">如果您选择继续实验，则表示您已经清楚两份知情同意书的内容并同意。</div></p>
   <p><div style = ""color: pink;font-size:30px;"">请确保您记得day0的实验编号，您将在本次实验输入该编号，若您忘记，请咨询实验员后作答。</div></p>
   <p><div style = ""color: lightblue;font-size:25px;"">请您尽可能认真地作答，我们将依据您在各问卷和按键任务中的作答质量发放报酬。</div></p>
   <p> <div style = ""color: green;font-size:25px;""><按空格键至下页></div> </p>
   "," ","html-keyboard-response","0","2789","0.0-0.0","3","3","4","3","3","3","3","3","4","3","4","4","4","4","3","4","4","3","4","4","4","4","3","2","3","3","3","4","1","1","0","1","1","0","0","0","1","0","1","1","0","1","0","1","4","2","3","2","3","1","2","4","4","3","3","781945721594318849","钟","595","","","","","","","","","","","","","","","","","","","","","","","","","","","","","","","","","","","","","","","","","",""
"","","","call-function","1","2790","0.0-1.0-0.0","3","3","4","3","3","3","3","3","4","3","4","4","4","4","3","4","4","3","4","4","4","4","3","2","3","3","3","4","1","1","0","1","1","0","0","0","1","0","1","1","0","1","0","1","4","2","3","2","3","1","2","4","4","3","3","781945721594318849","钟","595","","","","","","","","","","","","","","","","","","","","","","","","","","","","","","","","","","","","","","","","","",""
"17006","","{""friend_name"":""钟"",""ParticipantID"":""595""}","survey-html-form","2","19798","0.0-1.0-1.0","3","3","4","3","3","3","3","3","4","3","4","4","4","4","3","4","4","3","4","4","4","4","3","2","3","3","3","4","1","1","0","1","1","0","0","0","1","0","1","1","0","1","0","1","4","2","3","2","3","1","2","4","4","3","3","781945721594318849","钟","595","","","","","","","","","","","","","","","","","","","","","","","","","","","","","","","","","","","","","","","","","",""
"","","","fullscreen","3","54750","0.0-2.0","3","3","4","3","3","3","3","3","4","3","4","4","4","4","3","4","4","3","4","4","4","4","3","2","3","3","3","4","1","1","0","1","1","0","0","0","1","0","1","1","0","1","0","1","4","2","3","2","3","1","2","4","4","3","3","781945721594318849","钟","595","","true","{}","","","","","","","","","","","","","","","","","","","","","","","","","","","","","","","","","","","","","","",""
"16633.800000190735","","{""Q01"":""3"",""Q02"":""3"",""Q03"":""4"",""Q04"":""3"",""Q05"":""3"",""Q06"":""3"",""Q07"":""3"",""Q08"":""3"",""Q09"":""4"",""Q10"":""3""}","survey-template","4","71388","0.0-3.0","3","3","4","3","3","3","3","3","4","3","4","4","4","4","3","4","4","3","4","4","4","4","3","2","3","3","3","4","1","1","0","1","1","0","0","0","1","0","1","1","0","1","0","1","4","2","3","2","3","1","2","4","4","3","3","781945721594318849","钟","595","","","","{""Q01"":""3"",""Q02"":""3"",""Q03"":""4"",""Q04"":""3"",""Q05"":""3"",""Q06"":""3"",""Q07"":""3"",""Q08"":""3"",""Q09"":""4"",""Q10"":""3""}","[0,1,2,3,4,5,6,7,8,9]","[""Q01"",""Q02"",""Q03"",""Q04"",""Q05"",""Q06"",""Q07"",""Q08"",""Q09"",""Q10""]","[4320.400000095367,4952.100000143051,6424.700000047684,7800.700000047684,8799.800000190735,9704.600000143051,10319.800000190735,11783.800000190735,15160.400000095367,15975.900000095367]","[]","[3576.800000190735,4320.400000095367,4952.100000143051,6424.700000047684,7800.700000047684,8799.800000190735,9704.600000143051,10319.800000190735,11440.5,11783.800000190735,13720.400000095367,15160.400000095367,15975.900000095367,16632.10000014305]","0.5","0.5555555555555556","0","","","","","","","","","","","","","","","","","","","","","","","","","","","","","",""
"20615.599999904633","","{""Q01"":""4"",""Q02"":""4"",""Q03"":""4"",""Q04"":""4"",""Q05"":""3"",""Q06"":""4"",""Q07"":""4"",""Q08"":""3"",""Q09"":""4"",""Q10"":""4""}","survey-template","5","92011","0.0-4.0","3","3","4","3","3","3","3","3","4","3","4","4","4","4","3","4","4","3","4","4","4","4","3","2","3","3","3","4","1","1","0","1","1","0","0","0","1","0","1","1","0","1","0","1","4","2","3","2","3","1","2","4","4","3","3","781945721594318849","钟","595","","","","{""Q01"":""4"",""Q02"":""4"",""Q03"":""4"",""Q04"":""4"",""Q05"":""3"",""Q06"":""4"",""Q07"":""4"",""Q08"":""3"",""Q09"":""4"",""Q10"":""4""}","[0,1,2,3,4,5,6,7,8,9]","[""Q01"",""Q02"",""Q03"",""Q04"",""Q06"",""Q05"",""Q07"",""Q07"",""Q08"",""Q09"",""Q10""]","[2006.5,3158.4000000953674,8591.400000095367,10806.599999904633,13447.299999952316,14287.099999904633,15630.400000095367,15806.099999904633,17143,18134.200000047684,19671.099999904633]","[]","[2006.5,3158.4000000953674,4967.5,8591.400000095367,10806.599999904633,12551.299999952316,13447.299999952316,14287.099999904633,15630.400000095367,15806.099999904633,17143,18134.200000047684,19671.099999904633,20614.299999952316]","0.4","0.4444444444444444","0","","","","","","","","","","","","","","","","","","","","","","","","","","","","","",""
"","","","preload","6","92562","0.0-5.0","3","3","4","3","3","3","3","3","4","3","4","4","4","4","3","4","4","3","4","4","4","4","3","2","3","3","3","4","1","1","0","1","1","0","0","0","1","0","1","1","0","1","0","1","4","2","3","2","3","1","2","4","4","3","3","781945721594318849","钟","595","","true","","","","","","","","","","","false","[]","[]","[]","","","","","","","","","","","","","","","","","","","","","","","","","",""
"9351","","","instructions","7","101914","0.0-6.0","3","3","4","3","3","3","3","3","4","3","4","4","4","4","3","4","4","3","4","4","4","4","3","2","3","3","3","4","1","1","0","1","1","0","0","0","1","0","1","1","0","1","0","1","4","2","3","2","3","1","2","4","4","3","3","781945721594318849","钟","595","","","","","","","","","","","","","","","","","[{""page_index"":0,""viewing_time"":9351}]","","","","","","","","","","","","","","","","","","","","","","","","",""
"24469","","","instructions","8","126386","0.0-7.0-1.0-0.0","3","3","4","3","3","3","3","3","4","3","4","4","4","4","3","4","4","3","4","4","4","4","3","2","3","3","3","4","1","1","0","1","1","0","0","0","1","0","1","1","0","1","0","1","4","2","3","2","3","1","2","4","4","3","3","781945721594318849","钟","595","","","","","","","","","","","","","","","","","[{""page_index"":0,""viewing_time"":18949},{""page_index"":1,""viewing_time"":3944},{""page_index"":2,""viewing_time"":1576}]","","","","","","","","","","","","","","","","","","","","","","","","",""
"null","","null","psychophysics","9","128621","0.0-7.0-1.0-1.0-0.0-0.0","3","3","4","3","3","3","3","3","4","3","4","4","4","4","3","4","4","3","4","4","4","4","3","2","3","3","3","4","1","1","0","1","1","0","0","0","1","0","1","1","0","1","0","1","4","2","3","2","3","1","2","4","4","3","3","781945721594318849","钟","595","","","","null","","","","","","","","","","","","","","key","null","8.498645914396894","853.3333333333334","529.3333333333334","f","false","nonmatch","img/hexagon.png","椭圆","六边","ALT1_2","prac_ALT1_2","","","","","","","","","","","",""
"null","<span class='add_' style='color:yellow; font-size: 70px;'> 太慢! </span>","null","html-keyboard-response","10","129125","0.0-7.0-1.0-1.0-0.0-1.0","3","3","4","3","3","3","3","3","4","3","4","4","4","4","3","4","4","3","4","4","4","4","3","2","3","3","3","4","1","1","0","1","1","0","0","0","1","0","1","1","0","1","0","1","4","2","3","2","3","1","2","4","4","3","3","781945721594318849","钟","595","","","","","","","","","","","","","","","","","","","","","","","","","","","","","","feedback_test","","","","","","","","","","","",""
"231","","j","psychophysics","11","130360","0.0-7.0-1.0-1.0-0.0-0.1","3","3","4","3","3","3","3","3","4","3","4","4","4","4","3","4","4","3","4","4","4","4","3","2","3","3","3","4","1","1","0","1","1","0","0","0","1","0","1","1","0","1","0","1","4","2","3","2","3","1","2","4","4","3","3","781945721594318849","钟","595","","","","match","","","","","","","","","","","","","","key","j","8.402482517482468","853.3333333333334","529.3333333333334","j","true","match","img/hexagon.png","六边","六边","ALT1_2","prac_ALT1_2","","","","","","","","","","","",""
"null","<span style='color:GreenYellow; font-size: 70px;'>正确! </span>","null","html-keyboard-response","12","130863","0.0-7.0-1.0-1.0-0.0-1.1","3","3","4","3","3","3","3","3","4","3","4","4","4","4","3","4","4","3","4","4","4","4","3","2","3","3","3","4","1","1","0","1","1","0","0","0","1","0","1","1","0","1","0","1","4","2","3","2","3","1","2","4","4","3","3","781945721594318849","钟","595","","","","","","","","","","","","","","","","","","","","","","","","","","","","","","feedback_test","","","","","","","","","","","",""
"39","","f","psychophysics","13","131906","0.0-7.0-1.0-1.0-0.0-0.2","3","3","4","3","3","3","3","3","4","3","4","4","4","4","3","4","4","3","4","4","4","4","3","2","3","3","3","4","1","1","0","1","1","0","0","0","1","0","1","1","0","1","0","1","4","2","3","2","3","1","2","4","4","3","3","781945721594318849","钟","595","","","","nonmatch","","","","","","","","","","","","","","key","f","8.377950819672256","853.3333333333334","529.3333333333334","f","true","nonmatch","img/square.png","六边","方形","ALT1_2","prac_ALT1_2","","","","","","","","","","","",""
"null","<span style='color:yellow; font-size: 70px;'>过快! </span>","null","html-keyboard-response","14","132407","0.0-7.0-1.0-1.0-0.0-1.2","3","3","4","3","3","3","3","3","4","3","4","4","4","4","3","4","4","3","4","4","4","4","3","2","3","3","3","4","1","1","0","1","1","0","0","0","1","0","1","1","0","1","0","1","4","2","3","2","3","1","2","4","4","3","3","781945721594318849","钟","595","","","","","","","","","","","","","","","","","","","","","","","","","","","","","","feedback_test","","","","","","","","","","","",""
"238","","j","psychophysics","15","133648","0.0-7.0-1.0-1.0-0.0-0.3","3","3","4","3","3","3","3","3","4","3","4","4","4","4","3","4","4","3","4","4","4","4","3","2","3","3","3","4","1","1","0","1","1","0","0","0","1","0","1","1","0","1","0","1","4","2","3","2","3","1","2","4","4","3","3","781945721594318849","钟","595","","","","match","","","","","","","","","","","","","","key","j","8.376054794520613","853.3333333333334","529.3333333333334","j","true","match","img/ellipse.png","椭圆","椭圆","ALT1_2","prac_ALT1_2","","","","","","","","","","","",""
"null","<span style='color:GreenYellow; font-size: 70px;'>正确! </span>","null","html-keyboard-response","16","134150","0.0-7.0-1.0-1.0-0.0-1.3","3","3","4","3","3","3","3","3","4","3","4","4","4","4","3","4","4","3","4","4","4","4","3","2","3","3","3","4","1","1","0","1","1","0","0","0","1","0","1","1","0","1","0","1","4","2","3","2","3","1","2","4","4","3","3","781945721594318849","钟","595","","","","","","","","","","","","","","","","","","","","","","","","","","","","","","feedback_test","","","","","","","","","","","",""
"null","","null","psychophysics","17","136363","0.0-7.0-1.0-1.0-0.0-0.4","3","3","4","3","3","3","3","3","4","3","4","4","4","4","3","4","4","3","4","4","4","4","3","2","3","3","3","4","1","1","0","1","1","0","0","0","1","0","1","1","0","1","0","1","4","2","3","2","3","1","2","4","4","3","3","781945721594318849","钟","595","","","","null","","","","","","","","","","","","","","key","null","8.334365019011386","853.3333333333334","529.3333333333334","f","false","nonmatch","img/ellipse.png","方形","椭圆","ALT1_2","prac_ALT1_2","","","","","","","","","","","",""
"null","<span class='add_' style='color:yellow; font-size: 70px;'> 太慢! </span>","null","html-keyboard-response","18","136868","0.0-7.0-1.0-1.0-0.0-1.4","3","3","4","3","3","3","3","3","4","3","4","4","4","4","3","4","4","3","4","4","4","4","3","2","3","3","3","4","1","1","0","1","1","0","0","0","1","0","1","1","0","1","0","1","4","2","3","2","3","1","2","4","4","3","3","781945721594318849","钟","595","","","","","","","","","","","","","","","","","","","","","","","","","","","","","","feedback_test","","","","","","","","","","","",""
"238","","j","psychophysics","19","138108","0.0-7.0-1.0-1.0-0.0-0.5","3","3","4","3","3","3","3","3","4","3","4","4","4","4","3","4","4","3","4","4","4","4","3","2","3","3","3","4","1","1","0","1","1","0","0","0","1","0","1","1","0","1","0","1","4","2","3","2","3","1","2","4","4","3","3","781945721594318849","钟","595","","","","match","","","","","","","","","","","","","","key","j","8.329523809523826","853.3333333333334","529.3333333333334","j","true","match","img/ellipse.png","椭圆","椭圆","ALT1_2","prac_ALT1_2","","","","","","","","","","","",""
"null","<span style='color:GreenYellow; font-size: 70px;'>正确! </span>","null","html-keyboard-response","20","138612","0.0-7.0-1.0-1.0-0.0-1.5","3","3","4","3","3","3","3","3","4","3","4","4","4","4","3","4","4","3","4","4","4","4","3","2","3","3","3","4","1","1","0","1","1","0","0","0","1","0","1","1","0","1","0","1","4","2","3","2","3","1","2","4","4","3","3","781945721594318849","钟","595","","","","","","","","","","","","","","","","","","","","","","","","","","","","","","feedback_test","","","","","","","","","","","",""
"381","","f","psychophysics","21","139997","0.0-7.0-1.0-1.0-0.0-0.6","3","3","4","3","3","3","3","3","4","3","4","4","4","4","3","4","4","3","4","4","4","4","3","2","3","3","3","4","1","1","0","1","1","0","0","0","1","0","1","1","0","1","0","1","4","2","3","2","3","1","2","4","4","3","3","781945721594318849","钟","595","","","","nonmatch","","","","","","","","","","","","","","key","f","8.370214723926388","853.3333333333334","529.3333333333334","f","true","nonmatch","img/square.png","梯形","方形","ALT1_2","prac_ALT1_2","","","","","","","","","","","",""
"null","<span style='color:GreenYellow; font-size: 70px;'>正确! </span>","null","html-keyboard-response","22","140500","0.0-7.0-1.0-1.0-0.0-1.6","3","3","4","3","3","3","3","3","4","3","4","4","4","4","3","4","4","3","4","4","4","4","3","2","3","3","3","4","1","1","0","1","1","0","0","0","1","0","1","1","0","1","0","1","4","2","3","2","3","1","2","4","4","3","3","781945721594318849","钟","595","","","","","","","","","","","","","","","","","","","","","","","","","","","","","","feedback_test","","","","","","","","","","","",""
"245","","j","psychophysics","23","141747","0.0-7.0-1.0-1.0-0.0-0.7","3","3","4","3","3","3","3","3","4","3","4","4","4","4","3","4","4","3","4","4","4","4","3","2","3","3","3","4","1","1","0","1","1","0","0","0","1","0","1","1","0","1","0","1","4","2","3","2","3","1","2","4","4","3","3","781945721594318849","钟","595","","","","match","","","","","","","","","","","","","","key","j","8.372850340136111","853.3333333333334","529.3333333333334","f","false","nonmatch","img/trapezoid.png","椭圆","梯形","ALT1_2","prac_ALT1_2","","","","","","","","","","","",""
"null","<span style='color:red; font-size: 70px;'>错误! </span>","null","html-keyboard-response","24","142251","0.0-7.0-1.0-1.0-0.0-1.7","3","3","4","3","3","3","3","3","4","3","4","4","4","4","3","4","4","3","4","4","4","4","3","2","3","3","3","4","1","1","0","1","1","0","0","0","1","0","1","1","0","1","0","1","4","2","3","2","3","1","2","4","4","3","3","781945721594318849","钟","595","","","","","","","","","","","","","","","","","","","","","","","","","","","","","","feedback_test","","","","","","","","","","","",""
"null","","null","psychophysics","25","144467","0.0-7.0-1.0-1.0-0.0-0.8","3","3","4","3","3","3","3","3","4","3","4","4","4","4","3","4","4","3","4","4","4","4","3","2","3","3","3","4","1","1","0","1","1","0","0","0","1","0","1","1","0","1","0","1","4","2","3","2","3","1","2","4","4","3","3","781945721594318849","钟","595","","","","null","","","","","","","","","","","","","","key","null","8.361480916030585","853.3333333333334","529.3333333333334","j","false","match","img/square.png","方形","方形","ALT1_2","prac_ALT1_2","","","","","","","","","","","",""
"null","<span class='add_' style='color:yellow; font-size: 70px;'> 太慢! </span>","null","html-keyboard-response","26","144969","0.0-7.0-1.0-1.0-0.0-1.8","3","3","4","3","3","3","3","3","4","3","4","4","4","4","3","4","4","3","4","4","4","4","3","2","3","3","3","4","1","1","0","1","1","0","0","0","1","0","1","1","0","1","0","1","4","2","3","2","3","1","2","4","4","3","3","781945721594318849","钟","595","","","","","","","","","","","","","","","","","","","","","","","","","","","","","","feedback_test","","","","","","","","","","","",""
"226","","j","psychophysics","27","146198","0.0-7.0-1.0-1.0-0.0-0.9","3","3","4","3","3","3","3","3","4","3","4","4","4","4","3","4","4","3","4","4","4","4","3","2","3","3","3","4","1","1","0","1","1","0","0","0","1","0","1","1","0","1","0","1","4","2","3","2","3","1","2","4","4","3","3","781945721594318849","钟","595","","","","match","","","","","","","","","","","","","","key","j","8.396673611111206","853.3333333333334","529.3333333333334","f","false","nonmatch","img/hexagon.png","梯形","六边","ALT1_2","prac_ALT1_2","","","","","","","","","","","",""
"null","<span style='color:red; font-size: 70px;'>错误! </span>","null","html-keyboard-response","28","146711","0.0-7.0-1.0-1.0-0.0-1.9","3","3","4","3","3","3","3","3","4","3","4","4","4","4","3","4","4","3","4","4","4","4","3","2","3","3","3","4","1","1","0","1","1","0","0","0","1","0","1","1","0","1","0","1","4","2","3","2","3","1","2","4","4","3","3","781945721594318849","钟","595","","","","","","","","","","","","","","","","","","","","","","","","","","","","","","feedback_test","","","","","","","","","","","",""
"265","","f","psychophysics","29","147980","0.0-7.0-1.0-1.0-0.0-0.10","3","3","4","3","3","3","3","3","4","3","4","4","4","4","3","4","4","3","4","4","4","4","3","2","3","3","3","4","1","1","0","1","1","0","0","0","1","0","1","1","0","1","0","1","4","2","3","2","3","1","2","4","4","3","3","781945721594318849","钟","595","","","","nonmatch","","","","","","","","","","","","","","key","f","8.372416107382683","853.3333333333334","529.3333333333334","j","false","match","img/square.png","方形","方形","ALT1_2","prac_ALT1_2","","","","","","","","","","","",""
"null","<span style='color:red; font-size: 70px;'>错误! </span>","null","html-keyboard-response","30","148482","0.0-7.0-1.0-1.0-0.0-1.10","3","3","4","3","3","3","3","3","4","3","4","4","4","4","3","4","4","3","4","4","4","4","3","2","3","3","3","4","1","1","0","1","1","0","0","0","1","0","1","1","0","1","0","1","4","2","3","2","3","1","2","4","4","3","3","781945721594318849","钟","595","","","","","","","","","","","","","","","","","","","","","","","","","","","","","","feedback_test","","","","","","","","","","","",""
"308","","f","psychophysics","31","149793","0.0-7.0-1.0-1.0-0.0-0.11","3","3","4","3","3","3","3","3","4","3","4","4","4","4","3","4","4","3","4","4","4","4","3","2","3","3","3","4","1","1","0","1","1","0","0","0","1","0","1","1","0","1","0","1","4","2","3","2","3","1","2","4","4","3","3","781945721594318849","钟","595","","","","nonmatch","","","","","","","","","","","","","","key","f","8.371720779220748","853.3333333333334","529.3333333333334","f","true","nonmatch","img/hexagon.png","方形","六边","ALT1_2","prac_ALT1_2","","","","","","","","","","","",""
"null","<span style='color:GreenYellow; font-size: 70px;'>正确! </span>","null","html-keyboard-response","32","150295","0.0-7.0-1.0-1.0-0.0-1.11","3","3","4","3","3","3","3","3","4","3","4","4","4","4","3","4","4","3","4","4","4","4","3","2","3","3","3","4","1","1","0","1","1","0","0","0","1","0","1","1","0","1","0","1","4","2","3","2","3","1","2","4","4","3","3","781945721594318849","钟","595","","","","","","","","","","","","","","","","","","","","","","","","","","","","","","feedback_test","","","","","","","","","","","",""
"218","","j","psychophysics","33","151516","0.0-7.0-1.0-1.0-0.0-0.12","3","3","4","3","3","3","3","3","4","3","4","4","4","4","3","4","4","3","4","4","4","4","3","2","3","3","3","4","1","1","0","1","1","0","0","0","1","0","1","1","0","1","0","1","4","2","3","2","3","1","2","4","4","3","3","781945721594318849","钟","595","","","","match","","","","","","","","","","","","","","key","j","8.373370629370577","853.3333333333334","529.3333333333334","j","true","match","img/trapezoid.png","梯形","梯形","ALT1_2","prac_ALT1_2","","","","","","","","","","","",""
"null","<span style='color:GreenYellow; font-size: 70px;'>正确! </span>","null","html-keyboard-response","34","152021","0.0-7.0-1.0-1.0-0.0-1.12","3","3","4","3","3","3","3","3","4","3","4","4","4","4","3","4","4","3","4","4","4","4","3","2","3","3","3","4","1","1","0","1","1","0","0","0","1","0","1","1","0","1","0","1","4","2","3","2","3","1","2","4","4","3","3","781945721594318849","钟","595","","","","","","","","","","","","","","","","","","","","","","","","","","","","","","feedback_test","","","","","","","","","","","",""
"329","","f","psychophysics","35","153357","0.0-7.0-1.0-1.0-0.0-0.13","3","3","4","3","3","3","3","3","4","3","4","4","4","4","3","4","4","3","4","4","4","4","3","2","3","3","3","4","1","1","0","1","1","0","0","0","1","0","1","1","0","1","0","1","4","2","3","2","3","1","2","4","4","3","3","781945721594318849","钟","595","","","","nonmatch","","","","","","","","","","","","","","key","f","8.40310828025478","853.3333333333334","529.3333333333334","j","false","match","img/square.png","方形","方形","ALT1_2","prac_ALT1_2","","","","","","","","","","","",""
"null","<span style='color:red; font-size: 70px;'>错误! </span>","null","html-keyboard-response","36","153858","0.0-7.0-1.0-1.0-0.0-1.13","3","3","4","3","3","3","3","3","4","3","4","4","4","4","3","4","4","3","4","4","4","4","3","2","3","3","3","4","1","1","0","1","1","0","0","0","1","0","1","1","0","1","0","1","4","2","3","2","3","1","2","4","4","3","3","781945721594318849","钟","595","","","","","","","","","","","","","","","","","","","","","","","","","","","","","","feedback_test","","","","","","","","","","","",""
"225","","j","psychophysics","37","155086","0.0-7.0-1.0-1.0-0.0-0.14","3","3","4","3","3","3","3","3","4","3","4","4","4","4","3","4","4","3","4","4","4","4","3","2","3","3","3","4","1","1","0","1","1","0","0","0","1","0","1","1","0","1","0","1","4","2","3","2","3","1","2","4","4","3","3","781945721594318849","钟","595","","","","match","","","","","","","","","","","","","","key","j","8.400687499999954","853.3333333333334","529.3333333333334","j","true","match","img/hexagon.png","六边","六边","ALT1_2","prac_ALT1_2","","","","","","","","","","","",""
"null","<span style='color:GreenYellow; font-size: 70px;'>正确! </span>","null","html-keyboard-response","38","155589","0.0-7.0-1.0-1.0-0.0-1.14","3","3","4","3","3","3","3","3","4","3","4","4","4","4","3","4","4","3","4","4","4","4","3","2","3","3","3","4","1","1","0","1","1","0","0","0","1","0","1","1","0","1","0","1","4","2","3","2","3","1","2","4","4","3","3","781945721594318849","钟","595","","","","","","","","","","","","","","","","","","","","","","","","","","","","","","feedback_test","","","","","","","","","","","",""
"336","","j","psychophysics","39","156927","0.0-7.0-1.0-1.0-0.0-0.15","3","3","4","3","3","3","3","3","4","3","4","4","4","4","3","4","4","3","4","4","4","4","3","2","3","3","3","4","1","1","0","1","1","0","0","0","1","0","1","1","0","1","0","1","4","2","3","2","3","1","2","4","4","3","3","781945721594318849","钟","595","","","","match","","","","","","","","","","","","","","key","j","8.394675159235716","853.3333333333334","529.3333333333334","f","false","nonmatch","img/ellipse.png","梯形","椭圆","ALT1_2","prac_ALT1_2","","","","","","","","","","","",""
"null","<span style='color:red; font-size: 70px;'>错误! </span>","null","html-keyboard-response","40","157429","0.0-7.0-1.0-1.0-0.0-1.15","3","3","4","3","3","3","3","3","4","3","4","4","4","4","3","4","4","3","4","4","4","4","3","2","3","3","3","4","1","1","0","1","1","0","0","0","1","0","1","1","0","1","0","1","4","2","3","2","3","1","2","4","4","3","3","781945721594318849","钟","595","","","","","","","","","","","","","","","","","","","","","","","","","","","","","","feedback_test","","","","","","","","","","","",""
"206","","j","psychophysics","41","158638","0.0-7.0-1.0-1.0-0.0-0.16","3","3","4","3","3","3","3","3","4","3","4","4","4","4","3","4","4","3","4","4","4","4","3","2","3","3","3","4","1","1","0","1","1","0","0","0","1","0","1","1","0","1","0","1","4","2","3","2","3","1","2","4","4","3","3","781945721594318849","钟","595","","","","match","","","","","","","","","","","","","","key","j","8.400366197182988","853.3333333333334","529.3333333333334","f","false","nonmatch","img/trapezoid.png","方形","梯形","ALT1_2","prac_ALT1_2","","","","","","","","","","","",""
"null","<span style='color:red; font-size: 70px;'>错误! </span>","null","html-keyboard-response","42","159140","0.0-7.0-1.0-1.0-0.0-1.16","3","3","4","3","3","3","3","3","4","3","4","4","4","4","3","4","4","3","4","4","4","4","3","2","3","3","3","4","1","1","0","1","1","0","0","0","1","0","1","1","0","1","0","1","4","2","3","2","3","1","2","4","4","3","3","781945721594318849","钟","595","","","","","","","","","","","","","","","","","","","","","","","","","","","","","","feedback_test","","","","","","","","","","","",""
"62","","f","psychophysics","43","160207","0.0-7.0-1.0-1.0-0.0-0.17","3","3","4","3","3","3","3","3","4","3","4","4","4","4","3","4","4","3","4","4","4","4","3","2","3","3","3","4","1","1","0","1","1","0","0","0","1","0","1","1","0","1","0","1","4","2","3","2","3","1","2","4","4","3","3","781945721594318849","钟","595","","","","nonmatch","","","","","","","","","","","","","","key","f","8.393379032258142","853.3333333333334","529.3333333333334","f","true","nonmatch","img/trapezoid.png","六边","梯形","ALT1_2","prac_ALT1_2","","","","","","","","","","","",""
"null","<span style='color:yellow; font-size: 70px;'>过快! </span>","null","html-keyboard-response","44","160709","0.0-7.0-1.0-1.0-0.0-1.17","3","3","4","3","3","3","3","3","4","3","4","4","4","4","3","4","4","3","4","4","4","4","3","2","3","3","3","4","1","1","0","1","1","0","0","0","1","0","1","1","0","1","0","1","4","2","3","2","3","1","2","4","4","3","3","781945721594318849","钟","595","","","","","","","","","","","","","","","","","","","","","","","","","","","","","","feedback_test","","","","","","","","","","","",""
"293","","j","psychophysics","45","162005","0.0-7.0-1.0-1.0-0.0-0.18","3","3","4","3","3","3","3","3","4","3","4","4","4","4","3","4","4","3","4","4","4","4","3","2","3","3","3","4","1","1","0","1","1","0","0","0","1","0","1","1","0","1","0","1","4","2","3","2","3","1","2","4","4","3","3","781945721594318849","钟","595","","","","match","","","","","","","","","","","","","","key","j","8.37543421052626","853.3333333333334","529.3333333333334","f","false","nonmatch","img/square.png","椭圆","方形","ALT1_2","prac_ALT1_2","","","","","","","","","","","",""
"null","<span style='color:red; font-size: 70px;'>错误! </span>","null","html-keyboard-response","46","162517","0.0-7.0-1.0-1.0-0.0-1.18","3","3","4","3","3","3","3","3","4","3","4","4","4","4","3","4","4","3","4","4","4","4","3","2","3","3","3","4","1","1","0","1","1","0","0","0","1","0","1","1","0","1","0","1","4","2","3","2","3","1","2","4","4","3","3","781945721594318849","钟","595","","","","","","","","","","","","","","","","","","","","","","","","","","","","","","feedback_test","","","","","","","","","","","",""
"227","","f","psychophysics","47","163748","0.0-7.0-1.0-1.0-0.0-0.19","3","3","4","3","3","3","3","3","4","3","4","4","4","4","3","4","4","3","4","4","4","4","3","2","3","3","3","4","1","1","0","1","1","0","0","0","1","0","1","1","0","1","0","1","4","2","3","2","3","1","2","4","4","3","3","781945721594318849","钟","595","","","","nonmatch","","","","","","","","","","","","","","key","f","8.373349315068431","853.3333333333334","529.3333333333334","f","true","nonmatch","img/ellipse.png","六边","椭圆","ALT1_2","prac_ALT1_2","","","","","","","","","","","",""
"null","<span style='color:GreenYellow; font-size: 70px;'>正确! </span>","null","html-keyboard-response","48","164252","0.0-7.0-1.0-1.0-0.0-1.19","3","3","4","3","3","3","3","3","4","3","4","4","4","4","3","4","4","3","4","4","4","4","3","2","3","3","3","4","1","1","0","1","1","0","0","0","1","0","1","1","0","1","0","1","4","2","3","2","3","1","2","4","4","3","3","781945721594318849","钟","595","","","","","","","","","","","","","","","","","","","","","","","","","","","","","","feedback_test","","","","","","","","","","","",""
"169","","j","psychophysics","49","165426","0.0-7.0-1.0-1.0-0.0-0.20","3","3","4","3","3","3","3","3","4","3","4","4","4","4","3","4","4","3","4","4","4","4","3","2","3","3","3","4","1","1","0","1","1","0","0","0","1","0","1","1","0","1","0","1","4","2","3","2","3","1","2","4","4","3","3","781945721594318849","钟","595","","","","match","","","","","","","","","","","","","","key","j","8.403702898550588","853.3333333333334","529.3333333333334","j","true","match","img/trapezoid.png","梯形","梯形","ALT1_2","prac_ALT1_2","","","","","","","","","","","",""
"null","<span style='color:yellow; font-size: 70px;'>过快! </span>","null","html-keyboard-response","50","165927","0.0-7.0-1.0-1.0-0.0-1.20","3","3","4","3","3","3","3","3","4","3","4","4","4","4","3","4","4","3","4","4","4","4","3","2","3","3","3","4","1","1","0","1","1","0","0","0","1","0","1","1","0","1","0","1","4","2","3","2","3","1","2","4","4","3","3","781945721594318849","钟","595","","","","","","","","","","","","","","","","","","","","","","","","","","","","","","feedback_test","","","","","","","","","","","",""
"118","","j","psychophysics","51","167051","0.0-7.0-1.0-1.0-0.0-0.21","3","3","4","3","3","3","3","3","4","3","4","4","4","4","3","4","4","3","4","4","4","4","3","2","3","3","3","4","1","1","0","1","1","0","0","0","1","0","1","1","0","1","0","1","4","2","3","2","3","1","2","4","4","3","3","781945721594318849","钟","595","","","","match","","","","","","","","","","","","","","key","j","8.376270676691687","853.3333333333334","529.3333333333334","j","true","match","img/trapezoid.png","梯形","梯形","ALT1_2","prac_ALT1_2","","","","","","","","","","","",""
"null","<span style='color:yellow; font-size: 70px;'>过快! </span>","null","html-keyboard-response","52","167554","0.0-7.0-1.0-1.0-0.0-1.21","3","3","4","3","3","3","3","3","4","3","4","4","4","4","3","4","4","3","4","4","4","4","3","2","3","3","3","4","1","1","0","1","1","0","0","0","1","0","1","1","0","1","0","1","4","2","3","2","3","1","2","4","4","3","3","781945721594318849","钟","595","","","","","","","","","","","","","","","","","","","","","","","","","","","","","","feedback_test","","","","","","","","","","","",""
"312","","j","psychophysics","53","168871","0.0-7.0-1.0-1.0-0.0-0.22","3","3","4","3","3","3","3","3","4","3","4","4","4","4","3","4","4","3","4","4","4","4","3","2","3","3","3","4","1","1","0","1","1","0","0","0","1","0","1","1","0","1","0","1","4","2","3","2","3","1","2","4","4","3","3","781945721594318849","钟","595","","","","match","","","","","","","","","","","","","","key","j","8.413696774193498","853.3333333333334","529.3333333333334","j","true","match","img/hexagon.png","六边","六边","ALT1_2","prac_ALT1_2","","","","","","","","","","","",""
"null","<span style='color:GreenYellow; font-size: 70px;'>正确! </span>","null","html-keyboard-response","54","169373","0.0-7.0-1.0-1.0-0.0-1.22","3","3","4","3","3","3","3","3","4","3","4","4","4","4","3","4","4","3","4","4","4","4","3","2","3","3","3","4","1","1","0","1","1","0","0","0","1","0","1","1","0","1","0","1","4","2","3","2","3","1","2","4","4","3","3","781945721594318849","钟","595","","","","","","","","","","","","","","","","","","","","","","","","","","","","","","feedback_test","","","","","","","","","","","",""
"228","","f","psychophysics","55","170606","0.0-7.0-1.0-1.0-0.0-0.23","3","3","4","3","3","3","3","3","4","3","4","4","4","4","3","4","4","3","4","4","4","4","3","2","3","3","3","4","1","1","0","1","1","0","0","0","1","0","1","1","0","1","0","1","4","2","3","2","3","1","2","4","4","3","3","781945721594318849","钟","595","","","","nonmatch","","","","","","","","","","","","","","key","f","8.375965517241475","853.3333333333334","529.3333333333334","j","false","match","img/ellipse.png","椭圆","椭圆","ALT1_2","prac_ALT1_2","","","","","","","","","","","",""
"null","<span style='color:red; font-size: 70px;'>错误! </span>","null","html-keyboard-response","56","171107","0.0-7.0-1.0-1.0-0.0-1.23","3","3","4","3","3","3","3","3","4","3","4","4","4","4","3","4","4","3","4","4","4","4","3","2","3","3","3","4","1","1","0","1","1","0","0","0","1","0","1","1","0","1","0","1","4","2","3","2","3","1","2","4","4","3","3","781945721594318849","钟","595","","","","","","","","","","","","","","","","","","","","","","","","","","","","","","feedback_test","","","","","","","","","","","",""
"123","","j","psychophysics","57","172232","0.0-7.0-1.0-1.0-0.0-0.24","3","3","4","3","3","3","3","3","4","3","4","4","4","4","3","4","4","3","4","4","4","4","3","2","3","3","3","4","1","1","0","1","1","0","0","0","1","0","1","1","0","1","0","1","4","2","3","2","3","1","2","4","4","3","3","781945721594318849","钟","595","","","","match","","","","","","","","","","","","","","key","j","8.40664393939391","853.3333333333334","529.3333333333334","j","true","match","img/hexagon.png","六边","六边","ALT1_2","prac_ALT1_2","","","","","","","","","","","",""
"null","<span style='color:yellow; font-size: 70px;'>过快! </span>","null","html-keyboard-response","58","172736","0.0-7.0-1.0-1.0-0.0-1.24","3","3","4","3","3","3","3","3","4","3","4","4","4","4","3","4","4","3","4","4","4","4","3","2","3","3","3","4","1","1","0","1","1","0","0","0","1","0","1","1","0","1","0","1","4","2","3","2","3","1","2","4","4","3","3","781945721594318849","钟","595","","","","","","","","","","","","","","","","","","","","","","","","","","","","","","feedback_test","","","","","","","","","","","",""
"220","","j","psychophysics","59","173961","0.0-7.0-1.0-1.0-0.0-0.25","3","3","4","3","3","3","3","3","4","3","4","4","4","4","3","4","4","3","4","4","4","4","3","2","3","3","3","4","1","1","0","1","1","0","0","0","1","0","1","1","0","1","0","1","4","2","3","2","3","1","2","4","4","3","3","781945721594318849","钟","595","","","","match","","","","","","","","","","","","","","key","j","8.390386206896551","853.3333333333334","529.3333333333334","j","true","match","img/hexagon.png","六边","六边","ALT1_2","prac_ALT1_2","","","","","","","","","","","",""
"null","<span style='color:GreenYellow; font-size: 70px;'>正确! </span>","null","html-keyboard-response","60","174472","0.0-7.0-1.0-1.0-0.0-1.25","3","3","4","3","3","3","3","3","4","3","4","4","4","4","3","4","4","3","4","4","4","4","3","2","3","3","3","4","1","1","0","1","1","0","0","0","1","0","1","1","0","1","0","1","4","2","3","2","3","1","2","4","4","3","3","781945721594318849","钟","595","","","","","","","","","","","","","","","","","","","","","","","","","","","","","","feedback_test","","","","","","","","","","","",""
"160","","j","psychophysics","61","175637","0.0-7.0-1.0-1.0-0.0-0.26","3","3","4","3","3","3","3","3","4","3","4","4","4","4","3","4","4","3","4","4","4","4","3","2","3","3","3","4","1","1","0","1","1","0","0","0","1","0","1","1","0","1","0","1","4","2","3","2","3","1","2","4","4","3","3","781945721594318849","钟","595","","","","match","","","","","","","","","","","","","","key","j","8.37558088235314","853.3333333333334","529.3333333333334","j","true","match","img/square.png","方形","方形","ALT1_2","prac_ALT1_2","","","","","","","","","","","",""
"null","<span style='color:yellow; font-size: 70px;'>过快! </span>","null","html-keyboard-response","62","176138","0.0-7.0-1.0-1.0-0.0-1.26","3","3","4","3","3","3","3","3","4","3","4","4","4","4","3","4","4","3","4","4","4","4","3","2","3","3","3","4","1","1","0","1","1","0","0","0","1","0","1","1","0","1","0","1","4","2","3","2","3","1","2","4","4","3","3","781945721594318849","钟","595","","","","","","","","","","","","","","","","","","","","","","","","","","","","","","feedback_test","","","","","","","","","","","",""
"292","","j","psychophysics","63","177433","0.0-7.0-1.0-1.0-0.0-0.27","3","3","4","3","3","3","3","3","4","3","4","4","4","4","3","4","4","3","4","4","4","4","3","2","3","3","3","4","1","1","0","1","1","0","0","0","1","0","1","1","0","1","0","1","4","2","3","2","3","1","2","4","4","3","3","781945721594318849","钟","595","","","","match","","","","","","","","","","","","","","key","j","8.413802631578859","853.3333333333334","529.3333333333334","j","true","match","img/ellipse.png","椭圆","椭圆","ALT1_2","prac_ALT1_2","","","","","","","","","","","",""
"null","<span style='color:GreenYellow; font-size: 70px;'>正确! </span>","null","html-keyboard-response","64","177938","0.0-7.0-1.0-1.0-0.0-1.27","3","3","4","3","3","3","3","3","4","3","4","4","4","4","3","4","4","3","4","4","4","4","3","2","3","3","3","4","1","1","0","1","1","0","0","0","1","0","1","1","0","1","0","1","4","2","3","2","3","1","2","4","4","3","3","781945721594318849","钟","595","","","","","","","","","","","","","","","","","","","","","","","","","","","","","","feedback_test","","","","","","","","","","","",""
"118","","f","psychophysics","65","179058","0.0-7.0-1.0-1.0-0.0-0.28","3","3","4","3","3","3","3","3","4","3","4","4","4","4","3","4","4","3","4","4","4","4","3","2","3","3","3","4","1","1","0","1","1","0","0","0","1","0","1","1","0","1","0","1","4","2","3","2","3","1","2","4","4","3","3","781945721594318849","钟","595","","","","nonmatch","","","","","","","","","","","","","","key","f","8.376287878787975","853.3333333333334","529.3333333333334","f","true","nonmatch","img/trapezoid.png","椭圆","梯形","ALT1_2","prac_ALT1_2","","","","","","","","","","","",""
"null","<span style='color:yellow; font-size: 70px;'>过快! </span>","null","html-keyboard-response","66","179571","0.0-7.0-1.0-1.0-0.0-1.28","3","3","4","3","3","3","3","3","4","3","4","4","4","4","3","4","4","3","4","4","4","4","3","2","3","3","3","4","1","1","0","1","1","0","0","0","1","0","1","1","0","1","0","1","4","2","3","2","3","1","2","4","4","3","3","781945721594318849","钟","595","","","","","","","","","","","","","","","","","","","","","","","","","","","","","","feedback_test","","","","","","","","","","","",""
"311","","f","psychophysics","67","180886","0.0-7.0-1.0-1.0-0.0-0.29","3","3","4","3","3","3","3","3","4","3","4","4","4","4","3","4","4","3","4","4","4","4","3","2","3","3","3","4","1","1","0","1","1","0","0","0","1","0","1","1","0","1","0","1","4","2","3","2","3","1","2","4","4","3","3","781945721594318849","钟","595","","","","nonmatch","","","","","","","","","","","","","","key","f","8.395722580645158","853.3333333333334","529.3333333333334","f","true","nonmatch","img/hexagon.png","梯形","六边","ALT1_2","prac_ALT1_2","","","","","","","","","","","",""
"null","<span style='color:GreenYellow; font-size: 70px;'>正确! </span>","null","html-keyboard-response","68","181398","0.0-7.0-1.0-1.0-0.0-1.29","3","3","4","3","3","3","3","3","4","3","4","4","4","4","3","4","4","3","4","4","4","4","3","2","3","3","3","4","1","1","0","1","1","0","0","0","1","0","1","1","0","1","0","1","4","2","3","2","3","1","2","4","4","3","3","781945721594318849","钟","595","","","","","","","","","","","","","","","","","","","","","","","","","","","","","","feedback_test","","","","","","","","","","","",""
"136","","j","psychophysics","69","182538","0.0-7.0-1.0-1.0-0.0-0.30","3","3","4","3","3","3","3","3","4","3","4","4","4","4","3","4","4","3","4","4","4","4","3","2","3","3","3","4","1","1","0","1","1","0","0","0","1","0","1","1","0","1","0","1","4","2","3","2","3","1","2","4","4","3","3","781945721594318849","钟","595","","","","match","","","","","","","","","","","","","","key","j","8.398548148148176","853.3333333333334","529.3333333333334","j","true","match","img/ellipse.png","椭圆","椭圆","ALT1_2","prac_ALT1_2","","","","","","","","","","","",""
"null","<span style='color:yellow; font-size: 70px;'>过快! </span>","null","html-keyboard-response","70","183040","0.0-7.0-1.0-1.0-0.0-1.30","3","3","4","3","3","3","3","3","4","3","4","4","4","4","3","4","4","3","4","4","4","4","3","2","3","3","3","4","1","1","0","1","1","0","0","0","1","0","1","1","0","1","0","1","4","2","3","2","3","1","2","4","4","3","3","781945721594318849","钟","595","","","","","","","","","","","","","","","","","","","","","","","","","","","","","","feedback_test","","","","","","","","","","","",""
"312","","j","psychophysics","71","184356","0.0-7.0-1.0-1.0-0.0-0.31","3","3","4","3","3","3","3","3","4","3","4","4","4","4","3","4","4","3","4","4","4","4","3","2","3","3","3","4","1","1","0","1","1","0","0","0","1","0","1","1","0","1","0","1","4","2","3","2","3","1","2","4","4","3","3","781945721594318849","钟","595","","","","match","","","","","","","","","","","","","","key","j","8.371826923076952","853.3333333333334","529.3333333333334","j","true","match","img/ellipse.png","椭圆","椭圆","ALT1_2","prac_ALT1_2","","","","","","","","","","","",""
"null","<span style='color:GreenYellow; font-size: 70px;'>正确! </span>","null","html-keyboard-response","72","184858","0.0-7.0-1.0-1.0-0.0-1.31","3","3","4","3","3","3","3","3","4","3","4","4","4","4","3","4","4","3","4","4","4","4","3","2","3","3","3","4","1","1","0","1","1","0","0","0","1","0","1","1","0","1","0","1","4","2","3","2","3","1","2","4","4","3","3","781945721594318849","钟","595","","","","","","","","","","","","","","","","","","","","","","","","","","","","","","feedback_test","","","","","","","","","","","",""
"473","","f","psychophysics","73","186355","0.0-7.0-1.0-1.0-0.0-0.32","3","3","4","3","3","3","3","3","4","3","4","4","4","4","3","4","4","3","4","4","4","4","3","2","3","3","3","4","1","1","0","1","1","0","0","0","1","0","1","1","0","1","0","1","4","2","3","2","3","1","2","4","4","3","3","781945721594318849","钟","595","","","","nonmatch","","","","","","","","","","","","","","key","f","8.374666666666725","853.3333333333334","529.3333333333334","f","true","nonmatch","img/hexagon.png","方形","六边","ALT1_2","prac_ALT1_2","","","","","","","","","","","",""
"null","<span style='color:GreenYellow; font-size: 70px;'>正确! </span>","null","html-keyboard-response","74","186856","0.0-7.0-1.0-1.0-0.0-1.32","3","3","4","3","3","3","3","3","4","3","4","4","4","4","3","4","4","3","4","4","4","4","3","2","3","3","3","4","1","1","0","1","1","0","0","0","1","0","1","1","0","1","0","1","4","2","3","2","3","1","2","4","4","3","3","781945721594318849","钟","595","","","","","","","","","","","","","","","","","","","","","","","","","","","","","","feedback_test","","","","","","","","","","","",""
"311","","j","psychophysics","75","188170","0.0-7.0-1.0-1.0-0.0-0.33","3","3","4","3","3","3","3","3","4","3","4","4","4","4","3","4","4","3","4","4","4","4","3","2","3","3","3","4","1","1","0","1","1","0","0","0","1","0","1","1","0","1","0","1","4","2","3","2","3","1","2","4","4","3","3","781945721594318849","钟","595","","","","match","","","","","","","","","","","","","","key","j","8.358532467532514","853.3333333333334","529.3333333333334","f","false","nonmatch","img/trapezoid.png","方形","梯形","ALT1_2","prac_ALT1_2","","","","","","","","","","","",""
"null","<span style='color:red; font-size: 70px;'>错误! </span>","null","html-keyboard-response","76","188673","0.0-7.0-1.0-1.0-0.0-1.33","3","3","4","3","3","3","3","3","4","3","4","4","4","4","3","4","4","3","4","4","4","4","3","2","3","3","3","4","1","1","0","1","1","0","0","0","1","0","1","1","0","1","0","1","4","2","3","2","3","1","2","4","4","3","3","781945721594318849","钟","595","","","","","","","","","","","","","","","","","","","","","","","","","","","","","","feedback_test","","","","","","","","","","","",""
"94","","j","psychophysics","77","189769","0.0-7.0-1.0-1.0-0.0-0.34","3","3","4","3","3","3","3","3","4","3","4","4","4","4","3","4","4","3","4","4","4","4","3","2","3","3","3","4","1","1","0","1","1","0","0","0","1","0","1","1","0","1","0","1","4","2","3","2","3","1","2","4","4","3","3","781945721594318849","钟","595","","","","match","","","","","","","","","","","","","","key","j","8.376600000000103","853.3333333333334","529.3333333333334","j","true","match","img/square.png","方形","方形","ALT1_2","prac_ALT1_2","","","","","","","","","","","",""
"null","<span style='color:yellow; font-size: 70px;'>过快! </span>","null","html-keyboard-response","78","190272","0.0-7.0-1.0-1.0-0.0-1.34","3","3","4","3","3","3","3","3","4","3","4","4","4","4","3","4","4","3","4","4","4","4","3","2","3","3","3","4","1","1","0","1","1","0","0","0","1","0","1","1","0","1","0","1","4","2","3","2","3","1","2","4","4","3","3","781945721594318849","钟","595","","","","","","","","","","","","","","","","","","","","","","","","","","","","","","feedback_test","","","","","","","","","","","",""
"408","","j","psychophysics","79","191684","0.0-7.0-1.0-1.0-0.0-0.35","3","3","4","3","3","3","3","3","4","3","4","4","4","4","3","4","4","3","4","4","4","4","3","2","3","3","3","4","1","1","0","1","1","0","0","0","1","0","1","1","0","1","0","1","4","2","3","2","3","1","2","4","4","3","3","781945721594318849","钟","595","","","","match","","","","","","","","","","","","","","key","j","8.37012650602422","853.3333333333334","529.3333333333334","j","true","match","img/trapezoid.png","梯形","梯形","ALT1_2","prac_ALT1_2","","","","","","","","","","","",""
"null","<span style='color:GreenYellow; font-size: 70px;'>正确! </span>","null","html-keyboard-response","80","192193","0.0-7.0-1.0-1.0-0.0-1.35","3","3","4","3","3","3","3","3","4","3","4","4","4","4","3","4","4","3","4","4","4","4","3","2","3","3","3","4","1","1","0","1","1","0","0","0","1","0","1","1","0","1","0","1","4","2","3","2","3","1","2","4","4","3","3","781945721594318849","钟","595","","","","","","","","","","","","","","","","","","","","","","","","","","","","","","feedback_test","","","","","","","","","","","",""
"555","","j","psychophysics","81","193751","0.0-7.0-1.0-1.0-0.0-0.36","3","3","4","3","3","3","3","3","4","3","4","4","4","4","3","4","4","3","4","4","4","4","3","2","3","3","3","4","1","1","0","1","1","0","0","0","1","0","1","1","0","1","0","1","4","2","3","2","3","1","2","4","4","3","3","781945721594318849","钟","595","","","","match","","","","","","","","","","","","","","key","j","8.390415300546428","853.3333333333334","529.3333333333334","j","true","match","img/trapezoid.png","梯形","梯形","ALT1_2","prac_ALT1_2","","","","","","","","","","","",""
"null","<span style='color:GreenYellow; font-size: 70px;'>正确! </span>","null","html-keyboard-response","82","194255","0.0-7.0-1.0-1.0-0.0-1.36","3","3","4","3","3","3","3","3","4","3","4","4","4","4","3","4","4","3","4","4","4","4","3","2","3","3","3","4","1","1","0","1","1","0","0","0","1","0","1","1","0","1","0","1","4","2","3","2","3","1","2","4","4","3","3","781945721594318849","钟","595","","","","","","","","","","","","","","","","","","","","","","","","","","","","","","feedback_test","","","","","","","","","","","",""
"353","","f","psychophysics","83","195612","0.0-7.0-1.0-1.0-0.0-0.37","3","3","4","3","3","3","3","3","4","3","4","4","4","4","3","4","4","3","4","4","4","4","3","2","3","3","3","4","1","1","0","1","1","0","0","0","1","0","1","1","0","1","0","1","4","2","3","2","3","1","2","4","4","3","3","781945721594318849","钟","595","","","","nonmatch","","","","","","","","","","","","","","key","f","8.370285714285771","853.3333333333334","529.3333333333334","f","true","nonmatch","img/ellipse.png","方形","椭圆","ALT1_2","prac_ALT1_2","","","","","","","","","","","",""
"null","<span style='color:GreenYellow; font-size: 70px;'>正确! </span>","null","html-keyboard-response","84","196118","0.0-7.0-1.0-1.0-0.0-1.37","3","3","4","3","3","3","3","3","4","3","4","4","4","4","3","4","4","3","4","4","4","4","3","2","3","3","3","4","1","1","0","1","1","0","0","0","1","0","1","1","0","1","0","1","4","2","3","2","3","1","2","4","4","3","3","781945721594318849","钟","595","","","","","","","","","","","","","","","","","","","","","","","","","","","","","","feedback_test","","","","","","","","","","","",""
"237","","j","psychophysics","85","197357","0.0-7.0-1.0-1.0-0.0-0.38","3","3","4","3","3","3","3","3","4","3","4","4","4","4","3","4","4","3","4","4","4","4","3","2","3","3","3","4","1","1","0","1","1","0","0","0","1","0","1","1","0","1","0","1","4","2","3","2","3","1","2","4","4","3","3","781945721594318849","钟","595","","","","match","","","","","","","","","","","","","","key","j","8.374409722222278","853.3333333333334","529.3333333333334","f","false","nonmatch","img/square.png","六边","方形","ALT1_2","prac_ALT1_2","","","","","","","","","","","",""
"null","<span style='color:red; font-size: 70px;'>错误! </span>","null","html-keyboard-response","86","197859","0.0-7.0-1.0-1.0-0.0-1.38","3","3","4","3","3","3","3","3","4","3","4","4","4","4","3","4","4","3","4","4","4","4","3","2","3","3","3","4","1","1","0","1","1","0","0","0","1","0","1","1","0","1","0","1","4","2","3","2","3","1","2","4","4","3","3","781945721594318849","钟","595","","","","","","","","","","","","","","","","","","","","","","","","","","","","","","feedback_test","","","","","","","","","","","",""
"196","","f","psychophysics","87","199057","0.0-7.0-1.0-1.0-0.0-0.39","3","3","4","3","3","3","3","3","4","3","4","4","4","4","3","4","4","3","4","4","4","4","3","2","3","3","3","4","1","1","0","1","1","0","0","0","1","0","1","1","0","1","0","1","4","2","3","2","3","1","2","4","4","3","3","781945721594318849","钟","595","","","","nonmatch","","","","","","","","","","","","","","key","f","8.367468085106552","853.3333333333334","529.3333333333334","f","true","nonmatch","img/hexagon.png","椭圆","六边","ALT1_2","prac_ALT1_2","","","","","","","","","","","",""
"null","<span style='color:yellow; font-size: 70px;'>过快! </span>","null","html-keyboard-response","88","199563","0.0-7.0-1.0-1.0-0.0-1.39","3","3","4","3","3","3","3","3","4","3","4","4","4","4","3","4","4","3","4","4","4","4","3","2","3","3","3","4","1","1","0","1","1","0","0","0","1","0","1","1","0","1","0","1","4","2","3","2","3","1","2","4","4","3","3","781945721594318849","钟","595","","","","","","","","","","","","","","","","","","","","","","","","","","","","","","feedback_test","","","","","","","","","","","",""
"481","","j","psychophysics","89","201048","0.0-7.0-1.0-1.0-0.0-0.40","3","3","4","3","3","3","3","3","4","3","4","4","4","4","3","4","4","3","4","4","4","4","3","2","3","3","3","4","1","1","0","1","1","0","0","0","1","0","1","1","0","1","0","1","4","2","3","2","3","1","2","4","4","3","3","781945721594318849","钟","595","","","","match","","","","","","","","","","","","","","key","j","8.370676136363643","853.3333333333334","529.3333333333334","f","false","nonmatch","img/square.png","梯形","方形","ALT1_2","prac_ALT1_2","","","","","","","","","","","",""
"null","<span style='color:red; font-size: 70px;'>错误! </span>","null","html-keyboard-response","90","201554","0.0-7.0-1.0-1.0-0.0-1.40","3","3","4","3","3","3","3","3","4","3","4","4","4","4","3","4","4","3","4","4","4","4","3","2","3","3","3","4","1","1","0","1","1","0","0","0","1","0","1","1","0","1","0","1","4","2","3","2","3","1","2","4","4","3","3","781945721594318849","钟","595","","","","","","","","","","","","","","","","","","","","","","","","","","","","","","feedback_test","","","","","","","","","","","",""
"374","","j","psychophysics","91","202930","0.0-7.0-1.0-1.0-0.0-0.41","3","3","4","3","3","3","3","3","4","3","4","4","4","4","3","4","4","3","4","4","4","4","3","2","3","3","3","4","1","1","0","1","1","0","0","0","1","0","1","1","0","1","0","1","4","2","3","2","3","1","2","4","4","3","3","781945721594318849","钟","595","","","","match","","","","","","","","","","","","","","key","j","8.371012345679143","853.3333333333334","529.3333333333334","f","false","nonmatch","img/ellipse.png","梯形","椭圆","ALT1_2","prac_ALT1_2","","","","","","","","","","","",""
"null","<span style='color:red; font-size: 70px;'>错误! </span>","null","html-keyboard-response","92","203433","0.0-7.0-1.0-1.0-0.0-1.41","3","3","4","3","3","3","3","3","4","3","4","4","4","4","3","4","4","3","4","4","4","4","3","2","3","3","3","4","1","1","0","1","1","0","0","0","1","0","1","1","0","1","0","1","4","2","3","2","3","1","2","4","4","3","3","781945721594318849","钟","595","","","","","","","","","","","","","","","","","","","","","","","","","","","","","","feedback_test","","","","","","","","","","","",""
"321","","f","psychophysics","93","204755","0.0-7.0-1.0-1.0-0.0-0.42","3","3","4","3","3","3","3","3","4","3","4","4","4","4","3","4","4","3","4","4","4","4","3","2","3","3","3","4","1","1","0","1","1","0","0","0","1","0","1","1","0","1","0","1","4","2","3","2","3","1","2","4","4","3","3","781945721594318849","钟","595","","","","nonmatch","","","","","","","","","","","","","","key","f","8.371108280254749","853.3333333333334","529.3333333333334","j","false","match","img/hexagon.png","六边","六边","ALT1_2","prac_ALT1_2","","","","","","","","","","","",""
"null","<span style='color:red; font-size: 70px;'>错误! </span>","null","html-keyboard-response","94","205260","0.0-7.0-1.0-1.0-0.0-1.42","3","3","4","3","3","3","3","3","4","3","4","4","4","4","3","4","4","3","4","4","4","4","3","2","3","3","3","4","1","1","0","1","1","0","0","0","1","0","1","1","0","1","0","1","4","2","3","2","3","1","2","4","4","3","3","781945721594318849","钟","595","","","","","","","","","","","","","","","","","","","","","","","","","","","","","","feedback_test","","","","","","","","","","","",""
"379","","j","psychophysics","95","206640","0.0-7.0-1.0-1.0-0.0-0.43","3","3","4","3","3","3","3","3","4","3","4","4","4","4","3","4","4","3","4","4","4","4","3","2","3","3","3","4","1","1","0","1","1","0","0","0","1","0","1","1","0","1","0","1","4","2","3","2","3","1","2","4","4","3","3","781945721594318849","钟","595","","","","match","","","","","","","","","","","","","","key","j","8.380638036809781","853.3333333333334","529.3333333333334","f","false","nonmatch","img/trapezoid.png","六边","梯形","ALT1_2","prac_ALT1_2","","","","","","","","","","","",""
"null","<span style='color:red; font-size: 70px;'>错误! </span>","null","html-keyboard-response","96","207143","0.0-7.0-1.0-1.0-0.0-1.43","3","3","4","3","3","3","3","3","4","3","4","4","4","4","3","4","4","3","4","4","4","4","3","2","3","3","3","4","1","1","0","1","1","0","0","0","1","0","1","1","0","1","0","1","4","2","3","2","3","1","2","4","4","3","3","781945721594318849","钟","595","","","","","","","","","","","","","","","","","","","","","","","","","","","","","","feedback_test","","","","","","","","","","","",""
"263","","j","psychophysics","97","208408","0.0-7.0-1.0-1.0-0.0-0.44","3","3","4","3","3","3","3","3","4","3","4","4","4","4","3","4","4","3","4","4","4","4","3","2","3","3","3","4","1","1","0","1","1","0","0","0","1","0","1","1","0","1","0","1","4","2","3","2","3","1","2","4","4","3","3","781945721594318849","钟","595","","","","match","","","","","","","","","","","","","","key","j","8.351317567567536","853.3333333333334","529.3333333333334","j","true","match","img/square.png","方形","方形","ALT1_2","prac_ALT1_2","","","","","","","","","","","",""
"null","<span style='color:GreenYellow; font-size: 70px;'>正确! </span>","null","html-keyboard-response","98","208919","0.0-7.0-1.0-1.0-0.0-1.44","3","3","4","3","3","3","3","3","4","3","4","4","4","4","3","4","4","3","4","4","4","4","3","2","3","3","3","4","1","1","0","1","1","0","0","0","1","0","1","1","0","1","0","1","4","2","3","2","3","1","2","4","4","3","3","781945721594318849","钟","595","","","","","","","","","","","","","","","","","","","","","","","","","","","","","","feedback_test","","","","","","","","","","","",""
"122","","f","psychophysics","99","210044","0.0-7.0-1.0-1.0-0.0-0.45","3","3","4","3","3","3","3","3","4","3","4","4","4","4","3","4","4","3","4","4","4","4","3","2","3","3","3","4","1","1","0","1","1","0","0","0","1","0","1","1","0","1","0","1","4","2","3","2","3","1","2","4","4","3","3","781945721594318849","钟","595","","","","nonmatch","","","","","","","","","","","","","","key","f","8.405893129770927","853.3333333333334","529.3333333333334","f","true","nonmatch","img/square.png","椭圆","方形","ALT1_2","prac_ALT1_2","","","","","","","","","","","",""
"null","<span style='color:yellow; font-size: 70px;'>过快! </span>","null","html-keyboard-response","100","210547","0.0-7.0-1.0-1.0-0.0-1.45","3","3","4","3","3","3","3","3","4","3","4","4","4","4","3","4","4","3","4","4","4","4","3","2","3","3","3","4","1","1","0","1","1","0","0","0","1","0","1","1","0","1","0","1","4","2","3","2","3","1","2","4","4","3","3","781945721594318849","钟","595","","","","","","","","","","","","","","","","","","","","","","","","","","","","","","feedback_test","","","","","","","","","","","",""
"254","","j","psychophysics","101","211805","0.0-7.0-1.0-1.0-0.0-0.46","3","3","4","3","3","3","3","3","4","3","4","4","4","4","3","4","4","3","4","4","4","4","3","2","3","3","3","4","1","1","0","1","1","0","0","0","1","0","1","1","0","1","0","1","4","2","3","2","3","1","2","4","4","3","3","781945721594318849","钟","595","","","","match","","","","","","","","","","","","","","key","j","8.370369127516764","853.3333333333334","529.3333333333334","j","true","match","img/trapezoid.png","梯形","梯形","ALT1_2","prac_ALT1_2","","","","","","","","","","","",""
"null","<span style='color:GreenYellow; font-size: 70px;'>正确! </span>","null","html-keyboard-response","102","212307","0.0-7.0-1.0-1.0-0.0-1.46","3","3","4","3","3","3","3","3","4","3","4","4","4","4","3","4","4","3","4","4","4","4","3","2","3","3","3","4","1","1","0","1","1","0","0","0","1","0","1","1","0","1","0","1","4","2","3","2","3","1","2","4","4","3","3","781945721594318849","钟","595","","","","","","","","","","","","","","","","","","","","","","","","","","","","","","feedback_test","","","","","","","","","","","",""
"261","","j","psychophysics","103","213570","0.0-7.0-1.0-1.0-0.0-0.47","3","3","4","3","3","3","3","3","4","3","4","4","4","4","3","4","4","3","4","4","4","4","3","2","3","3","3","4","1","1","0","1","1","0","0","0","1","0","1","1","0","1","0","1","4","2","3","2","3","1","2","4","4","3","3","781945721594318849","钟","595","","","","match","","","","","","","","","","","","","","key","j","8.399263513513418","853.3333333333334","529.3333333333334","f","false","nonmatch","img/ellipse.png","六边","椭圆","ALT1_2","prac_ALT1_2","","","","","","","","","","","",""
"null","<span style='color:red; font-size: 70px;'>错误! </span>","null","html-keyboard-response","104","214075","0.0-7.0-1.0-1.0-0.0-1.47","3","3","4","3","3","3","3","3","4","3","4","4","4","4","3","4","4","3","4","4","4","4","3","2","3","3","3","4","1","1","0","1","1","0","0","0","1","0","1","1","0","1","0","1","4","2","3","2","3","1","2","4","4","3","3","781945721594318849","钟","595","","","","","","","","","","","","","","","","","","","","","","","","","","","","","","feedback_test","","","","","","","","","","","",""
"190605","<style>.context{color:white; font-size: 35px; line-height:40px}</style>                          <div><p class='context'>您正确回答了63% 的试次。</p><p class='context'>您的平均反应时为239毫秒。</p><p class='context'>恭喜您完成练习。按空格键进入正式实验。</p><p class='footer' style='font-size: 35px; line-height:40px;'>请在进入正式实验实验之前将您的<span style='color: lightgreen;'>食指</span>放在电脑键盘的相应键位上进行按键。</p>"," ","html-keyboard-response","105","404686","0.0-7.0-1.0-2.0","3","3","4","3","3","3","3","3","4","3","4","4","4","4","3","4","4","3","4","4","4","4","3","2","3","3","3","4","1","1","0","1","1","0","0","0","1","0","1","1","0","1","0","1","4","2","3","2","3","1","2","4","4","3","3","781945721594318849","钟","595","","","","","","","","","","","","","","","","","","","","","","","","","","","","","","","","","","","","","","","","","",""
"1952","
  <p style='color: white; font-size: 22px'>请您将手指放在按键上，准备进入正式的匹配任务。</p>
  <p> <div style = ""color: green""><按空格键进入下一阶段的匹配任务></div></p>
  ","f","html-keyboard-response","106","406646","0.0-7.0-1.0-3.0","3","3","4","3","3","3","3","3","4","3","4","4","4","4","3","4","4","3","4","4","4","4","3","2","3","3","3","4","1","1","0","1","1","0","0","0","1","0","1","1","0","1","0","1","4","2","3","2","3","1","2","4","4","3","3","781945721594318849","钟","595","","","","","","","","","","","","","","","","","","","","","","","","","","","","","","","","","","","","","","","","","",""
"414","","f","psychophysics","107","408065","0.0-7.0-1.0-4.0-0.0-0.0","3","3","4","3","3","3","3","3","4","3","4","4","4","4","3","4","4","3","4","4","4","4","3","2","3","3","3","4","1","1","0","1","1","0","0","0","1","0","1","1","0","1","0","1","4","2","3","2","3","1","2","4","4","3","3","781945721594318849","钟","595","","","","nonmatch","","","","","","","","","","","","","","key","f","8.392698795180866","853.3333333333334","529.3333333333334","j","false","match","img/square.png","方形","方形","ALT1","formal_ALT1_2","","","","","","","","","","","",""
"null","<span style='color:red; font-size: 70px;'>错误! </span>","null","html-keyboard-response","108","408579","0.0-7.0-1.0-4.0-0.0-1.0","3","3","4","3","3","3","3","3","4","3","4","4","4","4","3","4","4","3","4","4","4","4","3","2","3","3","3","4","1","1","0","1","1","0","0","0","1","0","1","1","0","1","0","1","4","2","3","2","3","1","2","4","4","3","3","781945721594318849","钟","595","","","","","","","","","","","","","","","","","","","","","","","","","","","","","","feedback_test","","","","","","","","","","","",""
"337","","j","psychophysics","109","409920","0.0-7.0-1.0-4.0-0.0-0.1","3","3","4","3","3","3","3","3","4","3","4","4","4","4","3","4","4","3","4","4","4","4","3","2","3","3","3","4","1","1","0","1","1","0","0","0","1","0","1","1","0","1","0","1","4","2","3","2","3","1","2","4","4","3","3","781945721594318849","钟","595","","","","match","","","","","","","","","","","","","","key","j","8.385056962025546","853.3333333333334","529.3333333333334","f","false","nonmatch","img/hexagon.png","方形","六边","ALT1","formal_ALT1_2","","","","","","","","","","","",""
"null","<span style='color:red; font-size: 70px;'>错误! </span>","null","html-keyboard-response","110","410423","0.0-7.0-1.0-4.0-0.0-1.1","3","3","4","3","3","3","3","3","4","3","4","4","4","4","3","4","4","3","4","4","4","4","3","2","3","3","3","4","1","1","0","1","1","0","0","0","1","0","1","1","0","1","0","1","4","2","3","2","3","1","2","4","4","3","3","781945721594318849","钟","595","","","","","","","","","","","","","","","","","","","","","","","","","","","","","","feedback_test","","","","","","","","","","","",""
"402","","f","psychophysics","111","411829","0.0-7.0-1.0-4.0-0.0-0.2","3","3","4","3","3","3","3","3","4","3","4","4","4","4","3","4","4","3","4","4","4","4","3","2","3","3","3","4","1","1","0","1","1","0","0","0","1","0","1","1","0","1","0","1","4","2","3","2","3","1","2","4","4","3","3","781945721594318849","钟","595","","","","nonmatch","","","","","","","","","","","","","","key","f","8.384313253012236","853.3333333333334","529.3333333333334","f","true","nonmatch","img/trapezoid.png","方形","梯形","ALT1","formal_ALT1_2","","","","","","","","","","","",""
"null","<span style='color:GreenYellow; font-size: 70px;'>正确! </span>","null","html-keyboard-response","112","412342","0.0-7.0-1.0-4.0-0.0-1.2","3","3","4","3","3","3","3","3","4","3","4","4","4","4","3","4","4","3","4","4","4","4","3","2","3","3","3","4","1","1","0","1","1","0","0","0","1","0","1","1","0","1","0","1","4","2","3","2","3","1","2","4","4","3","3","781945721594318849","钟","595","","","","","","","","","","","","","","","","","","","","","","","","","","","","","","feedback_test","","","","","","","","","","","",""
"243","","j","psychophysics","113","413588","0.0-7.0-1.0-4.0-0.0-0.3","3","3","4","3","3","3","3","3","4","3","4","4","4","4","3","4","4","3","4","4","4","4","3","2","3","3","3","4","1","1","0","1","1","0","0","0","1","0","1","1","0","1","0","1","4","2","3","2","3","1","2","4","4","3","3","781945721594318849","钟","595","","","","match","","","","","","","","","","","","","","key","j","8.395993197278981","853.3333333333334","529.3333333333334","f","false","nonmatch","img/trapezoid.png","椭圆","梯形","ALT1","formal_ALT1_2","","","","","","","","","","","",""
"null","<span style='color:red; font-size: 70px;'>错误! </span>","null","html-keyboard-response","114","414090","0.0-7.0-1.0-4.0-0.0-1.3","3","3","4","3","3","3","3","3","4","3","4","4","4","4","3","4","4","3","4","4","4","4","3","2","3","3","3","4","1","1","0","1","1","0","0","0","1","0","1","1","0","1","0","1","4","2","3","2","3","1","2","4","4","3","3","781945721594318849","钟","595","","","","","","","","","","","","","","","","","","","","","","","","","","","","","","feedback_test","","","","","","","","","","","",""
"322","","j","psychophysics","115","415417","0.0-7.0-1.0-4.0-0.0-0.4","3","3","4","3","3","3","3","3","4","3","4","4","4","4","3","4","4","3","4","4","4","4","3","2","3","3","3","4","1","1","0","1","1","0","0","0","1","0","1","1","0","1","0","1","4","2","3","2","3","1","2","4","4","3","3","781945721594318849","钟","595","","","","match","","","","","","","","","","","","","","key","j","8.371547770700907","853.3333333333334","529.3333333333334","j","true","match","img/trapezoid.png","梯形","梯形","ALT1","formal_ALT1_2","","","","","","","","","","","",""
"null","<span style='color:GreenYellow; font-size: 70px;'>正确! </span>","null","html-keyboard-response","116","415932","0.0-7.0-1.0-4.0-0.0-1.4","3","3","4","3","3","3","3","3","4","3","4","4","4","4","3","4","4","3","4","4","4","4","3","2","3","3","3","4","1","1","0","1","1","0","0","0","1","0","1","1","0","1","0","1","4","2","3","2","3","1","2","4","4","3","3","781945721594318849","钟","595","","","","","","","","","","","","","","","","","","","","","","","","","","","","","","feedback_test","","","","","","","","","","","",""
"207","","f","psychophysics","117","417141","0.0-7.0-1.0-4.0-0.0-0.5","3","3","4","3","3","3","3","3","4","3","4","4","4","4","3","4","4","3","4","4","4","4","3","2","3","3","3","4","1","1","0","1","1","0","0","0","1","0","1","1","0","1","0","1","4","2","3","2","3","1","2","4","4","3","3","781945721594318849","钟","595","","","","nonmatch","","","","","","","","","","","","","","key","f","8.380815602836929","853.3333333333334","529.3333333333334","j","false","match","img/ellipse.png","椭圆","椭圆","ALT1","formal_ALT1_2","","","","","","","","","","","",""
"null","<span style='color:red; font-size: 70px;'>错误! </span>","null","html-keyboard-response","118","417643","0.0-7.0-1.0-4.0-0.0-1.5","3","3","4","3","3","3","3","3","4","3","4","4","4","4","3","4","4","3","4","4","4","4","3","2","3","3","3","4","1","1","0","1","1","0","0","0","1","0","1","1","0","1","0","1","4","2","3","2","3","1","2","4","4","3","3","781945721594318849","钟","595","","","","","","","","","","","","","","","","","","","","","","","","","","","","","","feedback_test","","","","","","","","","","","",""
"153","","j","psychophysics","119","418798","0.0-7.0-1.0-4.0-0.0-0.6","3","3","4","3","3","3","3","3","4","3","4","4","4","4","3","4","4","3","4","4","4","4","3","2","3","3","3","4","1","1","0","1","1","0","0","0","1","0","1","1","0","1","0","1","4","2","3","2","3","1","2","4","4","3","3","781945721594318849","钟","595","","","","match","","","","","","","","","","","","","","key","j","8.37762043795618","853.3333333333334","529.3333333333334","f","false","nonmatch","img/hexagon.png","梯形","六边","ALT1","formal_ALT1_2","","","","","","","","","","","",""
"null","<span style='color:yellow; font-size: 70px;'>过快! </span>","null","html-keyboard-response","120","419313","0.0-7.0-1.0-4.0-0.0-1.6","3","3","4","3","3","3","3","3","4","3","4","4","4","4","3","4","4","3","4","4","4","4","3","2","3","3","3","4","1","1","0","1","1","0","0","0","1","0","1","1","0","1","0","1","4","2","3","2","3","1","2","4","4","3","3","781945721594318849","钟","595","","","","","","","","","","","","","","","","","","","","","","","","","","","","","","feedback_test","","","","","","","","","","","",""
"270","","j","psychophysics","121","420584","0.0-7.0-1.0-4.0-0.0-0.7","3","3","4","3","3","3","3","3","4","3","4","4","4","4","3","4","4","3","4","4","4","4","3","2","3","3","3","4","1","1","0","1","1","0","0","0","1","0","1","1","0","1","0","1","4","2","3","2","3","1","2","4","4","3","3","781945721594318849","钟","595","","","","match","","","","","","","","","","","","","","key","j","8.374980000000214","853.3333333333334","529.3333333333334","f","false","nonmatch","img/ellipse.png","六边","椭圆","ALT1","formal_ALT1_2","","","","","","","","","","","",""
"null","<span style='color:red; font-size: 70px;'>错误! </span>","null","html-keyboard-response","122","421088","0.0-7.0-1.0-4.0-0.0-1.7","3","3","4","3","3","3","3","3","4","3","4","4","4","4","3","4","4","3","4","4","4","4","3","2","3","3","3","4","1","1","0","1","1","0","0","0","1","0","1","1","0","1","0","1","4","2","3","2","3","1","2","4","4","3","3","781945721594318849","钟","595","","","","","","","","","","","","","","","","","","","","","","","","","","","","","","feedback_test","","","","","","","","","","","",""
"275","","f","psychophysics","123","422365","0.0-7.0-1.0-4.0-0.0-0.8","3","3","4","3","3","3","3","3","4","3","4","4","4","4","3","4","4","3","4","4","4","4","3","2","3","3","3","4","1","1","0","1","1","0","0","0","1","0","1","1","0","1","0","1","4","2","3","2","3","1","2","4","4","3","3","781945721594318849","钟","595","","","","nonmatch","","","","","","","","","","","","","","key","f","8.380200000000187","853.3333333333334","529.3333333333334","j","false","match","img/hexagon.png","六边","六边","ALT1","formal_ALT1_2","","","","","","","","","","","",""
"null","<span style='color:red; font-size: 70px;'>错误! </span>","null","html-keyboard-response","124","422870","0.0-7.0-1.0-4.0-0.0-1.8","3","3","4","3","3","3","3","3","4","3","4","4","4","4","3","4","4","3","4","4","4","4","3","2","3","3","3","4","1","1","0","1","1","0","0","0","1","0","1","1","0","1","0","1","4","2","3","2","3","1","2","4","4","3","3","781945721594318849","钟","595","","","","","","","","","","","","","","","","","","","","","","","","","","","","","","feedback_test","","","","","","","","","","","",""
"291","","f","psychophysics","125","424164","0.0-7.0-1.0-4.0-0.0-0.9","3","3","4","3","3","3","3","3","4","3","4","4","4","4","3","4","4","3","4","4","4","4","3","2","3","3","3","4","1","1","0","1","1","0","0","0","1","0","1","1","0","1","0","1","4","2","3","2","3","1","2","4","4","3","3","781945721594318849","钟","595","","","","nonmatch","","","","","","","","","","","","","","key","f","8.394605263158155","853.3333333333334","529.3333333333334","f","true","nonmatch","img/square.png","六边","方形","ALT1","formal_ALT1_2","","","","","","","","","","","",""
"null","<span style='color:GreenYellow; font-size: 70px;'>正确! </span>","null","html-keyboard-response","126","424676","0.0-7.0-1.0-4.0-0.0-1.9","3","3","4","3","3","3","3","3","4","3","4","4","4","4","3","4","4","3","4","4","4","4","3","2","3","3","3","4","1","1","0","1","1","0","0","0","1","0","1","1","0","1","0","1","4","2","3","2","3","1","2","4","4","3","3","781945721594318849","钟","595","","","","","","","","","","","","","","","","","","","","","","","","","","","","","","feedback_test","","","","","","","","","","","",""
"298","","j","psychophysics","127","425976","0.0-7.0-1.0-4.0-0.0-0.10","3","3","4","3","3","3","3","3","4","3","4","4","4","4","3","4","4","3","4","4","4","4","3","2","3","3","3","4","1","1","0","1","1","0","0","0","1","0","1","1","0","1","0","1","4","2","3","2","3","1","2","4","4","3","3","781945721594318849","钟","595","","","","match","","","","","","","","","","","","","","key","j","8.395254901960703","853.3333333333334","529.3333333333334","f","false","nonmatch","img/ellipse.png","梯形","椭圆","ALT1","formal_ALT1_2","","","","","","","","","","","",""
"null","<span style='color:red; font-size: 70px;'>错误! </span>","null","html-keyboard-response","128","426480","0.0-7.0-1.0-4.0-0.0-1.10","3","3","4","3","3","3","3","3","4","3","4","4","4","4","3","4","4","3","4","4","4","4","3","2","3","3","3","4","1","1","0","1","1","0","0","0","1","0","1","1","0","1","0","1","4","2","3","2","3","1","2","4","4","3","3","781945721594318849","钟","595","","","","","","","","","","","","","","","","","","","","","","","","","","","","","","feedback_test","","","","","","","","","","","",""
"275","","f","psychophysics","129","427761","0.0-7.0-1.0-4.0-0.0-0.11","3","3","4","3","3","3","3","3","4","3","4","4","4","4","3","4","4","3","4","4","4","4","3","2","3","3","3","4","1","1","0","1","1","0","0","0","1","0","1","1","0","1","0","1","4","2","3","2","3","1","2","4","4","3","3","781945721594318849","钟","595","","","","nonmatch","","","","","","","","","","","","","","key","f","8.372417218542953","853.3333333333334","529.3333333333334","j","false","match","img/square.png","方形","方形","ALT1","formal_ALT1_2","","","","","","","","","","","",""
"null","<span style='color:red; font-size: 70px;'>错误! </span>","null","html-keyboard-response","130","428265","0.0-7.0-1.0-4.0-0.0-1.11","3","3","4","3","3","3","3","3","4","3","4","4","4","4","3","4","4","3","4","4","4","4","3","2","3","3","3","4","1","1","0","1","1","0","0","0","1","0","1","1","0","1","0","1","4","2","3","2","3","1","2","4","4","3","3","781945721594318849","钟","595","","","","","","","","","","","","","","","","","","","","","","","","","","","","","","feedback_test","","","","","","","","","","","",""
"337","","j","psychophysics","131","429615","0.0-7.0-1.0-4.0-0.0-0.12","3","3","4","3","3","3","3","3","4","3","4","4","4","4","3","4","4","3","4","4","4","4","3","2","3","3","3","4","1","1","0","1","1","0","0","0","1","0","1","1","0","1","0","1","4","2","3","2","3","1","2","4","4","3","3","781945721594318849","钟","595","","","","match","","","","","","","","","","","","","","key","j","8.3694556962026","853.3333333333334","529.3333333333334","j","true","match","img/trapezoid.png","梯形","梯形","ALT1","formal_ALT1_2","","","","","","","","","","","",""
"null","<span style='color:GreenYellow; font-size: 70px;'>正确! </span>","null","html-keyboard-response","132","430118","0.0-7.0-1.0-4.0-0.0-1.12","3","3","4","3","3","3","3","3","4","3","4","4","4","4","3","4","4","3","4","4","4","4","3","2","3","3","3","4","1","1","0","1","1","0","0","0","1","0","1","1","0","1","0","1","4","2","3","2","3","1","2","4","4","3","3","781945721594318849","钟","595","","","","","","","","","","","","","","","","","","","","","","","","","","","","","","feedback_test","","","","","","","","","","","",""
"412","","j","psychophysics","133","431531","0.0-7.0-1.0-4.0-0.0-0.13","3","3","4","3","3","3","3","3","4","3","4","4","4","4","3","4","4","3","4","4","4","4","3","2","3","3","3","4","1","1","0","1","1","0","0","0","1","0","1","1","0","1","0","1","4","2","3","2","3","1","2","4","4","3","3","781945721594318849","钟","595","","","","match","","","","","","","","","","","","","","key","j","8.328779761905025","853.3333333333334","529.3333333333334","j","true","match","img/hexagon.png","六边","六边","ALT1","formal_ALT1_2","","","","","","","","","","","",""
"null","<span style='color:GreenYellow; font-size: 70px;'>正确! </span>","null","html-keyboard-response","134","432034","0.0-7.0-1.0-4.0-0.0-1.13","3","3","4","3","3","3","3","3","4","3","4","4","4","4","3","4","4","3","4","4","4","4","3","2","3","3","3","4","1","1","0","1","1","0","0","0","1","0","1","1","0","1","0","1","4","2","3","2","3","1","2","4","4","3","3","781945721594318849","钟","595","","","","","","","","","","","","","","","","","","","","","","","","","","","","","","feedback_test","","","","","","","","","","","",""
"334","","j","psychophysics","135","433371","0.0-7.0-1.0-4.0-0.0-0.14","3","3","4","3","3","3","3","3","4","3","4","4","4","4","3","4","4","3","4","4","4","4","3","2","3","3","3","4","1","1","0","1","1","0","0","0","1","0","1","1","0","1","0","1","4","2","3","2","3","1","2","4","4","3","3","781945721594318849","钟","595","","","","match","","","","","","","","","","","","","","key","j","8.370493670886079","853.3333333333334","529.3333333333334","j","true","match","img/hexagon.png","六边","六边","ALT1","formal_ALT1_2","","","","","","","","","","","",""
"null","<span style='color:GreenYellow; font-size: 70px;'>正确! </span>","null","html-keyboard-response","136","433872","0.0-7.0-1.0-4.0-0.0-1.14","3","3","4","3","3","3","3","3","4","3","4","4","4","4","3","4","4","3","4","4","4","4","3","2","3","3","3","4","1","1","0","1","1","0","0","0","1","0","1","1","0","1","0","1","4","2","3","2","3","1","2","4","4","3","3","781945721594318849","钟","595","","","","","","","","","","","","","","","","","","","","","","","","","","","","","","feedback_test","","","","","","","","","","","",""
"626","","f","psychophysics","137","435500","0.0-7.0-1.0-4.0-0.0-0.15","3","3","4","3","3","3","3","3","4","3","4","4","4","4","3","4","4","3","4","4","4","4","3","2","3","3","3","4","1","1","0","1","1","0","0","0","1","0","1","1","0","1","0","1","4","2","3","2","3","1","2","4","4","3","3","781945721594318849","钟","595","","","","nonmatch","","","","","","","","","","","","","","key","f","8.375843750000058","853.3333333333334","529.3333333333334","f","true","nonmatch","img/trapezoid.png","六边","梯形","ALT1","formal_ALT1_2","","","","","","","","","","","",""
"null","<span style='color:GreenYellow; font-size: 70px;'>正确! </span>","null","html-keyboard-response","138","436002","0.0-7.0-1.0-4.0-0.0-1.15","3","3","4","3","3","3","3","3","4","3","4","4","4","4","3","4","4","3","4","4","4","4","3","2","3","3","3","4","1","1","0","1","1","0","0","0","1","0","1","1","0","1","0","1","4","2","3","2","3","1","2","4","4","3","3","781945721594318849","钟","595","","","","","","","","","","","","","","","","","","","","","","","","","","","","","","feedback_test","","","","","","","","","","","",""
"434","","j","psychophysics","139","437438","0.0-7.0-1.0-4.0-0.0-0.16","3","3","4","3","3","3","3","3","4","3","4","4","4","4","3","4","4","3","4","4","4","4","3","2","3","3","3","4","1","1","0","1","1","0","0","0","1","0","1","1","0","1","0","1","4","2","3","2","3","1","2","4","4","3","3","781945721594318849","钟","595","","","","match","","","","","","","","","","","","","","key","j","8.36972023809531","853.3333333333334","529.3333333333334","j","true","match","img/trapezoid.png","梯形","梯形","ALT1","formal_ALT1_2","","","","","","","","","","","",""
"null","<span style='color:GreenYellow; font-size: 70px;'>正确! </span>","null","html-keyboard-response","140","437941","0.0-7.0-1.0-4.0-0.0-1.16","3","3","4","3","3","3","3","3","4","3","4","4","4","4","3","4","4","3","4","4","4","4","3","2","3","3","3","4","1","1","0","1","1","0","0","0","1","0","1","1","0","1","0","1","4","2","3","2","3","1","2","4","4","3","3","781945721594318849","钟","595","","","","","","","","","","","","","","","","","","","","","","","","","","","","","","feedback_test","","","","","","","","","","","",""
"581","","f","psychophysics","141","439525","0.0-7.0-1.0-4.0-0.0-0.17","3","3","4","3","3","3","3","3","4","3","4","4","4","4","3","4","4","3","4","4","4","4","3","2","3","3","3","4","1","1","0","1","1","0","0","0","1","0","1","1","0","1","0","1","4","2","3","2","3","1","2","4","4","3","3","781945721594318849","钟","595","","","","nonmatch","","","","","","","","","","","","","","key","f","8.365811827956819","853.3333333333334","529.3333333333334","j","false","match","img/ellipse.png","椭圆","椭圆","ALT1","formal_ALT1_2","","","","","","","","","","","",""
"null","<span style='color:red; font-size: 70px;'>错误! </span>","null","html-keyboard-response","142","440028","0.0-7.0-1.0-4.0-0.0-1.17","3","3","4","3","3","3","3","3","4","3","4","4","4","4","3","4","4","3","4","4","4","4","3","2","3","3","3","4","1","1","0","1","1","0","0","0","1","0","1","1","0","1","0","1","4","2","3","2","3","1","2","4","4","3","3","781945721594318849","钟","595","","","","","","","","","","","","","","","","","","","","","","","","","","","","","","feedback_test","","","","","","","","","","","",""
"815","","j","psychophysics","143","441845","0.0-7.0-1.0-4.0-0.0-0.18","3","3","4","3","3","3","3","3","4","3","4","4","4","4","3","4","4","3","4","4","4","4","3","2","3","3","3","4","1","1","0","1","1","0","0","0","1","0","1","1","0","1","0","1","4","2","3","2","3","1","2","4","4","3","3","781945721594318849","钟","595","","","","match","","","","","","","","","","","","","","key","j","8.362302325581211","853.3333333333334","529.3333333333334","f","false","nonmatch","img/square.png","梯形","方形","ALT1","formal_ALT1_2","","","","","","","","","","","",""
"null","<span style='color:red; font-size: 70px;'>错误! </span>","null","html-keyboard-response","144","442347","0.0-7.0-1.0-4.0-0.0-1.18","3","3","4","3","3","3","3","3","4","3","4","4","4","4","3","4","4","3","4","4","4","4","3","2","3","3","3","4","1","1","0","1","1","0","0","0","1","0","1","1","0","1","0","1","4","2","3","2","3","1","2","4","4","3","3","781945721594318849","钟","595","","","","","","","","","","","","","","","","","","","","","","","","","","","","","","feedback_test","","","","","","","","","","","",""
"677","","f","psychophysics","145","444028","0.0-7.0-1.0-4.0-0.0-0.19","3","3","4","3","3","3","3","3","4","3","4","4","4","4","3","4","4","3","4","4","4","4","3","2","3","3","3","4","1","1","0","1","1","0","0","0","1","0","1","1","0","1","0","1","4","2","3","2","3","1","2","4","4","3","3","781945721594318849","钟","595","","","","nonmatch","","","","","","","","","","","","","","key","f","8.38713636363632","853.3333333333334","529.3333333333334","f","true","nonmatch","img/ellipse.png","方形","椭圆","ALT1","formal_ALT1_2","","","","","","","","","","","",""
"null","<span style='color:GreenYellow; font-size: 70px;'>正确! </span>","null","html-keyboard-response","146","444529","0.0-7.0-1.0-4.0-0.0-1.19","3","3","4","3","3","3","3","3","4","3","4","4","4","4","3","4","4","3","4","4","4","4","3","2","3","3","3","4","1","1","0","1","1","0","0","0","1","0","1","1","0","1","0","1","4","2","3","2","3","1","2","4","4","3","3","781945721594318849","钟","595","","","","","","","","","","","","","","","","","","","","","","","","","","","","","","feedback_test","","","","","","","","","","","",""
"794","","f","psychophysics","147","446326","0.0-7.0-1.0-4.0-0.0-0.20","3","3","4","3","3","3","3","3","4","3","4","4","4","4","3","4","4","3","4","4","4","4","3","2","3","3","3","4","1","1","0","1","1","0","0","0","1","0","1","1","0","1","0","1","4","2","3","2","3","1","2","4","4","3","3","781945721594318849","钟","595","","","","nonmatch","","","","","","","","","","","","","","key","f","8.369037735849215","853.3333333333334","529.3333333333334","j","false","match","img/square.png","方形","方形","ALT1","formal_ALT1_2","","","","","","","","","","","",""
"null","<span style='color:red; font-size: 70px;'>错误! </span>","null","html-keyboard-response","148","446830","0.0-7.0-1.0-4.0-0.0-1.20","3","3","4","3","3","3","3","3","4","3","4","4","4","4","3","4","4","3","4","4","4","4","3","2","3","3","3","4","1","1","0","1","1","0","0","0","1","0","1","1","0","1","0","1","4","2","3","2","3","1","2","4","4","3","3","781945721594318849","钟","595","","","","","","","","","","","","","","","","","","","","","","","","","","","","","","feedback_test","","","","","","","","","","","",""
"887","","j","psychophysics","149","448721","0.0-7.0-1.0-4.0-0.0-0.21","3","3","4","3","3","3","3","3","4","3","4","4","4","4","3","4","4","3","4","4","4","4","3","2","3","3","3","4","1","1","0","1","1","0","0","0","1","0","1","1","0","1","0","1","4","2","3","2","3","1","2","4","4","3","3","781945721594318849","钟","595","","","","match","","","","","","","","","","","","","","key","j","8.38153125000021","853.3333333333334","529.3333333333334","j","true","match","img/ellipse.png","椭圆","椭圆","ALT1","formal_ALT1_2","","","","","","","","","","","",""
"null","<span style='color:GreenYellow; font-size: 70px;'>正确! </span>","null","html-keyboard-response","150","449225","0.0-7.0-1.0-4.0-0.0-1.21","3","3","4","3","3","3","3","3","4","3","4","4","4","4","3","4","4","3","4","4","4","4","3","2","3","3","3","4","1","1","0","1","1","0","0","0","1","0","1","1","0","1","0","1","4","2","3","2","3","1","2","4","4","3","3","781945721594318849","钟","595","","","","","","","","","","","","","","","","","","","","","","","","","","","","","","feedback_test","","","","","","","","","","","",""
"814","","f","psychophysics","151","451042","0.0-7.0-1.0-4.0-0.0-0.22","3","3","4","3","3","3","3","3","4","3","4","4","4","4","3","4","4","3","4","4","4","4","3","2","3","3","3","4","1","1","0","1","1","0","0","0","1","0","1","1","0","1","0","1","4","2","3","2","3","1","2","4","4","3","3","781945721594318849","钟","595","","","","nonmatch","","","","","","","","","","","","","","key","f","8.38328504672891","853.3333333333334","529.3333333333334","f","true","nonmatch","img/square.png","椭圆","方形","ALT1","formal_ALT1_2","","","","","","","","","","","",""
"null","<span style='color:GreenYellow; font-size: 70px;'>正确! </span>","null","html-keyboard-response","152","451558","0.0-7.0-1.0-4.0-0.0-1.22","3","3","4","3","3","3","3","3","4","3","4","4","4","4","3","4","4","3","4","4","4","4","3","2","3","3","3","4","1","1","0","1","1","0","0","0","1","0","1","1","0","1","0","1","4","2","3","2","3","1","2","4","4","3","3","781945721594318849","钟","595","","","","","","","","","","","","","","","","","","","","","","","","","","","","","","feedback_test","","","","","","","","","","","",""
"810","","f","psychophysics","153","453370","0.0-7.0-1.0-4.0-0.0-0.23","3","3","4","3","3","3","3","3","4","3","4","4","4","4","3","4","4","3","4","4","4","4","3","2","3","3","3","4","1","1","0","1","1","0","0","0","1","0","1","1","0","1","0","1","4","2","3","2","3","1","2","4","4","3","3","781945721594318849","钟","595","","","","nonmatch","","","","","","","","","","","","","","key","f","8.381971962616952","853.3333333333334","529.3333333333334","f","true","nonmatch","img/hexagon.png","椭圆","六边","ALT1","formal_ALT1_2","","","","","","","","","","","",""
"null","<span style='color:GreenYellow; font-size: 70px;'>正确! </span>","null","html-keyboard-response","154","453873","0.0-7.0-1.0-4.0-0.0-1.23","3","3","4","3","3","3","3","3","4","3","4","4","4","4","3","4","4","3","4","4","4","4","3","2","3","3","3","4","1","1","0","1","1","0","0","0","1","0","1","1","0","1","0","1","4","2","3","2","3","1","2","4","4","3","3","781945721594318849","钟","595","","","","","","","","","","","","","","","","","","","","","","","","","","","","","","feedback_test","","","","","","","","","","","",""
"814","","j","psychophysics","155","455690","0.0-7.0-1.0-4.0-0.0-0.24","3","3","4","3","3","3","3","3","4","3","4","4","4","4","3","4","4","3","4","4","4","4","3","2","3","3","3","4","1","1","0","1","1","0","0","0","1","0","1","1","0","1","0","1","4","2","3","2","3","1","2","4","4","3","3","781945721594318849","钟","595","","","","match","","","","","","","","","","","","","","key","j","8.382883177570255","853.3333333333334","529.3333333333334","j","true","match","img/ellipse.png","椭圆","椭圆","ALT1","formal_ALT1_2","","","","","","","","","","","",""
"null","<span style='color:GreenYellow; font-size: 70px;'>正确! </span>","null","html-keyboard-response","156","456204","0.0-7.0-1.0-4.0-0.0-1.24","3","3","4","3","3","3","3","3","4","3","4","4","4","4","3","4","4","3","4","4","4","4","3","2","3","3","3","4","1","1","0","1","1","0","0","0","1","0","1","1","0","1","0","1","4","2","3","2","3","1","2","4","4","3","3","781945721594318849","钟","595","","","","","","","","","","","","","","","","","","","","","","","","","","","","","","feedback_test","","","","","","","","","","","",""
"657","","f","psychophysics","157","457862","0.0-7.0-1.0-4.0-0.0-0.25","3","3","4","3","3","3","3","3","4","3","4","4","4","4","3","4","4","3","4","4","4","4","3","2","3","3","3","4","1","1","0","1","1","0","0","0","1","0","1","1","0","1","0","1","4","2","3","2","3","1","2","4","4","3","3","781945721594318849","钟","595","","","","nonmatch","","","","","","","","","","","","","","key","f","8.377964102563997","853.3333333333334","529.3333333333334","f","true","nonmatch","img/hexagon.png","椭圆","六边","ALT1","formal_ALT1_2","","","","","","","","","","","",""
"null","<span style='color:GreenYellow; font-size: 70px;'>正确! </span>","null","html-keyboard-response","158","458365","0.0-7.0-1.0-4.0-0.0-1.25","3","3","4","3","3","3","3","3","4","3","4","4","4","4","3","4","4","3","4","4","4","4","3","2","3","3","3","4","1","1","0","1","1","0","0","0","1","0","1","1","0","1","0","1","4","2","3","2","3","1","2","4","4","3","3","781945721594318849","钟","595","","","","","","","","","","","","","","","","","","","","","","","","","","","","","","feedback_test","","","","","","","","","","","",""
"762","","f","psychophysics","159","460128","0.0-7.0-1.0-4.0-0.0-0.26","3","3","4","3","3","3","3","3","4","3","4","4","4","4","3","4","4","3","4","4","4","4","3","2","3","3","3","4","1","1","0","1","1","0","0","0","1","0","1","1","0","1","0","1","4","2","3","2","3","1","2","4","4","3","3","781945721594318849","钟","595","","","","nonmatch","","","","","","","","","","","","","","key","f","8.384239234449955","853.3333333333334","529.3333333333334","f","true","nonmatch","img/square.png","椭圆","方形","ALT1","formal_ALT1_2","","","","","","","","","","","",""
"null","<span style='color:GreenYellow; font-size: 70px;'>正确! </span>","null","html-keyboard-response","160","460631","0.0-7.0-1.0-4.0-0.0-1.26","3","3","4","3","3","3","3","3","4","3","4","4","4","4","3","4","4","3","4","4","4","4","3","2","3","3","3","4","1","1","0","1","1","0","0","0","1","0","1","1","0","1","0","1","4","2","3","2","3","1","2","4","4","3","3","781945721594318849","钟","595","","","","","","","","","","","","","","","","","","","","","","","","","","","","","","feedback_test","","","","","","","","","","","",""
"820","","j","psychophysics","161","462452","0.0-7.0-1.0-4.0-0.0-0.27","3","3","4","3","3","3","3","3","4","3","4","4","4","4","3","4","4","3","4","4","4","4","3","2","3","3","3","4","1","1","0","1","1","0","0","0","1","0","1","1","0","1","0","1","4","2","3","2","3","1","2","4","4","3","3","781945721594318849","钟","595","","","","match","","","","","","","","","","","","","","key","j","8.36939814814832","853.3333333333334","529.3333333333334","j","true","match","img/trapezoid.png","梯形","梯形","ALT1","formal_ALT1_2","","","","","","","","","","","",""
"null","<span style='color:GreenYellow; font-size: 70px;'>正确! </span>","null","html-keyboard-response","162","462953","0.0-7.0-1.0-4.0-0.0-1.27","3","3","4","3","3","3","3","3","4","3","4","4","4","4","3","4","4","3","4","4","4","4","3","2","3","3","3","4","1","1","0","1","1","0","0","0","1","0","1","1","0","1","0","1","4","2","3","2","3","1","2","4","4","3","3","781945721594318849","钟","595","","","","","","","","","","","","","","","","","","","","","","","","","","","","","","feedback_test","","","","","","","","","","","",""
"771","","j","psychophysics","163","464729","0.0-7.0-1.0-4.0-0.0-0.28","3","3","4","3","3","3","3","3","4","3","4","4","4","4","3","4","4","3","4","4","4","4","3","2","3","3","3","4","1","1","0","1","1","0","0","0","1","0","1","1","0","1","0","1","4","2","3","2","3","1","2","4","4","3","3","781945721594318849","钟","595","","","","match","","","","","","","","","","","","","","key","j","8.351052380952474","853.3333333333334","529.3333333333334","j","true","match","img/hexagon.png","六边","六边","ALT1","formal_ALT1_2","","","","","","","","","","","",""
"null","<span style='color:GreenYellow; font-size: 70px;'>正确! </span>","null","html-keyboard-response","164","465233","0.0-7.0-1.0-4.0-0.0-1.28","3","3","4","3","3","3","3","3","4","3","4","4","4","4","3","4","4","3","4","4","4","4","3","2","3","3","3","4","1","1","0","1","1","0","0","0","1","0","1","1","0","1","0","1","4","2","3","2","3","1","2","4","4","3","3","781945721594318849","钟","595","","","","","","","","","","","","","","","","","","","","","","","","","","","","","","feedback_test","","","","","","","","","","","",""
"647","","f","psychophysics","165","466883","0.0-7.0-1.0-4.0-0.0-0.29","3","3","4","3","3","3","3","3","4","3","4","4","4","4","3","4","4","3","4","4","4","4","3","2","3","3","3","4","1","1","0","1","1","0","0","0","1","0","1","1","0","1","0","1","4","2","3","2","3","1","2","4","4","3","3","781945721594318849","钟","595","","","","nonmatch","","","","","","","","","","","","","","key","f","8.437381443298738","853.3333333333334","529.3333333333334","f","true","nonmatch","img/square.png","六边","方形","ALT1","formal_ALT1_2","","","","","","","","","","","",""
"null","<span style='color:GreenYellow; font-size: 70px;'>正确! </span>","null","html-keyboard-response","166","467387","0.0-7.0-1.0-4.0-0.0-1.29","3","3","4","3","3","3","3","3","4","3","4","4","4","4","3","4","4","3","4","4","4","4","3","2","3","3","3","4","1","1","0","1","1","0","0","0","1","0","1","1","0","1","0","1","4","2","3","2","3","1","2","4","4","3","3","781945721594318849","钟","595","","","","","","","","","","","","","","","","","","","","","","","","","","","","","","feedback_test","","","","","","","","","","","",""
"871","","f","psychophysics","167","469259","0.0-7.0-1.0-4.0-0.0-0.30","3","3","4","3","3","3","3","3","4","3","4","4","4","4","3","4","4","3","4","4","4","4","3","2","3","3","3","4","1","1","0","1","1","0","0","0","1","0","1","1","0","1","0","1","4","2","3","2","3","1","2","4","4","3","3","781945721594318849","钟","595","","","","nonmatch","","","","","","","","","","","","","","key","f","8.377959459459488","853.3333333333334","529.3333333333334","f","true","nonmatch","img/hexagon.png","梯形","六边","ALT1","formal_ALT1_2","","","","","","","","","","","",""
"null","<span style='color:GreenYellow; font-size: 70px;'>正确! </span>","null","html-keyboard-response","168","469764","0.0-7.0-1.0-4.0-0.0-1.30","3","3","4","3","3","3","3","3","4","3","4","4","4","4","3","4","4","3","4","4","4","4","3","2","3","3","3","4","1","1","0","1","1","0","0","0","1","0","1","1","0","1","0","1","4","2","3","2","3","1","2","4","4","3","3","781945721594318849","钟","595","","","","","","","","","","","","","","","","","","","","","","","","","","","","","","feedback_test","","","","","","","","","","","",""
"747","","f","psychophysics","169","471513","0.0-7.0-1.0-4.0-0.0-0.31","3","3","4","3","3","3","3","3","4","3","4","4","4","4","3","4","4","3","4","4","4","4","3","2","3","3","3","4","1","1","0","1","1","0","0","0","1","0","1","1","0","1","0","1","4","2","3","2","3","1","2","4","4","3","3","781945721594318849","钟","595","","","","nonmatch","","","","","","","","","","","","","","key","f","8.378203883495305","853.3333333333334","529.3333333333334","j","false","match","img/trapezoid.png","梯形","梯形","ALT1","formal_ALT1_2","","","","","","","","","","","",""
"null","<span style='color:red; font-size: 70px;'>错误! </span>","null","html-keyboard-response","170","472014","0.0-7.0-1.0-4.0-0.0-1.31","3","3","4","3","3","3","3","3","4","3","4","4","4","4","3","4","4","3","4","4","4","4","3","2","3","3","3","4","1","1","0","1","1","0","0","0","1","0","1","1","0","1","0","1","4","2","3","2","3","1","2","4","4","3","3","781945721594318849","钟","595","","","","","","","","","","","","","","","","","","","","","","","","","","","","","","feedback_test","","","","","","","","","","","",""
"748","","f","psychophysics","171","473768","0.0-7.0-1.0-4.0-0.0-0.32","3","3","4","3","3","3","3","3","4","3","4","4","4","4","3","4","4","3","4","4","4","4","3","2","3","3","3","4","1","1","0","1","1","0","0","0","1","0","1","1","0","1","0","1","4","2","3","2","3","1","2","4","4","3","3","781945721594318849","钟","595","","","","nonmatch","","","","","","","","","","","","","","key","f","8.351845410627995","853.3333333333334","529.3333333333334","f","true","nonmatch","img/square.png","梯形","方形","ALT1","formal_ALT1_2","","","","","","","","","","","",""
"null","<span style='color:GreenYellow; font-size: 70px;'>正确! </span>","null","html-keyboard-response","172","474270","0.0-7.0-1.0-4.0-0.0-1.32","3","3","4","3","3","3","3","3","4","3","4","4","4","4","3","4","4","3","4","4","4","4","3","2","3","3","3","4","1","1","0","1","1","0","0","0","1","0","1","1","0","1","0","1","4","2","3","2","3","1","2","4","4","3","3","781945721594318849","钟","595","","","","","","","","","","","","","","","","","","","","","","","","","","","","","","feedback_test","","","","","","","","","","","",""
"696","","j","psychophysics","173","475970","0.0-7.0-1.0-4.0-0.0-0.33","3","3","4","3","3","3","3","3","4","3","4","4","4","4","3","4","4","3","4","4","4","4","3","2","3","3","3","4","1","1","0","1","1","0","0","0","1","0","1","1","0","1","0","1","4","2","3","2","3","1","2","4","4","3","3","781945721594318849","钟","595","","","","match","","","","","","","","","","","","","","key","j","8.38544278606959","853.3333333333334","529.3333333333334","j","true","match","img/trapezoid.png","梯形","梯形","ALT1","formal_ALT1_2","","","","","","","","","","","",""
"null","<span style='color:GreenYellow; font-size: 70px;'>正确! </span>","null","html-keyboard-response","174","476473","0.0-7.0-1.0-4.0-0.0-1.33","3","3","4","3","3","3","3","3","4","3","4","4","4","4","3","4","4","3","4","4","4","4","3","2","3","3","3","4","1","1","0","1","1","0","0","0","1","0","1","1","0","1","0","1","4","2","3","2","3","1","2","4","4","3","3","781945721594318849","钟","595","","","","","","","","","","","","","","","","","","","","","","","","","","","","","","feedback_test","","","","","","","","","","","",""
"660","","f","psychophysics","175","478138","0.0-7.0-1.0-4.0-0.0-0.34","3","3","4","3","3","3","3","3","4","3","4","4","4","4","3","4","4","3","4","4","4","4","3","2","3","3","3","4","1","1","0","1","1","0","0","0","1","0","1","1","0","1","0","1","4","2","3","2","3","1","2","4","4","3","3","781945721594318849","钟","595","","","","nonmatch","","","","","","","","","","","","","","key","f","8.36745641025631","853.3333333333334","529.3333333333334","j","false","match","img/square.png","方形","方形","ALT1","formal_ALT1_2","","","","","","","","","","","",""
"null","<span style='color:red; font-size: 70px;'>错误! </span>","null","html-keyboard-response","176","478639","0.0-7.0-1.0-4.0-0.0-1.34","3","3","4","3","3","3","3","3","4","3","4","4","4","4","3","4","4","3","4","4","4","4","3","2","3","3","3","4","1","1","0","1","1","0","0","0","1","0","1","1","0","1","0","1","4","2","3","2","3","1","2","4","4","3","3","781945721594318849","钟","595","","","","","","","","","","","","","","","","","","","","","","","","","","","","","","feedback_test","","","","","","","","","","","",""
"842","","j","psychophysics","177","480483","0.0-7.0-1.0-4.0-0.0-0.35","3","3","4","3","3","3","3","3","4","3","4","4","4","4","3","4","4","3","4","4","4","4","3","2","3","3","3","4","1","1","0","1","1","0","0","0","1","0","1","1","0","1","0","1","4","2","3","2","3","1","2","4","4","3","3","781945721594318849","钟","595","","","","match","","","","","","","","","","","","","","key","j","8.38272477064224","853.3333333333334","529.3333333333334","j","true","match","img/hexagon.png","六边","六边","ALT1","formal_ALT1_2","","","","","","","","","","","",""
