"rt","stimulus","response","trial_type","trial_index","time_elapsed","internal_node_id","ses_1","ses_2","ses_3","ses_4","ses_5","ses_6","ses_7","ses_8","ses_9","ses_10","coreself_1","coreself_2","coreself_3","coreself_4","coreself_5","coreself_6","coreself_7","coreself_8","coreself_9","coreself_10","SGPS_1","SGPS_2","SGPS_3","SGPS_4","SGPS_5","SGPS_6","SGPS_7","SGPS_8","SGPS_9","NPI1","NPI2","NPI3","NPI4","NPI5","NPI6","NPI7","NPI8","NPI9","NPI10","NPI11","NPI12","NPI13","NPI14","NPI15","hsns_1","hsns_2","hsns_3","hsns_4","hsns_5","trap1","hsns_6","hsns_7","hsns_8","hsns_9","hsns_10","subj_idx","friend_name","ParticipantID","value","success","user_agent","responses","item_order","radio_event_ids","radio_event_times","key_event_times","mouse_event_times","straightlining","zigzagging","honeypot","timeout","failed_images","failed_audio","failed_video","view_history","response_type","key_press","avg_frame_time","center_x","center_y","correct_response","correct","identity","Image","word","condition","task_id","screen_id","time_stamp","version_attrib2","version_target2","IAT","RT","varname","summary","version_attrib","version_target","question_order","correct_answer","trap1_item"
"7485","
   <p><div style = ""color: white;font-size:25px;"">您好，欢迎参加本次实验。</div> </p>
   <p><div style = ""color: white;font-size:25px;"">为充分保障您的权利，请确保您已经知晓并同意《参与实验同意书》以及《数据公开知情同意书》。</div></p>
   <p><div style = ""color: white;font-size:25px;"">如果您未见过上述内容，请咨询实验员。</div></p>
   <p><div style = ""color: white;font-size:25px;"">如果您选择继续实验，则表示您已经清楚两份知情同意书的内容并同意。</div></p>
   <p><div style = ""color: pink;font-size:30px;"">请确保您记得day0的实验编号，您将在本次实验输入该编号，若您忘记，请咨询实验员后作答。</div></p>
   <p><div style = ""color: lightblue;font-size:25px;"">请您尽可能认真地作答，我们将依据您在各问卷和按键任务中的作答质量发放报酬。</div></p>
   <p> <div style = ""color: green;font-size:25px;""><按空格键至下页></div> </p>
   "," ","html-keyboard-response","0","7490","0.0-0.0","4","4","4","4","4","4","4","4","4","4","5","5","5","5","5","5","5","5","5","5","1","1","1","1","1","1","1","1","1","1","1","0","0","0","0","0","1","0","0","0","0","1","0","0","5","3","3","2","1","3","1","3","1","4","2","799649291374305282","刘","193","","","","","","","","","","","","","","","","","","","","","","","","","","","","","","","","","","","","","","","","","",""
"","","","call-function","1","7493","0.0-1.0-0.0","4","4","4","4","4","4","4","4","4","4","5","5","5","5","5","5","5","5","5","5","1","1","1","1","1","1","1","1","1","1","1","0","0","0","0","0","1","0","0","0","0","1","0","0","5","3","3","2","1","3","1","3","1","4","2","799649291374305282","刘","193","","","","","","","","","","","","","","","","","","","","","","","","","","","","","","","","","","","","","","","","","",""
"17777","","{""friend_name"":""刘"",""ParticipantID"":""193""}","survey-html-form","2","25274","0.0-1.0-1.0","4","4","4","4","4","4","4","4","4","4","5","5","5","5","5","5","5","5","5","5","1","1","1","1","1","1","1","1","1","1","1","0","0","0","0","0","1","0","0","0","0","1","0","0","5","3","3","2","1","3","1","3","1","4","2","799649291374305282","刘","193","","","","","","","","","","","","","","","","","","","","","","","","","","","","","","","","","","","","","","","","","",""
"","","","fullscreen","3","53616","0.0-2.0","4","4","4","4","4","4","4","4","4","4","5","5","5","5","5","5","5","5","5","5","1","1","1","1","1","1","1","1","1","1","1","0","0","0","0","0","1","0","0","0","0","1","0","0","5","3","3","2","1","3","1","3","1","4","2","799649291374305282","刘","193","","true","{}","","","","","","","","","","","","","","","","","","","","","","","","","","","","","","","","","","","","","","",""
"56060.300000190735","","{""Q01"":""4"",""Q02"":""4"",""Q03"":""4"",""Q04"":""4"",""Q05"":""4"",""Q06"":""4"",""Q07"":""4"",""Q08"":""4"",""Q09"":""4"",""Q10"":""4""}","survey-template","4","109688","0.0-3.0","4","4","4","4","4","4","4","4","4","4","5","5","5","5","5","5","5","5","5","5","1","1","1","1","1","1","1","1","1","1","1","0","0","0","0","0","1","0","0","0","0","1","0","0","5","3","3","2","1","3","1","3","1","4","2","799649291374305282","刘","193","","","","{""Q01"":""4"",""Q02"":""4"",""Q03"":""4"",""Q04"":""4"",""Q05"":""4"",""Q06"":""4"",""Q07"":""4"",""Q08"":""4"",""Q09"":""4"",""Q10"":""4""}","[0,1,2,3,4,5,6,7,8,9]","[""Q01"",""Q02"",""Q03"",""Q04"",""Q05"",""Q06"",""Q07"",""Q08"",""Q09"",""Q10""]","[6412.5,7640,9104.300000190735,29064.400000095367,30913.099999904633,38994.09999990463,40049.40000009537,42593.5,48236.7000002861,54768.2000002861]","[]","[6412.5,7640,9104.300000190735,29064.400000095367,30913.099999904633,38994.09999990463,40049.40000009537,42593.5,48236.7000002861,54768.2000002861,56056.90000009537]","0.5","0.5555555555555556","0","","","","","","","","","","","","","","","","","","","","","","","","","","","","","",""
"77974.80000019073","","{""Q01"":""5"",""Q02"":""5"",""Q03"":""5"",""Q04"":""5"",""Q05"":""5"",""Q06"":""5"",""Q07"":""5"",""Q08"":""5"",""Q09"":""5"",""Q10"":""5""}","survey-template","5","187677","0.0-4.0","4","4","4","4","4","4","4","4","4","4","5","5","5","5","5","5","5","5","5","5","1","1","1","1","1","1","1","1","1","1","1","0","0","0","0","0","1","0","0","0","0","1","0","0","5","3","3","2","1","3","1","3","1","4","2","799649291374305282","刘","193","","","","{""Q01"":""5"",""Q02"":""5"",""Q03"":""5"",""Q04"":""5"",""Q05"":""5"",""Q06"":""5"",""Q07"":""5"",""Q08"":""5"",""Q09"":""5"",""Q10"":""5""}","[0,1,2,3,4,5,6,7,8,9]","[""Q01"",""Q02"",""Q03"",""Q04"",""Q05"",""Q06"",""Q07"",""Q08"",""Q09"",""Q09"",""Q10""]","[2365.4000000953674,3792.5,4916,15516.700000286102,19574.10000038147,27469,34703.800000190735,37876.10000038147,62035.10000038147,74842.10000038147,76741.90000009537]","[]","[2365.4000000953674,3792.5,4916,15516.700000286102,19574.10000038147,27469,34703.800000190735,37876.10000038147,62035.10000038147,74842.10000038147,76741.90000009537,77971.7000002861]","0.6","0.7777777777777778","0","","","","","","","","","","","","","","","","","","","","","","","","","","","","","",""
"","","","preload","6","188169","0.0-5.0","4","4","4","4","4","4","4","4","4","4","5","5","5","5","5","5","5","5","5","5","1","1","1","1","1","1","1","1","1","1","1","0","0","0","0","0","1","0","0","0","0","1","0","0","5","3","3","2","1","3","1","3","1","4","2","799649291374305282","刘","193","","true","","","","","","","","","","","false","[]","[]","[]","","","","","","","","","","","","","","","","","","","","","","","","","",""
"41453","","","instructions","7","229628","0.0-6.0","4","4","4","4","4","4","4","4","4","4","5","5","5","5","5","5","5","5","5","5","1","1","1","1","1","1","1","1","1","1","1","0","0","0","0","0","1","0","0","0","0","1","0","0","5","3","3","2","1","3","1","3","1","4","2","799649291374305282","刘","193","","","","","","","","","","","","","","","","","[{""page_index"":0,""viewing_time"":41452}]","","","","","","","","","","","","","","","","","","","","","","","","",""
"33196","","","instructions","8","262831","0.0-7.0-1.0-0.0","4","4","4","4","4","4","4","4","4","4","5","5","5","5","5","5","5","5","5","5","1","1","1","1","1","1","1","1","1","1","1","0","0","0","0","0","1","0","0","0","0","1","0","0","5","3","3","2","1","3","1","3","1","4","2","799649291374305282","刘","193","","","","","","","","","","","","","","","","","[{""page_index"":0,""viewing_time"":15661},{""page_index"":1,""viewing_time"":14779},{""page_index"":2,""viewing_time"":2756}]","","","","","","","","","","","","","","","","","","","","","","","","",""
"811","","f","psychophysics","9","264649","0.0-7.0-1.0-1.0-0.0-0.0","4","4","4","4","4","4","4","4","4","4","5","5","5","5","5","5","5","5","5","5","1","1","1","1","1","1","1","1","1","1","1","0","0","0","0","0","1","0","0","0","0","1","0","0","5","3","3","2","1","3","1","3","1","4","2","799649291374305282","刘","193","","","","nonmatch","","","","","","","","","","","","","","key","f","16.668867924527973","720.2857142857143","476.2857142857143","j","false","match","img/pentagon.png","五边","五边","ALT1_2","prac_ALT1_2","","","","","","","","","","","",""
"null","<span style='color:red; font-size: 70px;'>错误! </span>","null","html-keyboard-response","10","265176","0.0-7.0-1.0-1.0-0.0-1.0","4","4","4","4","4","4","4","4","4","4","5","5","5","5","5","5","5","5","5","5","1","1","1","1","1","1","1","1","1","1","1","0","0","0","0","0","1","0","0","0","0","1","0","0","5","3","3","2","1","3","1","3","1","4","2","799649291374305282","刘","193","","","","","","","","","","","","","","","","","","","","","","","","","","","","","","feedback_test","","","","","","","","","","","",""
"686","","j","psychophysics","11","266881","0.0-7.0-1.0-1.0-0.0-0.1","4","4","4","4","4","4","4","4","4","4","5","5","5","5","5","5","5","5","5","5","1","1","1","1","1","1","1","1","1","1","1","0","0","0","0","0","1","0","0","0","0","1","0","0","5","3","3","2","1","3","1","3","1","4","2","799649291374305282","刘","193","","","","match","","","","","","","","","","","","","","key","j","16.667000000000115","720.2857142857143","476.2857142857143","j","true","match","img/square.png","方形","方形","ALT1_2","prac_ALT1_2","","","","","","","","","","","",""
"null","<span style='color:GreenYellow; font-size: 70px;'>正确! </span>","null","html-keyboard-response","12","267384","0.0-7.0-1.0-1.0-0.0-1.1","4","4","4","4","4","4","4","4","4","4","5","5","5","5","5","5","5","5","5","5","1","1","1","1","1","1","1","1","1","1","1","0","0","0","0","0","1","0","0","0","0","1","0","0","5","3","3","2","1","3","1","3","1","4","2","799649291374305282","刘","193","","","","","","","","","","","","","","","","","","","","","","","","","","","","","","feedback_test","","","","","","","","","","","",""
"943","","f","psychophysics","13","269331","0.0-7.0-1.0-1.0-0.0-0.2","4","4","4","4","4","4","4","4","4","4","5","5","5","5","5","5","5","5","5","5","1","1","1","1","1","1","1","1","1","1","1","0","0","0","0","0","1","0","0","0","0","1","0","0","5","3","3","2","1","3","1","3","1","4","2","799649291374305282","刘","193","","","","nonmatch","","","","","","","","","","","","","","key","f","16.665789473684416","720.2857142857143","476.2857142857143","f","true","nonmatch","img/square.png","五边","方形","ALT1_2","prac_ALT1_2","","","","","","","","","","","",""
"null","<span style='color:GreenYellow; font-size: 70px;'>正确! </span>","null","html-keyboard-response","14","269833","0.0-7.0-1.0-1.0-0.0-1.2","4","4","4","4","4","4","4","4","4","4","5","5","5","5","5","5","5","5","5","5","1","1","1","1","1","1","1","1","1","1","1","0","0","0","0","0","1","0","0","0","0","1","0","0","5","3","3","2","1","3","1","3","1","4","2","799649291374305282","刘","193","","","","","","","","","","","","","","","","","","","","","","","","","","","","","","feedback_test","","","","","","","","","","","",""
"821","","j","psychophysics","15","271657","0.0-7.0-1.0-1.0-0.0-0.3","4","4","4","4","4","4","4","4","4","4","5","5","5","5","5","5","5","5","5","5","1","1","1","1","1","1","1","1","1","1","1","0","0","0","0","0","1","0","0","0","0","1","0","0","5","3","3","2","1","3","1","3","1","4","2","799649291374305282","刘","193","","","","match","","","","","","","","","","","","","","key","j","16.66886792452852","720.2857142857143","476.2857142857143","j","true","match","img/pentagon.png","五边","五边","ALT1_2","prac_ALT1_2","","","","","","","","","","","",""
"null","<span style='color:GreenYellow; font-size: 70px;'>正确! </span>","null","html-keyboard-response","16","272165","0.0-7.0-1.0-1.0-0.0-1.3","4","4","4","4","4","4","4","4","4","4","5","5","5","5","5","5","5","5","5","5","1","1","1","1","1","1","1","1","1","1","1","0","0","0","0","0","1","0","0","0","0","1","0","0","5","3","3","2","1","3","1","3","1","4","2","799649291374305282","刘","193","","","","","","","","","","","","","","","","","","","","","","","","","","","","","","feedback_test","","","","","","","","","","","",""
"825","","j","psychophysics","17","274011","0.0-7.0-1.0-1.0-0.0-0.4","4","4","4","4","4","4","4","4","4","4","5","5","5","5","5","5","5","5","5","5","1","1","1","1","1","1","1","1","1","1","1","0","0","0","0","0","1","0","0","0","0","1","0","0","5","3","3","2","1","3","1","3","1","4","2","799649291374305282","刘","193","","","","match","","","","","","","","","","","","","","key","j","16.667289719625842","720.2857142857143","476.2857142857143","f","false","nonmatch","img/diamond.png","五边","菱形","ALT1_2","prac_ALT1_2","","","","","","","","","","","",""
"null","<span style='color:red; font-size: 70px;'>错误! </span>","null","html-keyboard-response","18","274513","0.0-7.0-1.0-1.0-0.0-1.4","4","4","4","4","4","4","4","4","4","4","5","5","5","5","5","5","5","5","5","5","1","1","1","1","1","1","1","1","1","1","1","0","0","0","0","0","1","0","0","0","0","1","0","0","5","3","3","2","1","3","1","3","1","4","2","799649291374305282","刘","193","","","","","","","","","","","","","","","","","","","","","","","","","","","","","","feedback_test","","","","","","","","","","","",""
"1103","","f","psychophysics","19","276621","0.0-7.0-1.0-1.0-0.0-0.5","4","4","4","4","4","4","4","4","4","4","5","5","5","5","5","5","5","5","5","5","1","1","1","1","1","1","1","1","1","1","1","0","0","0","0","0","1","0","0","0","0","1","0","0","5","3","3","2","1","3","1","3","1","4","2","799649291374305282","刘","193","","","","nonmatch","","","","","","","","","","","","","","key","f","16.667479674797033","720.2857142857143","476.2857142857143","f","true","nonmatch","img/pentagon.png","菱形","五边","ALT1_2","prac_ALT1_2","","","","","","","","","","","",""
"null","<span style='color:GreenYellow; font-size: 70px;'>正确! </span>","null","html-keyboard-response","20","277122","0.0-7.0-1.0-1.0-0.0-1.5","4","4","4","4","4","4","4","4","4","4","5","5","5","5","5","5","5","5","5","5","1","1","1","1","1","1","1","1","1","1","1","0","0","0","0","0","1","0","0","0","0","1","0","0","5","3","3","2","1","3","1","3","1","4","2","799649291374305282","刘","193","","","","","","","","","","","","","","","","","","","","","","","","","","","","","","feedback_test","","","","","","","","","","","",""
"887","","j","psychophysics","21","279014","0.0-7.0-1.0-1.0-0.0-0.6","4","4","4","4","4","4","4","4","4","4","5","5","5","5","5","5","5","5","5","5","1","1","1","1","1","1","1","1","1","1","1","0","0","0","0","0","1","0","0","0","0","1","0","0","5","3","3","2","1","3","1","3","1","4","2","799649291374305282","刘","193","","","","match","","","","","","","","","","","","","","key","j","16.66636363636353","720.2857142857143","476.2857142857143","j","true","match","img/diamond.png","菱形","菱形","ALT1_2","prac_ALT1_2","","","","","","","","","","","",""
"null","<span style='color:GreenYellow; font-size: 70px;'>正确! </span>","null","html-keyboard-response","22","279516","0.0-7.0-1.0-1.0-0.0-1.6","4","4","4","4","4","4","4","4","4","4","5","5","5","5","5","5","5","5","5","5","1","1","1","1","1","1","1","1","1","1","1","0","0","0","0","0","1","0","0","0","0","1","0","0","5","3","3","2","1","3","1","3","1","4","2","799649291374305282","刘","193","","","","","","","","","","","","","","","","","","","","","","","","","","","","","","feedback_test","","","","","","","","","","","",""
"758","","f","psychophysics","23","281278","0.0-7.0-1.0-1.0-0.0-0.7","4","4","4","4","4","4","4","4","4","4","5","5","5","5","5","5","5","5","5","5","1","1","1","1","1","1","1","1","1","1","1","0","0","0","0","0","1","0","0","0","0","1","0","0","5","3","3","2","1","3","1","3","1","4","2","799649291374305282","刘","193","","","","nonmatch","","","","","","","","","","","","","","key","f","16.665686274510033","720.2857142857143","476.2857142857143","f","true","nonmatch","img/square.png","椭圆","方形","ALT1_2","prac_ALT1_2","","","","","","","","","","","",""
"null","<span style='color:GreenYellow; font-size: 70px;'>正确! </span>","null","html-keyboard-response","24","281781","0.0-7.0-1.0-1.0-0.0-1.7","4","4","4","4","4","4","4","4","4","4","5","5","5","5","5","5","5","5","5","5","1","1","1","1","1","1","1","1","1","1","1","0","0","0","0","0","1","0","0","0","0","1","0","0","5","3","3","2","1","3","1","3","1","4","2","799649291374305282","刘","193","","","","","","","","","","","","","","","","","","","","","","","","","","","","","","feedback_test","","","","","","","","","","","",""
"751","","j","psychophysics","25","283535","0.0-7.0-1.0-1.0-0.0-0.8","4","4","4","4","4","4","4","4","4","4","5","5","5","5","5","5","5","5","5","5","1","1","1","1","1","1","1","1","1","1","1","0","0","0","0","0","1","0","0","0","0","1","0","0","5","3","3","2","1","3","1","3","1","4","2","799649291374305282","刘","193","","","","match","","","","","","","","","","","","","","key","j","16.66764705882387","720.2857142857143","476.2857142857143","j","true","match","img/pentagon.png","五边","五边","ALT1_2","prac_ALT1_2","","","","","","","","","","","",""
"null","<span style='color:GreenYellow; font-size: 70px;'>正确! </span>","null","html-keyboard-response","26","284045","0.0-7.0-1.0-1.0-0.0-1.8","4","4","4","4","4","4","4","4","4","4","5","5","5","5","5","5","5","5","5","5","1","1","1","1","1","1","1","1","1","1","1","0","0","0","0","0","1","0","0","0","0","1","0","0","5","3","3","2","1","3","1","3","1","4","2","799649291374305282","刘","193","","","","","","","","","","","","","","","","","","","","","","","","","","","","","","feedback_test","","","","","","","","","","","",""
"803","","j","psychophysics","27","285869","0.0-7.0-1.0-1.0-0.0-0.9","4","4","4","4","4","4","4","4","4","4","5","5","5","5","5","5","5","5","5","5","1","1","1","1","1","1","1","1","1","1","1","0","0","0","0","0","1","0","0","0","0","1","0","0","5","3","3","2","1","3","1","3","1","4","2","799649291374305282","刘","193","","","","match","","","","","","","","","","","","","","key","j","16.66792452830178","720.2857142857143","476.2857142857143","j","true","match","img/square.png","方形","方形","ALT1_2","prac_ALT1_2","","","","","","","","","","","",""
"null","<span style='color:GreenYellow; font-size: 70px;'>正确! </span>","null","html-keyboard-response","28","286372","0.0-7.0-1.0-1.0-0.0-1.9","4","4","4","4","4","4","4","4","4","4","5","5","5","5","5","5","5","5","5","5","1","1","1","1","1","1","1","1","1","1","1","0","0","0","0","0","1","0","0","0","0","1","0","0","5","3","3","2","1","3","1","3","1","4","2","799649291374305282","刘","193","","","","","","","","","","","","","","","","","","","","","","","","","","","","","","feedback_test","","","","","","","","","","","",""
"808","","f","psychophysics","29","288183","0.0-7.0-1.0-1.0-0.0-0.10","4","4","4","4","4","4","4","4","4","4","5","5","5","5","5","5","5","5","5","5","1","1","1","1","1","1","1","1","1","1","1","0","0","0","0","0","1","0","0","0","0","1","0","0","5","3","3","2","1","3","1","3","1","4","2","799649291374305282","刘","193","","","","nonmatch","","","","","","","","","","","","","","key","f","16.665714285714508","720.2857142857143","476.2857142857143","f","true","nonmatch","img/ellipse.png","五边","椭圆","ALT1_2","prac_ALT1_2","","","","","","","","","","","",""
"null","<span style='color:GreenYellow; font-size: 70px;'>正确! </span>","null","html-keyboard-response","30","288686","0.0-7.0-1.0-1.0-0.0-1.10","4","4","4","4","4","4","4","4","4","4","5","5","5","5","5","5","5","5","5","5","1","1","1","1","1","1","1","1","1","1","1","0","0","0","0","0","1","0","0","0","0","1","0","0","5","3","3","2","1","3","1","3","1","4","2","799649291374305282","刘","193","","","","","","","","","","","","","","","","","","","","","","","","","","","","","","feedback_test","","","","","","","","","","","",""
"834","","f","psychophysics","31","290523","0.0-7.0-1.0-1.0-0.0-0.11","4","4","4","4","4","4","4","4","4","4","5","5","5","5","5","5","5","5","5","5","1","1","1","1","1","1","1","1","1","1","1","0","0","0","0","0","1","0","0","0","0","1","0","0","5","3","3","2","1","3","1","3","1","4","2","799649291374305282","刘","193","","","","nonmatch","","","","","","","","","","","","","","key","f","16.667289719626385","720.2857142857143","476.2857142857143","f","true","nonmatch","img/pentagon.png","椭圆","五边","ALT1_2","prac_ALT1_2","","","","","","","","","","","",""
"null","<span style='color:GreenYellow; font-size: 70px;'>正确! </span>","null","html-keyboard-response","32","291035","0.0-7.0-1.0-1.0-0.0-1.11","4","4","4","4","4","4","4","4","4","4","5","5","5","5","5","5","5","5","5","5","1","1","1","1","1","1","1","1","1","1","1","0","0","0","0","0","1","0","0","0","0","1","0","0","5","3","3","2","1","3","1","3","1","4","2","799649291374305282","刘","193","","","","","","","","","","","","","","","","","","","","","","","","","","","","","","feedback_test","","","","","","","","","","","",""
"805","","f","psychophysics","33","292859","0.0-7.0-1.0-1.0-0.0-0.12","4","4","4","4","4","4","4","4","4","4","5","5","5","5","5","5","5","5","5","5","1","1","1","1","1","1","1","1","1","1","1","0","0","0","0","0","1","0","0","0","0","1","0","0","5","3","3","2","1","3","1","3","1","4","2","799649291374305282","刘","193","","","","nonmatch","","","","","","","","","","","","","","key","f","16.66886792452852","720.2857142857143","476.2857142857143","f","true","nonmatch","img/diamond.png","椭圆","菱形","ALT1_2","prac_ALT1_2","","","","","","","","","","","",""
"null","<span style='color:GreenYellow; font-size: 70px;'>正确! </span>","null","html-keyboard-response","34","293361","0.0-7.0-1.0-1.0-0.0-1.12","4","4","4","4","4","4","4","4","4","4","5","5","5","5","5","5","5","5","5","5","1","1","1","1","1","1","1","1","1","1","1","0","0","0","0","0","1","0","0","0","0","1","0","0","5","3","3","2","1","3","1","3","1","4","2","799649291374305282","刘","193","","","","","","","","","","","","","","","","","","","","","","","","","","","","","","feedback_test","","","","","","","","","","","",""
"777","","f","psychophysics","35","295141","0.0-7.0-1.0-1.0-0.0-0.13","4","4","4","4","4","4","4","4","4","4","5","5","5","5","5","5","5","5","5","5","1","1","1","1","1","1","1","1","1","1","1","0","0","0","0","0","1","0","0","0","0","1","0","0","5","3","3","2","1","3","1","3","1","4","2","799649291374305282","刘","193","","","","nonmatch","","","","","","","","","","","","","","key","f","16.667961165048997","720.2857142857143","476.2857142857143","f","true","nonmatch","img/ellipse.png","方形","椭圆","ALT1_2","prac_ALT1_2","","","","","","","","","","","",""
"null","<span style='color:GreenYellow; font-size: 70px;'>正确! </span>","null","html-keyboard-response","36","295643","0.0-7.0-1.0-1.0-0.0-1.13","4","4","4","4","4","4","4","4","4","4","5","5","5","5","5","5","5","5","5","5","1","1","1","1","1","1","1","1","1","1","1","0","0","0","0","0","1","0","0","0","0","1","0","0","5","3","3","2","1","3","1","3","1","4","2","799649291374305282","刘","193","","","","","","","","","","","","","","","","","","","","","","","","","","","","","","feedback_test","","","","","","","","","","","",""
"985","","j","psychophysics","37","297631","0.0-7.0-1.0-1.0-0.0-0.14","4","4","4","4","4","4","4","4","4","4","5","5","5","5","5","5","5","5","5","5","1","1","1","1","1","1","1","1","1","1","1","0","0","0","0","0","1","0","0","0","0","1","0","0","5","3","3","2","1","3","1","3","1","4","2","799649291374305282","刘","193","","","","match","","","","","","","","","","","","","","key","j","16.66810344827586","720.2857142857143","476.2857142857143","j","true","match","img/diamond.png","菱形","菱形","ALT1_2","prac_ALT1_2","","","","","","","","","","","",""
"null","<span style='color:GreenYellow; font-size: 70px;'>正确! </span>","null","html-keyboard-response","38","298178","0.0-7.0-1.0-1.0-0.0-1.14","4","4","4","4","4","4","4","4","4","4","5","5","5","5","5","5","5","5","5","5","1","1","1","1","1","1","1","1","1","1","1","0","0","0","0","0","1","0","0","0","0","1","0","0","5","3","3","2","1","3","1","3","1","4","2","799649291374305282","刘","193","","","","","","","","","","","","","","","","","","","","","","","","","","","","","","feedback_test","","","","","","","","","","","",""
"780","","j","psychophysics","39","299975","0.0-7.0-1.0-1.0-0.0-0.15","4","4","4","4","4","4","4","4","4","4","5","5","5","5","5","5","5","5","5","5","1","1","1","1","1","1","1","1","1","1","1","0","0","0","0","0","1","0","0","0","0","1","0","0","5","3","3","2","1","3","1","3","1","4","2","799649291374305282","刘","193","","","","match","","","","","","","","","","","","","","key","j","16.667307692307357","720.2857142857143","476.2857142857143","j","true","match","img/ellipse.png","椭圆","椭圆","ALT1_2","prac_ALT1_2","","","","","","","","","","","",""
"null","<span style='color:GreenYellow; font-size: 70px;'>正确! </span>","null","html-keyboard-response","40","300477","0.0-7.0-1.0-1.0-0.0-1.15","4","4","4","4","4","4","4","4","4","4","5","5","5","5","5","5","5","5","5","5","1","1","1","1","1","1","1","1","1","1","1","0","0","0","0","0","1","0","0","0","0","1","0","0","5","3","3","2","1","3","1","3","1","4","2","799649291374305282","刘","193","","","","","","","","","","","","","","","","","","","","","","","","","","","","","","feedback_test","","","","","","","","","","","",""
"852","","j","psychophysics","41","302332","0.0-7.0-1.0-1.0-0.0-0.16","4","4","4","4","4","4","4","4","4","4","5","5","5","5","5","5","5","5","5","5","1","1","1","1","1","1","1","1","1","1","1","0","0","0","0","0","1","0","0","0","0","1","0","0","5","3","3","2","1","3","1","3","1","4","2","799649291374305282","刘","193","","","","match","","","","","","","","","","","","","","key","j","16.666972477064327","720.2857142857143","476.2857142857143","j","true","match","img/ellipse.png","椭圆","椭圆","ALT1_2","prac_ALT1_2","","","","","","","","","","","",""
"null","<span style='color:GreenYellow; font-size: 70px;'>正确! </span>","null","html-keyboard-response","42","302835","0.0-7.0-1.0-1.0-0.0-1.16","4","4","4","4","4","4","4","4","4","4","5","5","5","5","5","5","5","5","5","5","1","1","1","1","1","1","1","1","1","1","1","0","0","0","0","0","1","0","0","0","0","1","0","0","5","3","3","2","1","3","1","3","1","4","2","799649291374305282","刘","193","","","","","","","","","","","","","","","","","","","","","","","","","","","","","","feedback_test","","","","","","","","","","","",""
"646","","f","psychophysics","43","304483","0.0-7.0-1.0-1.0-0.0-0.17","4","4","4","4","4","4","4","4","4","4","5","5","5","5","5","5","5","5","5","5","1","1","1","1","1","1","1","1","1","1","1","0","0","0","0","0","1","0","0","0","0","1","0","0","5","3","3","2","1","3","1","3","1","4","2","799649291374305282","刘","193","","","","nonmatch","","","","","","","","","","","","","","key","f","16.667708333333696","720.2857142857143","476.2857142857143","f","true","nonmatch","img/ellipse.png","菱形","椭圆","ALT1_2","prac_ALT1_2","","","","","","","","","","","",""
"null","<span style='color:GreenYellow; font-size: 70px;'>正确! </span>","null","html-keyboard-response","44","305014","0.0-7.0-1.0-1.0-0.0-1.17","4","4","4","4","4","4","4","4","4","4","5","5","5","5","5","5","5","5","5","5","1","1","1","1","1","1","1","1","1","1","1","0","0","0","0","0","1","0","0","0","0","1","0","0","5","3","3","2","1","3","1","3","1","4","2","799649291374305282","刘","193","","","","","","","","","","","","","","","","","","","","","","","","","","","","","","feedback_test","","","","","","","","","","","",""
"941","","f","psychophysics","45","306976","0.0-7.0-1.0-1.0-0.0-0.18","4","4","4","4","4","4","4","4","4","4","5","5","5","5","5","5","5","5","5","5","1","1","1","1","1","1","1","1","1","1","1","0","0","0","0","0","1","0","0","0","0","1","0","0","5","3","3","2","1","3","1","3","1","4","2","799649291374305282","刘","193","","","","nonmatch","","","","","","","","","","","","","","key","f","16.665789473683905","720.2857142857143","476.2857142857143","f","true","nonmatch","img/diamond.png","方形","菱形","ALT1_2","prac_ALT1_2","","","","","","","","","","","",""
"null","<span style='color:GreenYellow; font-size: 70px;'>正确! </span>","null","html-keyboard-response","46","307479","0.0-7.0-1.0-1.0-0.0-1.18","4","4","4","4","4","4","4","4","4","4","5","5","5","5","5","5","5","5","5","5","1","1","1","1","1","1","1","1","1","1","1","0","0","0","0","0","1","0","0","0","0","1","0","0","5","3","3","2","1","3","1","3","1","4","2","799649291374305282","刘","193","","","","","","","","","","","","","","","","","","","","","","","","","","","","","","feedback_test","","","","","","","","","","","",""
"892","","f","psychophysics","47","309373","0.0-7.0-1.0-1.0-0.0-0.19","4","4","4","4","4","4","4","4","4","4","5","5","5","5","5","5","5","5","5","5","1","1","1","1","1","1","1","1","1","1","1","0","0","0","0","0","1","0","0","0","0","1","0","0","5","3","3","2","1","3","1","3","1","4","2","799649291374305282","刘","193","","","","nonmatch","","","","","","","","","","","","","","key","f","16.66636363636353","720.2857142857143","476.2857142857143","f","true","nonmatch","img/pentagon.png","方形","五边","ALT1_2","prac_ALT1_2","","","","","","","","","","","",""
"null","<span style='color:GreenYellow; font-size: 70px;'>正确! </span>","null","html-keyboard-response","48","309876","0.0-7.0-1.0-1.0-0.0-1.19","4","4","4","4","4","4","4","4","4","4","5","5","5","5","5","5","5","5","5","5","1","1","1","1","1","1","1","1","1","1","1","0","0","0","0","0","1","0","0","0","0","1","0","0","5","3","3","2","1","3","1","3","1","4","2","799649291374305282","刘","193","","","","","","","","","","","","","","","","","","","","","","","","","","","","","","feedback_test","","","","","","","","","","","",""
"696","","j","psychophysics","49","311574","0.0-7.0-1.0-1.0-0.0-0.20","4","4","4","4","4","4","4","4","4","4","5","5","5","5","5","5","5","5","5","5","1","1","1","1","1","1","1","1","1","1","1","0","0","0","0","0","1","0","0","0","0","1","0","0","5","3","3","2","1","3","1","3","1","4","2","799649291374305282","刘","193","","","","match","","","","","","","","","","","","","","key","j","16.668367346938776","720.2857142857143","476.2857142857143","j","true","match","img/ellipse.png","椭圆","椭圆","ALT1_2","prac_ALT1_2","","","","","","","","","","","",""
"null","<span style='color:GreenYellow; font-size: 70px;'>正确! </span>","null","html-keyboard-response","50","312094","0.0-7.0-1.0-1.0-0.0-1.20","4","4","4","4","4","4","4","4","4","4","5","5","5","5","5","5","5","5","5","5","1","1","1","1","1","1","1","1","1","1","1","0","0","0","0","0","1","0","0","0","0","1","0","0","5","3","3","2","1","3","1","3","1","4","2","799649291374305282","刘","193","","","","","","","","","","","","","","","","","","","","","","","","","","","","","","feedback_test","","","","","","","","","","","",""
"807","","f","psychophysics","51","313927","0.0-7.0-1.0-1.0-0.0-0.21","4","4","4","4","4","4","4","4","4","4","5","5","5","5","5","5","5","5","5","5","1","1","1","1","1","1","1","1","1","1","1","0","0","0","0","0","1","0","0","0","0","1","0","0","5","3","3","2","1","3","1","3","1","4","2","799649291374305282","刘","193","","","","nonmatch","","","","","","","","","","","","","","key","f","16.667289719626385","720.2857142857143","476.2857142857143","f","true","nonmatch","img/square.png","菱形","方形","ALT1_2","prac_ALT1_2","","","","","","","","","","","",""
"null","<span style='color:GreenYellow; font-size: 70px;'>正确! </span>","null","html-keyboard-response","52","314429","0.0-7.0-1.0-1.0-0.0-1.21","4","4","4","4","4","4","4","4","4","4","5","5","5","5","5","5","5","5","5","5","1","1","1","1","1","1","1","1","1","1","1","0","0","0","0","0","1","0","0","0","0","1","0","0","5","3","3","2","1","3","1","3","1","4","2","799649291374305282","刘","193","","","","","","","","","","","","","","","","","","","","","","","","","","","","","","feedback_test","","","","","","","","","","","",""
"620","","j","psychophysics","53","316052","0.0-7.0-1.0-1.0-0.0-0.22","4","4","4","4","4","4","4","4","4","4","5","5","5","5","5","5","5","5","5","5","1","1","1","1","1","1","1","1","1","1","1","0","0","0","0","0","1","0","0","0","0","1","0","0","5","3","3","2","1","3","1","3","1","4","2","799649291374305282","刘","193","","","","match","","","","","","","","","","","","","","key","j","16.66842105263158","720.2857142857143","476.2857142857143","j","true","match","img/square.png","方形","方形","ALT1_2","prac_ALT1_2","","","","","","","","","","","",""
"null","<span style='color:GreenYellow; font-size: 70px;'>正确! </span>","null","html-keyboard-response","54","316555","0.0-7.0-1.0-1.0-0.0-1.22","4","4","4","4","4","4","4","4","4","4","5","5","5","5","5","5","5","5","5","5","1","1","1","1","1","1","1","1","1","1","1","0","0","0","0","0","1","0","0","0","0","1","0","0","5","3","3","2","1","3","1","3","1","4","2","799649291374305282","刘","193","","","","","","","","","","","","","","","","","","","","","","","","","","","","","","feedback_test","","","","","","","","","","","",""
"865","","j","psychophysics","55","318423","0.0-7.0-1.0-1.0-0.0-0.23","4","4","4","4","4","4","4","4","4","4","5","5","5","5","5","5","5","5","5","5","1","1","1","1","1","1","1","1","1","1","1","0","0","0","0","0","1","0","0","0","0","1","0","0","5","3","3","2","1","3","1","3","1","4","2","799649291374305282","刘","193","","","","match","","","","","","","","","","","","","","key","j","16.665740740740418","720.2857142857143","476.2857142857143","j","true","match","img/diamond.png","菱形","菱形","ALT1_2","prac_ALT1_2","","","","","","","","","","","",""
"null","<span style='color:GreenYellow; font-size: 70px;'>正确! </span>","null","html-keyboard-response","56","318925","0.0-7.0-1.0-1.0-0.0-1.23","4","4","4","4","4","4","4","4","4","4","5","5","5","5","5","5","5","5","5","5","1","1","1","1","1","1","1","1","1","1","1","0","0","0","0","0","1","0","0","0","0","1","0","0","5","3","3","2","1","3","1","3","1","4","2","799649291374305282","刘","193","","","","","","","","","","","","","","","","","","","","","","","","","","","","","","feedback_test","","","","","","","","","","","",""
"727","","f","psychophysics","57","320659","0.0-7.0-1.0-1.0-0.0-0.24","4","4","4","4","4","4","4","4","4","4","5","5","5","5","5","5","5","5","5","5","1","1","1","1","1","1","1","1","1","1","1","0","0","0","0","0","1","0","0","0","0","1","0","0","5","3","3","2","1","3","1","3","1","4","2","799649291374305282","刘","193","","","","nonmatch","","","","","","","","","","","","","","key","f","16.667326732673498","720.2857142857143","476.2857142857143","f","true","nonmatch","img/pentagon.png","方形","五边","ALT1_2","prac_ALT1_2","","","","","","","","","","","",""
"null","<span style='color:GreenYellow; font-size: 70px;'>正确! </span>","null","html-keyboard-response","58","321161","0.0-7.0-1.0-1.0-0.0-1.24","4","4","4","4","4","4","4","4","4","4","5","5","5","5","5","5","5","5","5","5","1","1","1","1","1","1","1","1","1","1","1","0","0","0","0","0","1","0","0","0","0","1","0","0","5","3","3","2","1","3","1","3","1","4","2","799649291374305282","刘","193","","","","","","","","","","","","","","","","","","","","","","","","","","","","","","feedback_test","","","","","","","","","","","",""
"635","","j","psychophysics","59","322799","0.0-7.0-1.0-1.0-0.0-0.25","4","4","4","4","4","4","4","4","4","4","5","5","5","5","5","5","5","5","5","5","1","1","1","1","1","1","1","1","1","1","1","0","0","0","0","0","1","0","0","0","0","1","0","0","5","3","3","2","1","3","1","3","1","4","2","799649291374305282","刘","193","","","","match","","","","","","","","","","","","","","key","j","16.667021276595868","720.2857142857143","476.2857142857143","j","true","match","img/diamond.png","菱形","菱形","ALT1_2","prac_ALT1_2","","","","","","","","","","","",""
"null","<span style='color:GreenYellow; font-size: 70px;'>正确! </span>","null","html-keyboard-response","60","323301","0.0-7.0-1.0-1.0-0.0-1.25","4","4","4","4","4","4","4","4","4","4","5","5","5","5","5","5","5","5","5","5","1","1","1","1","1","1","1","1","1","1","1","0","0","0","0","0","1","0","0","0","0","1","0","0","5","3","3","2","1","3","1","3","1","4","2","799649291374305282","刘","193","","","","","","","","","","","","","","","","","","","","","","","","","","","","","","feedback_test","","","","","","","","","","","",""
"735","","j","psychophysics","61","325039","0.0-7.0-1.0-1.0-0.0-0.26","4","4","4","4","4","4","4","4","4","4","5","5","5","5","5","5","5","5","5","5","1","1","1","1","1","1","1","1","1","1","1","0","0","0","0","0","1","0","0","0","0","1","0","0","5","3","3","2","1","3","1","3","1","4","2","799649291374305282","刘","193","","","","match","","","","","","","","","","","","","","key","j","16.663366336633665","720.2857142857143","476.2857142857143","j","true","match","img/ellipse.png","椭圆","椭圆","ALT1_2","prac_ALT1_2","","","","","","","","","","","",""
"null","<span style='color:GreenYellow; font-size: 70px;'>正确! </span>","null","html-keyboard-response","62","325541","0.0-7.0-1.0-1.0-0.0-1.26","4","4","4","4","4","4","4","4","4","4","5","5","5","5","5","5","5","5","5","5","1","1","1","1","1","1","1","1","1","1","1","0","0","0","0","0","1","0","0","0","0","1","0","0","5","3","3","2","1","3","1","3","1","4","2","799649291374305282","刘","193","","","","","","","","","","","","","","","","","","","","","","","","","","","","","","feedback_test","","","","","","","","","","","",""
"1150","","f","psychophysics","63","327708","0.0-7.0-1.0-1.0-0.0-0.27","4","4","4","4","4","4","4","4","4","4","5","5","5","5","5","5","5","5","5","5","1","1","1","1","1","1","1","1","1","1","1","0","0","0","0","0","1","0","0","0","0","1","0","0","5","3","3","2","1","3","1","3","1","4","2","799649291374305282","刘","193","","","","nonmatch","","","","","","","","","","","","","","key","f","16.668503937008058","720.2857142857143","476.2857142857143","f","true","nonmatch","img/diamond.png","方形","菱形","ALT1_2","prac_ALT1_2","","","","","","","","","","","",""
"null","<span style='color:GreenYellow; font-size: 70px;'>正确! </span>","null","html-keyboard-response","64","328211","0.0-7.0-1.0-1.0-0.0-1.27","4","4","4","4","4","4","4","4","4","4","5","5","5","5","5","5","5","5","5","5","1","1","1","1","1","1","1","1","1","1","1","0","0","0","0","0","1","0","0","0","0","1","0","0","5","3","3","2","1","3","1","3","1","4","2","799649291374305282","刘","193","","","","","","","","","","","","","","","","","","","","","","","","","","","","","","feedback_test","","","","","","","","","","","",""
"832","","f","psychophysics","65","330044","0.0-7.0-1.0-1.0-0.0-0.28","4","4","4","4","4","4","4","4","4","4","5","5","5","5","5","5","5","5","5","5","1","1","1","1","1","1","1","1","1","1","1","0","0","0","0","0","1","0","0","0","0","1","0","0","5","3","3","2","1","3","1","3","1","4","2","799649291374305282","刘","193","","","","nonmatch","","","","","","","","","","","","","","key","f","16.667289719625842","720.2857142857143","476.2857142857143","f","true","nonmatch","img/ellipse.png","方形","椭圆","ALT1_2","prac_ALT1_2","","","","","","","","","","","",""
"null","<span style='color:GreenYellow; font-size: 70px;'>正确! </span>","null","html-keyboard-response","66","330546","0.0-7.0-1.0-1.0-0.0-1.28","4","4","4","4","4","4","4","4","4","4","5","5","5","5","5","5","5","5","5","5","1","1","1","1","1","1","1","1","1","1","1","0","0","0","0","0","1","0","0","0","0","1","0","0","5","3","3","2","1","3","1","3","1","4","2","799649291374305282","刘","193","","","","","","","","","","","","","","","","","","","","","","","","","","","","","","feedback_test","","","","","","","","","","","",""
"944","","f","psychophysics","67","332493","0.0-7.0-1.0-1.0-0.0-0.29","4","4","4","4","4","4","4","4","4","4","5","5","5","5","5","5","5","5","5","5","1","1","1","1","1","1","1","1","1","1","1","0","0","0","0","0","1","0","0","0","0","1","0","0","5","3","3","2","1","3","1","3","1","4","2","799649291374305282","刘","193","","","","nonmatch","","","","","","","","","","","","","","key","f","16.667543859649427","720.2857142857143","476.2857142857143","f","true","nonmatch","img/pentagon.png","椭圆","五边","ALT1_2","prac_ALT1_2","","","","","","","","","","","",""
"null","<span style='color:GreenYellow; font-size: 70px;'>正确! </span>","null","html-keyboard-response","68","333010","0.0-7.0-1.0-1.0-0.0-1.29","4","4","4","4","4","4","4","4","4","4","5","5","5","5","5","5","5","5","5","5","1","1","1","1","1","1","1","1","1","1","1","0","0","0","0","0","1","0","0","0","0","1","0","0","5","3","3","2","1","3","1","3","1","4","2","799649291374305282","刘","193","","","","","","","","","","","","","","","","","","","","","","","","","","","","","","feedback_test","","","","","","","","","","","",""
"849","","j","psychophysics","69","334877","0.0-7.0-1.0-1.0-0.0-0.30","4","4","4","4","4","4","4","4","4","4","5","5","5","5","5","5","5","5","5","5","1","1","1","1","1","1","1","1","1","1","1","0","0","0","0","0","1","0","0","0","0","1","0","0","5","3","3","2","1","3","1","3","1","4","2","799649291374305282","刘","193","","","","match","","","","","","","","","","","","","","key","j","16.670370370370588","720.2857142857143","476.2857142857143","j","true","match","img/pentagon.png","五边","五边","ALT1_2","prac_ALT1_2","","","","","","","","","","","",""
"null","<span style='color:GreenYellow; font-size: 70px;'>正确! </span>","null","html-keyboard-response","70","335379","0.0-7.0-1.0-1.0-0.0-1.30","4","4","4","4","4","4","4","4","4","4","5","5","5","5","5","5","5","5","5","5","1","1","1","1","1","1","1","1","1","1","1","0","0","0","0","0","1","0","0","0","0","1","0","0","5","3","3","2","1","3","1","3","1","4","2","799649291374305282","刘","193","","","","","","","","","","","","","","","","","","","","","","","","","","","","","","feedback_test","","","","","","","","","","","",""
"817","","j","psychophysics","71","337201","0.0-7.0-1.0-1.0-0.0-0.31","4","4","4","4","4","4","4","4","4","4","5","5","5","5","5","5","5","5","5","5","1","1","1","1","1","1","1","1","1","1","1","0","0","0","0","0","1","0","0","0","0","1","0","0","5","3","3","2","1","3","1","3","1","4","2","799649291374305282","刘","193","","","","match","","","","","","","","","","","","","","key","j","16.666355140186806","720.2857142857143","476.2857142857143","j","true","match","img/pentagon.png","五边","五边","ALT1_2","prac_ALT1_2","","","","","","","","","","","",""
"null","<span style='color:GreenYellow; font-size: 70px;'>正确! </span>","null","html-keyboard-response","72","337703","0.0-7.0-1.0-1.0-0.0-1.31","4","4","4","4","4","4","4","4","4","4","5","5","5","5","5","5","5","5","5","5","1","1","1","1","1","1","1","1","1","1","1","0","0","0","0","0","1","0","0","0","0","1","0","0","5","3","3","2","1","3","1","3","1","4","2","799649291374305282","刘","193","","","","","","","","","","","","","","","","","","","","","","","","","","","","","","feedback_test","","","","","","","","","","","",""
"754","","j","psychophysics","73","339460","0.0-7.0-1.0-1.0-0.0-0.32","4","4","4","4","4","4","4","4","4","4","5","5","5","5","5","5","5","5","5","5","1","1","1","1","1","1","1","1","1","1","1","0","0","0","0","0","1","0","0","0","0","1","0","0","5","3","3","2","1","3","1","3","1","4","2","799649291374305282","刘","193","","","","match","","","","","","","","","","","","","","key","j","16.668627450980505","720.2857142857143","476.2857142857143","j","true","match","img/pentagon.png","五边","五边","ALT1_2","prac_ALT1_2","","","","","","","","","","","",""
"null","<span style='color:GreenYellow; font-size: 70px;'>正确! </span>","null","html-keyboard-response","74","339970","0.0-7.0-1.0-1.0-0.0-1.32","4","4","4","4","4","4","4","4","4","4","5","5","5","5","5","5","5","5","5","5","1","1","1","1","1","1","1","1","1","1","1","0","0","0","0","0","1","0","0","0","0","1","0","0","5","3","3","2","1","3","1","3","1","4","2","799649291374305282","刘","193","","","","","","","","","","","","","","","","","","","","","","","","","","","","","","feedback_test","","","","","","","","","","","",""
"713","","f","psychophysics","75","341702","0.0-7.0-1.0-1.0-0.0-0.33","4","4","4","4","4","4","4","4","4","4","5","5","5","5","5","5","5","5","5","5","1","1","1","1","1","1","1","1","1","1","1","0","0","0","0","0","1","0","0","0","0","1","0","0","5","3","3","2","1","3","1","3","1","4","2","799649291374305282","刘","193","","","","nonmatch","","","","","","","","","","","","","","key","f","16.666336633663253","720.2857142857143","476.2857142857143","f","true","nonmatch","img/ellipse.png","五边","椭圆","ALT1_2","prac_ALT1_2","","","","","","","","","","","",""
"null","<span style='color:GreenYellow; font-size: 70px;'>正确! </span>","null","html-keyboard-response","76","342204","0.0-7.0-1.0-1.0-0.0-1.33","4","4","4","4","4","4","4","4","4","4","5","5","5","5","5","5","5","5","5","5","1","1","1","1","1","1","1","1","1","1","1","0","0","0","0","0","1","0","0","0","0","1","0","0","5","3","3","2","1","3","1","3","1","4","2","799649291374305282","刘","193","","","","","","","","","","","","","","","","","","","","","","","","","","","","","","feedback_test","","","","","","","","","","","",""
"null","","null","psychophysics","77","344455","0.0-7.0-1.0-1.0-0.0-0.34","4","4","4","4","4","4","4","4","4","4","5","5","5","5","5","5","5","5","5","5","1","1","1","1","1","1","1","1","1","1","1","0","0","0","0","0","1","0","0","0","0","1","0","0","5","3","3","2","1","3","1","3","1","4","2","799649291374305282","刘","193","","","","null","","","","","","","","","","","","","","key","null","16.665909090908826","720.2857142857143","476.2857142857143","j","false","match","img/diamond.png","菱形","菱形","ALT1_2","prac_ALT1_2","","","","","","","","","","","",""
"null","<span class='add_' style='color:yellow; font-size: 70px;'> 太慢! </span>","null","html-keyboard-response","78","344958","0.0-7.0-1.0-1.0-0.0-1.34","4","4","4","4","4","4","4","4","4","4","5","5","5","5","5","5","5","5","5","5","1","1","1","1","1","1","1","1","1","1","1","0","0","0","0","0","1","0","0","0","0","1","0","0","5","3","3","2","1","3","1","3","1","4","2","799649291374305282","刘","193","","","","","","","","","","","","","","","","","","","","","","","","","","","","","","feedback_test","","","","","","","","","","","",""
"648","","j","psychophysics","79","346608","0.0-7.0-1.0-1.0-0.0-0.35","4","4","4","4","4","4","4","4","4","4","5","5","5","5","5","5","5","5","5","5","1","1","1","1","1","1","1","1","1","1","1","0","0","0","0","0","1","0","0","0","0","1","0","0","5","3","3","2","1","3","1","3","1","4","2","799649291374305282","刘","193","","","","match","","","","","","","","","","","","","","key","j","16.671428571428454","720.2857142857143","476.2857142857143","j","true","match","img/square.png","方形","方形","ALT1_2","prac_ALT1_2","","","","","","","","","","","",""
"null","<span style='color:GreenYellow; font-size: 70px;'>正确! </span>","null","html-keyboard-response","80","347140","0.0-7.0-1.0-1.0-0.0-1.35","4","4","4","4","4","4","4","4","4","4","5","5","5","5","5","5","5","5","5","5","1","1","1","1","1","1","1","1","1","1","1","0","0","0","0","0","1","0","0","0","0","1","0","0","5","3","3","2","1","3","1","3","1","4","2","799649291374305282","刘","193","","","","","","","","","","","","","","","","","","","","","","","","","","","","","","feedback_test","","","","","","","","","","","",""
"717","","j","psychophysics","81","348875","0.0-7.0-1.0-1.0-0.0-0.36","4","4","4","4","4","4","4","4","4","4","5","5","5","5","5","5","5","5","5","5","1","1","1","1","1","1","1","1","1","1","1","0","0","0","0","0","1","0","0","0","0","1","0","0","5","3","3","2","1","3","1","3","1","4","2","799649291374305282","刘","193","","","","match","","","","","","","","","","","","","","key","j","16.66633663366383","720.2857142857143","476.2857142857143","j","true","match","img/square.png","方形","方形","ALT1_2","prac_ALT1_2","","","","","","","","","","","",""
"null","<span style='color:GreenYellow; font-size: 70px;'>正确! </span>","null","html-keyboard-response","82","349378","0.0-7.0-1.0-1.0-0.0-1.36","4","4","4","4","4","4","4","4","4","4","5","5","5","5","5","5","5","5","5","5","1","1","1","1","1","1","1","1","1","1","1","0","0","0","0","0","1","0","0","0","0","1","0","0","5","3","3","2","1","3","1","3","1","4","2","799649291374305282","刘","193","","","","","","","","","","","","","","","","","","","","","","","","","","","","","","feedback_test","","","","","","","","","","","",""
"890","","f","psychophysics","83","351275","0.0-7.0-1.0-1.0-0.0-0.37","4","4","4","4","4","4","4","4","4","4","5","5","5","5","5","5","5","5","5","5","1","1","1","1","1","1","1","1","1","1","1","0","0","0","0","0","1","0","0","0","0","1","0","0","5","3","3","2","1","3","1","3","1","4","2","799649291374305282","刘","193","","","","nonmatch","","","","","","","","","","","","","","key","f","16.667567567567357","720.2857142857143","476.2857142857143","f","true","nonmatch","img/diamond.png","五边","菱形","ALT1_2","prac_ALT1_2","","","","","","","","","","","",""
"null","<span style='color:GreenYellow; font-size: 70px;'>正确! </span>","null","html-keyboard-response","84","351778","0.0-7.0-1.0-1.0-0.0-1.37","4","4","4","4","4","4","4","4","4","4","5","5","5","5","5","5","5","5","5","5","1","1","1","1","1","1","1","1","1","1","1","0","0","0","0","0","1","0","0","0","0","1","0","0","5","3","3","2","1","3","1","3","1","4","2","799649291374305282","刘","193","","","","","","","","","","","","","","","","","","","","","","","","","","","","","","feedback_test","","","","","","","","","","","",""
"815","","f","psychophysics","85","353596","0.0-7.0-1.0-1.0-0.0-0.38","4","4","4","4","4","4","4","4","4","4","5","5","5","5","5","5","5","5","5","5","1","1","1","1","1","1","1","1","1","1","1","0","0","0","0","0","1","0","0","0","0","1","0","0","5","3","3","2","1","3","1","3","1","4","2","799649291374305282","刘","193","","","","nonmatch","","","","","","","","","","","","","","key","f","16.66698113207558","720.2857142857143","476.2857142857143","f","true","nonmatch","img/square.png","菱形","方形","ALT1_2","prac_ALT1_2","","","","","","","","","","","",""
"null","<span style='color:GreenYellow; font-size: 70px;'>正确! </span>","null","html-keyboard-response","86","354105","0.0-7.0-1.0-1.0-0.0-1.38","4","4","4","4","4","4","4","4","4","4","5","5","5","5","5","5","5","5","5","5","1","1","1","1","1","1","1","1","1","1","1","0","0","0","0","0","1","0","0","0","0","1","0","0","5","3","3","2","1","3","1","3","1","4","2","799649291374305282","刘","193","","","","","","","","","","","","","","","","","","","","","","","","","","","","","","feedback_test","","","","","","","","","","","",""
"683","","j","psychophysics","87","355802","0.0-7.0-1.0-1.0-0.0-0.39","4","4","4","4","4","4","4","4","4","4","5","5","5","5","5","5","5","5","5","5","1","1","1","1","1","1","1","1","1","1","1","0","0","0","0","0","1","0","0","0","0","1","0","0","5","3","3","2","1","3","1","3","1","4","2","799649291374305282","刘","193","","","","match","","","","","","","","","","","","","","key","j","16.666666666666668","720.2857142857143","476.2857142857143","j","true","match","img/ellipse.png","椭圆","椭圆","ALT1_2","prac_ALT1_2","","","","","","","","","","","",""
"null","<span style='color:GreenYellow; font-size: 70px;'>正确! </span>","null","html-keyboard-response","88","356305","0.0-7.0-1.0-1.0-0.0-1.39","4","4","4","4","4","4","4","4","4","4","5","5","5","5","5","5","5","5","5","5","1","1","1","1","1","1","1","1","1","1","1","0","0","0","0","0","1","0","0","0","0","1","0","0","5","3","3","2","1","3","1","3","1","4","2","799649291374305282","刘","193","","","","","","","","","","","","","","","","","","","","","","","","","","","","","","feedback_test","","","","","","","","","","","",""
"712","","f","psychophysics","89","358018","0.0-7.0-1.0-1.0-0.0-0.40","4","4","4","4","4","4","4","4","4","4","5","5","5","5","5","5","5","5","5","5","1","1","1","1","1","1","1","1","1","1","1","0","0","0","0","0","1","0","0","0","0","1","0","0","5","3","3","2","1","3","1","3","1","4","2","799649291374305282","刘","193","","","","nonmatch","","","","","","","","","","","","","","key","f","16.832673267327078","720.2857142857143","476.2857142857143","f","true","nonmatch","img/square.png","五边","方形","ALT1_2","prac_ALT1_2","","","","","","","","","","","",""
"null","<span style='color:GreenYellow; font-size: 70px;'>正确! </span>","null","html-keyboard-response","90","358521","0.0-7.0-1.0-1.0-0.0-1.40","4","4","4","4","4","4","4","4","4","4","5","5","5","5","5","5","5","5","5","5","1","1","1","1","1","1","1","1","1","1","1","0","0","0","0","0","1","0","0","0","0","1","0","0","5","3","3","2","1","3","1","3","1","4","2","799649291374305282","刘","193","","","","","","","","","","","","","","","","","","","","","","","","","","","","","","feedback_test","","","","","","","","","","","",""
"830","","f","psychophysics","91","360355","0.0-7.0-1.0-1.0-0.0-0.41","4","4","4","4","4","4","4","4","4","4","5","5","5","5","5","5","5","5","5","5","1","1","1","1","1","1","1","1","1","1","1","0","0","0","0","0","1","0","0","0","0","1","0","0","5","3","3","2","1","3","1","3","1","4","2","799649291374305282","刘","193","","","","nonmatch","","","","","","","","","","","","","","key","f","16.671028037383067","720.2857142857143","476.2857142857143","f","true","nonmatch","img/diamond.png","椭圆","菱形","ALT1_2","prac_ALT1_2","","","","","","","","","","","",""
"null","<span style='color:GreenYellow; font-size: 70px;'>正确! </span>","null","html-keyboard-response","92","360879","0.0-7.0-1.0-1.0-0.0-1.41","4","4","4","4","4","4","4","4","4","4","5","5","5","5","5","5","5","5","5","5","1","1","1","1","1","1","1","1","1","1","1","0","0","0","0","0","1","0","0","0","0","1","0","0","5","3","3","2","1","3","1","3","1","4","2","799649291374305282","刘","193","","","","","","","","","","","","","","","","","","","","","","","","","","","","","","feedback_test","","","","","","","","","","","",""
"682","","j","psychophysics","93","362581","0.0-7.0-1.0-1.0-0.0-0.42","4","4","4","4","4","4","4","4","4","4","5","5","5","5","5","5","5","5","5","5","1","1","1","1","1","1","1","1","1","1","1","0","0","0","0","0","1","0","0","0","0","1","0","0","5","3","3","2","1","3","1","3","1","4","2","799649291374305282","刘","193","","","","match","","","","","","","","","","","","","","key","j","16.668367346938776","720.2857142857143","476.2857142857143","j","true","match","img/diamond.png","菱形","菱形","ALT1_2","prac_ALT1_2","","","","","","","","","","","",""
"null","<span style='color:GreenYellow; font-size: 70px;'>正确! </span>","null","html-keyboard-response","94","363094","0.0-7.0-1.0-1.0-0.0-1.42","4","4","4","4","4","4","4","4","4","4","5","5","5","5","5","5","5","5","5","5","1","1","1","1","1","1","1","1","1","1","1","0","0","0","0","0","1","0","0","0","0","1","0","0","5","3","3","2","1","3","1","3","1","4","2","799649291374305282","刘","193","","","","","","","","","","","","","","","","","","","","","","","","","","","","","","feedback_test","","","","","","","","","","","",""
"719","","f","psychophysics","95","364817","0.0-7.0-1.0-1.0-0.0-0.43","4","4","4","4","4","4","4","4","4","4","5","5","5","5","5","5","5","5","5","5","1","1","1","1","1","1","1","1","1","1","1","0","0","0","0","0","1","0","0","0","0","1","0","0","5","3","3","2","1","3","1","3","1","4","2","799649291374305282","刘","193","","","","nonmatch","","","","","","","","","","","","","","key","f","16.666336633663253","720.2857142857143","476.2857142857143","f","true","nonmatch","img/square.png","椭圆","方形","ALT1_2","prac_ALT1_2","","","","","","","","","","","",""
"null","<span style='color:GreenYellow; font-size: 70px;'>正确! </span>","null","html-keyboard-response","96","365320","0.0-7.0-1.0-1.0-0.0-1.43","4","4","4","4","4","4","4","4","4","4","5","5","5","5","5","5","5","5","5","5","1","1","1","1","1","1","1","1","1","1","1","0","0","0","0","0","1","0","0","0","0","1","0","0","5","3","3","2","1","3","1","3","1","4","2","799649291374305282","刘","193","","","","","","","","","","","","","","","","","","","","","","","","","","","","","","feedback_test","","","","","","","","","","","",""
"891","","f","psychophysics","97","367214","0.0-7.0-1.0-1.0-0.0-0.44","4","4","4","4","4","4","4","4","4","4","5","5","5","5","5","5","5","5","5","5","1","1","1","1","1","1","1","1","1","1","1","0","0","0","0","0","1","0","0","0","0","1","0","0","5","3","3","2","1","3","1","3","1","4","2","799649291374305282","刘","193","","","","nonmatch","","","","","","","","","","","","","","key","f","16.66607142857174","720.2857142857143","476.2857142857143","f","true","nonmatch","img/ellipse.png","菱形","椭圆","ALT1_2","prac_ALT1_2","","","","","","","","","","","",""
"null","<span style='color:GreenYellow; font-size: 70px;'>正确! </span>","null","html-keyboard-response","98","367720","0.0-7.0-1.0-1.0-0.0-1.44","4","4","4","4","4","4","4","4","4","4","5","5","5","5","5","5","5","5","5","5","1","1","1","1","1","1","1","1","1","1","1","0","0","0","0","0","1","0","0","0","0","1","0","0","5","3","3","2","1","3","1","3","1","4","2","799649291374305282","刘","193","","","","","","","","","","","","","","","","","","","","","","","","","","","","","","feedback_test","","","","","","","","","","","",""
"660","","j","psychophysics","99","369399","0.0-7.0-1.0-1.0-0.0-0.45","4","4","4","4","4","4","4","4","4","4","5","5","5","5","5","5","5","5","5","5","1","1","1","1","1","1","1","1","1","1","1","0","0","0","0","0","1","0","0","0","0","1","0","0","5","3","3","2","1","3","1","3","1","4","2","799649291374305282","刘","193","","","","match","","","","","","","","","","","","","","key","j","16.668367346938776","720.2857142857143","476.2857142857143","j","true","match","img/ellipse.png","椭圆","椭圆","ALT1_2","prac_ALT1_2","","","","","","","","","","","",""
"null","<span style='color:GreenYellow; font-size: 70px;'>正确! </span>","null","html-keyboard-response","100","369902","0.0-7.0-1.0-1.0-0.0-1.45","4","4","4","4","4","4","4","4","4","4","5","5","5","5","5","5","5","5","5","5","1","1","1","1","1","1","1","1","1","1","1","0","0","0","0","0","1","0","0","0","0","1","0","0","5","3","3","2","1","3","1","3","1","4","2","799649291374305282","刘","193","","","","","","","","","","","","","","","","","","","","","","","","","","","","","","feedback_test","","","","","","","","","","","",""
"920","","f","psychophysics","101","371825","0.0-7.0-1.0-1.0-0.0-0.46","4","4","4","4","4","4","4","4","4","4","5","5","5","5","5","5","5","5","5","5","1","1","1","1","1","1","1","1","1","1","1","0","0","0","0","0","1","0","0","0","0","1","0","0","5","3","3","2","1","3","1","3","1","4","2","799649291374305282","刘","193","","","","nonmatch","","","","","","","","","","","","","","key","f","16.66875000000021","720.2857142857143","476.2857142857143","f","true","nonmatch","img/pentagon.png","菱形","五边","ALT1_2","prac_ALT1_2","","","","","","","","","","","",""
"null","<span style='color:GreenYellow; font-size: 70px;'>正确! </span>","null","html-keyboard-response","102","372339","0.0-7.0-1.0-1.0-0.0-1.46","4","4","4","4","4","4","4","4","4","4","5","5","5","5","5","5","5","5","5","5","1","1","1","1","1","1","1","1","1","1","1","0","0","0","0","0","1","0","0","0","0","1","0","0","5","3","3","2","1","3","1","3","1","4","2","799649291374305282","刘","193","","","","","","","","","","","","","","","","","","","","","","","","","","","","","","feedback_test","","","","","","","","","","","",""
"575","","j","psychophysics","103","373921","0.0-7.0-1.0-1.0-0.0-0.47","4","4","4","4","4","4","4","4","4","4","5","5","5","5","5","5","5","5","5","5","1","1","1","1","1","1","1","1","1","1","1","0","0","0","0","0","1","0","0","0","0","1","0","0","5","3","3","2","1","3","1","3","1","4","2","799649291374305282","刘","193","","","","match","","","","","","","","","","","","","","key","j","16.666304347826593","720.2857142857143","476.2857142857143","j","true","match","img/square.png","方形","方形","ALT1_2","prac_ALT1_2","","","","","","","","","","","",""
"null","<span style='color:GreenYellow; font-size: 70px;'>正确! </span>","null","html-keyboard-response","104","374443","0.0-7.0-1.0-1.0-0.0-1.47","4","4","4","4","4","4","4","4","4","4","5","5","5","5","5","5","5","5","5","5","1","1","1","1","1","1","1","1","1","1","1","0","0","0","0","0","1","0","0","0","0","1","0","0","5","3","3","2","1","3","1","3","1","4","2","799649291374305282","刘","193","","","","","","","","","","","","","","","","","","","","","","","","","","","","","","feedback_test","","","","","","","","","","","",""
"6477","<style>.context{color:white; font-size: 35px; line-height:40px}</style>                          <div><p class='context'>您正确回答了94% 的试次。</p><p class='context'>您的平均反应时为799毫秒。</p><p class='context'>恭喜您完成练习。按空格键进入正式实验。</p><p class='footer' style='font-size: 35px; line-height:40px;'>请在进入正式实验实验之前将您的<span style='color: lightgreen;'>食指</span>放在电脑键盘的相应键位上进行按键。</p>"," ","html-keyboard-response","105","380924","0.0-7.0-1.0-2.0","4","4","4","4","4","4","4","4","4","4","5","5","5","5","5","5","5","5","5","5","1","1","1","1","1","1","1","1","1","1","1","0","0","0","0","0","1","0","0","0","0","1","0","0","5","3","3","2","1","3","1","3","1","4","2","799649291374305282","刘","193","","","","","","","","","","","","","","","","","","","","","","","","","","","","","","","","","","","","","","","","","",""
"3378","
  <p style='color: white; font-size: 22px'>请您将手指放在按键上，准备进入正式的匹配任务。</p>
  <p> <div style = ""color: green""><按空格键进入下一阶段的匹配任务></div></p>
  "," ","html-keyboard-response","106","384309","0.0-7.0-1.0-3.0","4","4","4","4","4","4","4","4","4","4","5","5","5","5","5","5","5","5","5","5","1","1","1","1","1","1","1","1","1","1","1","0","0","0","0","0","1","0","0","0","0","1","0","0","5","3","3","2","1","3","1","3","1","4","2","799649291374305282","刘","193","","","","","","","","","","","","","","","","","","","","","","","","","","","","","","","","","","","","","","","","","",""
"754","","j","psychophysics","107","386067","0.0-7.0-1.0-4.0-0.0-0.0","4","4","4","4","4","4","4","4","4","4","5","5","5","5","5","5","5","5","5","5","1","1","1","1","1","1","1","1","1","1","1","0","0","0","0","0","1","0","0","0","0","1","0","0","5","3","3","2","1","3","1","3","1","4","2","799649291374305282","刘","193","","","","match","","","","","","","","","","","","","","key","j","16.666666666666668","720.2857142857143","476.2857142857143","j","true","match","img/diamond.png","菱形","菱形","ALT1","formal_ALT1_2","","","","","","","","","","","",""
"null","<span style='color:GreenYellow; font-size: 70px;'>正确! </span>","null","html-keyboard-response","108","386569","0.0-7.0-1.0-4.0-0.0-1.0","4","4","4","4","4","4","4","4","4","4","5","5","5","5","5","5","5","5","5","5","1","1","1","1","1","1","1","1","1","1","1","0","0","0","0","0","1","0","0","0","0","1","0","0","5","3","3","2","1","3","1","3","1","4","2","799649291374305282","刘","193","","","","","","","","","","","","","","","","","","","","","","","","","","","","","","feedback_test","","","","","","","","","","","",""
"650","","f","psychophysics","109","388222","0.0-7.0-1.0-4.0-0.0-0.1","4","4","4","4","4","4","4","4","4","4","5","5","5","5","5","5","5","5","5","5","1","1","1","1","1","1","1","1","1","1","1","0","0","0","0","0","1","0","0","0","0","1","0","0","5","3","3","2","1","3","1","3","1","4","2","799649291374305282","刘","193","","","","nonmatch","","","","","","","","","","","","","","key","f","16.839175257731597","720.2857142857143","476.2857142857143","f","true","nonmatch","img/diamond.png","椭圆","菱形","ALT1","formal_ALT1_2","","","","","","","","","","","",""
"null","<span style='color:GreenYellow; font-size: 70px;'>正确! </span>","null","html-keyboard-response","110","388724","0.0-7.0-1.0-4.0-0.0-1.1","4","4","4","4","4","4","4","4","4","4","5","5","5","5","5","5","5","5","5","5","1","1","1","1","1","1","1","1","1","1","1","0","0","0","0","0","1","0","0","0","0","1","0","0","5","3","3","2","1","3","1","3","1","4","2","799649291374305282","刘","193","","","","","","","","","","","","","","","","","","","","","","","","","","","","","","feedback_test","","","","","","","","","","","",""
"1200","","f","psychophysics","111","390927","0.0-7.0-1.0-4.0-0.0-0.2","4","4","4","4","4","4","4","4","4","4","5","5","5","5","5","5","5","5","5","5","1","1","1","1","1","1","1","1","1","1","1","0","0","0","0","0","1","0","0","0","0","1","0","0","5","3","3","2","1","3","1","3","1","4","2","799649291374305282","刘","193","","","","nonmatch","","","","","","","","","","","","","","key","f","16.666666666666668","720.2857142857143","476.2857142857143","f","true","nonmatch","img/pentagon.png","菱形","五边","ALT1","formal_ALT1_2","","","","","","","","","","","",""
"null","<span style='color:GreenYellow; font-size: 70px;'>正确! </span>","null","html-keyboard-response","112","391452","0.0-7.0-1.0-4.0-0.0-1.2","4","4","4","4","4","4","4","4","4","4","5","5","5","5","5","5","5","5","5","5","1","1","1","1","1","1","1","1","1","1","1","0","0","0","0","0","1","0","0","0","0","1","0","0","5","3","3","2","1","3","1","3","1","4","2","799649291374305282","刘","193","","","","","","","","","","","","","","","","","","","","","","","","","","","","","","feedback_test","","","","","","","","","","","",""
"838","","f","psychophysics","113","393310","0.0-7.0-1.0-4.0-0.0-0.3","4","4","4","4","4","4","4","4","4","4","5","5","5","5","5","5","5","5","5","5","1","1","1","1","1","1","1","1","1","1","1","0","0","0","0","0","1","0","0","0","0","1","0","0","5","3","3","2","1","3","1","3","1","4","2","799649291374305282","刘","193","","","","nonmatch","","","","","","","","","","","","","","key","f","16.66636363636353","720.2857142857143","476.2857142857143","f","true","nonmatch","img/square.png","五边","方形","ALT1","formal_ALT1_2","","","","","","","","","","","",""
"null","<span style='color:GreenYellow; font-size: 70px;'>正确! </span>","null","html-keyboard-response","114","393813","0.0-7.0-1.0-4.0-0.0-1.3","4","4","4","4","4","4","4","4","4","4","5","5","5","5","5","5","5","5","5","5","1","1","1","1","1","1","1","1","1","1","1","0","0","0","0","0","1","0","0","0","0","1","0","0","5","3","3","2","1","3","1","3","1","4","2","799649291374305282","刘","193","","","","","","","","","","","","","","","","","","","","","","","","","","","","","","feedback_test","","","","","","","","","","","",""
"812","","j","psychophysics","115","395628","0.0-7.0-1.0-4.0-0.0-0.4","4","4","4","4","4","4","4","4","4","4","5","5","5","5","5","5","5","5","5","5","1","1","1","1","1","1","1","1","1","1","1","0","0","0","0","0","1","0","0","0","0","1","0","0","5","3","3","2","1","3","1","3","1","4","2","799649291374305282","刘","193","","","","match","","","","","","","","","","","","","","key","j","16.660952380952047","720.2857142857143","476.2857142857143","j","true","match","img/pentagon.png","五边","五边","ALT1","formal_ALT1_2","","","","","","","","","","","",""
"null","<span style='color:GreenYellow; font-size: 70px;'>正确! </span>","null","html-keyboard-response","116","396130","0.0-7.0-1.0-4.0-0.0-1.4","4","4","4","4","4","4","4","4","4","4","5","5","5","5","5","5","5","5","5","5","1","1","1","1","1","1","1","1","1","1","1","0","0","0","0","0","1","0","0","0","0","1","0","0","5","3","3","2","1","3","1","3","1","4","2","799649291374305282","刘","193","","","","","","","","","","","","","","","","","","","","","","","","","","","","","","feedback_test","","","","","","","","","","","",""
"655","","j","psychophysics","117","397789","0.0-7.0-1.0-4.0-0.0-0.5","4","4","4","4","4","4","4","4","4","4","5","5","5","5","5","5","5","5","5","5","1","1","1","1","1","1","1","1","1","1","1","0","0","0","0","0","1","0","0","0","0","1","0","0","5","3","3","2","1","3","1","3","1","4","2","799649291374305282","刘","193","","","","match","","","","","","","","","","","","","","key","j","17.183333333333092","720.2857142857143","476.2857142857143","j","true","match","img/ellipse.png","椭圆","椭圆","ALT1","formal_ALT1_2","","","","","","","","","","","",""
"null","<span style='color:GreenYellow; font-size: 70px;'>正确! </span>","null","html-keyboard-response","118","398299","0.0-7.0-1.0-4.0-0.0-1.5","4","4","4","4","4","4","4","4","4","4","5","5","5","5","5","5","5","5","5","5","1","1","1","1","1","1","1","1","1","1","1","0","0","0","0","0","1","0","0","0","0","1","0","0","5","3","3","2","1","3","1","3","1","4","2","799649291374305282","刘","193","","","","","","","","","","","","","","","","","","","","","","","","","","","","","","feedback_test","","","","","","","","","","","",""
"751","","f","psychophysics","119","400064","0.0-7.0-1.0-4.0-0.0-0.6","4","4","4","4","4","4","4","4","4","4","5","5","5","5","5","5","5","5","5","5","1","1","1","1","1","1","1","1","1","1","1","0","0","0","0","0","1","0","0","0","0","1","0","0","5","3","3","2","1","3","1","3","1","4","2","799649291374305282","刘","193","","","","nonmatch","","","","","","","","","","","","","","key","f","16.668932038834612","720.2857142857143","476.2857142857143","f","true","nonmatch","img/pentagon.png","方形","五边","ALT1","formal_ALT1_2","","","","","","","","","","","",""
"null","<span style='color:GreenYellow; font-size: 70px;'>正确! </span>","null","html-keyboard-response","120","400566","0.0-7.0-1.0-4.0-0.0-1.6","4","4","4","4","4","4","4","4","4","4","5","5","5","5","5","5","5","5","5","5","1","1","1","1","1","1","1","1","1","1","1","0","0","0","0","0","1","0","0","0","0","1","0","0","5","3","3","2","1","3","1","3","1","4","2","799649291374305282","刘","193","","","","","","","","","","","","","","","","","","","","","","","","","","","","","","feedback_test","","","","","","","","","","","",""
"1185","","f","psychophysics","121","402755","0.0-7.0-1.0-4.0-0.0-0.7","4","4","4","4","4","4","4","4","4","4","5","5","5","5","5","5","5","5","5","5","1","1","1","1","1","1","1","1","1","1","1","0","0","0","0","0","1","0","0","0","0","1","0","0","5","3","3","2","1","3","1","3","1","4","2","799649291374305282","刘","193","","","","nonmatch","","","","","","","","","","","","","","key","f","16.613953488372182","720.2857142857143","476.2857142857143","f","true","nonmatch","img/diamond.png","方形","菱形","ALT1","formal_ALT1_2","","","","","","","","","","","",""
"null","<span style='color:GreenYellow; font-size: 70px;'>正确! </span>","null","html-keyboard-response","122","403257","0.0-7.0-1.0-4.0-0.0-1.7","4","4","4","4","4","4","4","4","4","4","5","5","5","5","5","5","5","5","5","5","1","1","1","1","1","1","1","1","1","1","1","0","0","0","0","0","1","0","0","0","0","1","0","0","5","3","3","2","1","3","1","3","1","4","2","799649291374305282","刘","193","","","","","","","","","","","","","","","","","","","","","","","","","","","","","","feedback_test","","","","","","","","","","","",""
"615","","j","psychophysics","123","404876","0.0-7.0-1.0-4.0-0.0-0.8","4","4","4","4","4","4","4","4","4","4","5","5","5","5","5","5","5","5","5","5","1","1","1","1","1","1","1","1","1","1","1","0","0","0","0","0","1","0","0","0","0","1","0","0","5","3","3","2","1","3","1","3","1","4","2","799649291374305282","刘","193","","","","match","","","","","","","","","","","","","","key","j","16.667708333333092","720.2857142857143","476.2857142857143","j","true","match","img/square.png","方形","方形","ALT1","formal_ALT1_2","","","","","","","","","","","",""
"null","<span style='color:GreenYellow; font-size: 70px;'>正确! </span>","null","html-keyboard-response","124","405433","0.0-7.0-1.0-4.0-0.0-1.8","4","4","4","4","4","4","4","4","4","4","5","5","5","5","5","5","5","5","5","5","1","1","1","1","1","1","1","1","1","1","1","0","0","0","0","0","1","0","0","0","0","1","0","0","5","3","3","2","1","3","1","3","1","4","2","799649291374305282","刘","193","","","","","","","","","","","","","","","","","","","","","","","","","","","","","","feedback_test","","","","","","","","","","","",""
"736","","f","psychophysics","125","407189","0.0-7.0-1.0-4.0-0.0-0.9","4","4","4","4","4","4","4","4","4","4","5","5","5","5","5","5","5","5","5","5","1","1","1","1","1","1","1","1","1","1","1","0","0","0","0","0","1","0","0","0","0","1","0","0","5","3","3","2","1","3","1","3","1","4","2","799649291374305282","刘","193","","","","nonmatch","","","","","","","","","","","","","","key","f","16.668932038834612","720.2857142857143","476.2857142857143","j","false","match","img/pentagon.png","五边","五边","ALT1","formal_ALT1_2","","","","","","","","","","","",""
"null","<span style='color:red; font-size: 70px;'>错误! </span>","null","html-keyboard-response","126","407692","0.0-7.0-1.0-4.0-0.0-1.9","4","4","4","4","4","4","4","4","4","4","5","5","5","5","5","5","5","5","5","5","1","1","1","1","1","1","1","1","1","1","1","0","0","0","0","0","1","0","0","0","0","1","0","0","5","3","3","2","1","3","1","3","1","4","2","799649291374305282","刘","193","","","","","","","","","","","","","","","","","","","","","","","","","","","","","","feedback_test","","","","","","","","","","","",""
"637","","j","psychophysics","127","409331","0.0-7.0-1.0-4.0-0.0-0.10","4","4","4","4","4","4","4","4","4","4","5","5","5","5","5","5","5","5","5","5","1","1","1","1","1","1","1","1","1","1","1","0","0","0","0","0","1","0","0","0","0","1","0","0","5","3","3","2","1","3","1","3","1","4","2","799649291374305282","刘","193","","","","match","","","","","","","","","","","","","","key","j","16.839175257731597","720.2857142857143","476.2857142857143","j","true","match","img/diamond.png","菱形","菱形","ALT1","formal_ALT1_2","","","","","","","","","","","",""
"null","<span style='color:GreenYellow; font-size: 70px;'>正确! </span>","null","html-keyboard-response","128","409832","0.0-7.0-1.0-4.0-0.0-1.10","4","4","4","4","4","4","4","4","4","4","5","5","5","5","5","5","5","5","5","5","1","1","1","1","1","1","1","1","1","1","1","0","0","0","0","0","1","0","0","0","0","1","0","0","5","3","3","2","1","3","1","3","1","4","2","799649291374305282","刘","193","","","","","","","","","","","","","","","","","","","","","","","","","","","","","","feedback_test","","","","","","","","","","","",""
"660","","j","psychophysics","129","411495","0.0-7.0-1.0-4.0-0.0-0.11","4","4","4","4","4","4","4","4","4","4","5","5","5","5","5","5","5","5","5","5","1","1","1","1","1","1","1","1","1","1","1","0","0","0","0","0","1","0","0","0","0","1","0","0","5","3","3","2","1","3","1","3","1","4","2","799649291374305282","刘","193","","","","match","","","","","","","","","","","","","","key","j","16.651546391752696","720.2857142857143","476.2857142857143","j","true","match","img/ellipse.png","椭圆","椭圆","ALT1","formal_ALT1_2","","","","","","","","","","","",""
"null","<span style='color:GreenYellow; font-size: 70px;'>正确! </span>","null","html-keyboard-response","130","411997","0.0-7.0-1.0-4.0-0.0-1.11","4","4","4","4","4","4","4","4","4","4","5","5","5","5","5","5","5","5","5","5","1","1","1","1","1","1","1","1","1","1","1","0","0","0","0","0","1","0","0","0","0","1","0","0","5","3","3","2","1","3","1","3","1","4","2","799649291374305282","刘","193","","","","","","","","","","","","","","","","","","","","","","","","","","","","","","feedback_test","","","","","","","","","","","",""
"608","","j","psychophysics","131","413631","0.0-7.0-1.0-4.0-0.0-0.12","4","4","4","4","4","4","4","4","4","4","5","5","5","5","5","5","5","5","5","5","1","1","1","1","1","1","1","1","1","1","1","0","0","0","0","0","1","0","0","0","0","1","0","0","5","3","3","2","1","3","1","3","1","4","2","799649291374305282","刘","193","","","","match","","","","","","","","","","","","","","key","j","16.66526315789486","720.2857142857143","476.2857142857143","j","true","match","img/ellipse.png","椭圆","椭圆","ALT1","formal_ALT1_2","","","","","","","","","","","",""
"null","<span style='color:GreenYellow; font-size: 70px;'>正确! </span>","null","html-keyboard-response","132","414133","0.0-7.0-1.0-4.0-0.0-1.12","4","4","4","4","4","4","4","4","4","4","5","5","5","5","5","5","5","5","5","5","1","1","1","1","1","1","1","1","1","1","1","0","0","0","0","0","1","0","0","0","0","1","0","0","5","3","3","2","1","3","1","3","1","4","2","799649291374305282","刘","193","","","","","","","","","","","","","","","","","","","","","","","","","","","","","","feedback_test","","","","","","","","","","","",""
"687","","f","psychophysics","133","415824","0.0-7.0-1.0-4.0-0.0-0.13","4","4","4","4","4","4","4","4","4","4","5","5","5","5","5","5","5","5","5","5","1","1","1","1","1","1","1","1","1","1","1","0","0","0","0","0","1","0","0","0","0","1","0","0","5","3","3","2","1","3","1","3","1","4","2","799649291374305282","刘","193","","","","nonmatch","","","","","","","","","","","","","","key","f","16.667346938775747","720.2857142857143","476.2857142857143","f","true","nonmatch","img/ellipse.png","方形","椭圆","ALT1","formal_ALT1_2","","","","","","","","","","","",""
"null","<span style='color:GreenYellow; font-size: 70px;'>正确! </span>","null","html-keyboard-response","134","416327","0.0-7.0-1.0-4.0-0.0-1.13","4","4","4","4","4","4","4","4","4","4","5","5","5","5","5","5","5","5","5","5","1","1","1","1","1","1","1","1","1","1","1","0","0","0","0","0","1","0","0","0","0","1","0","0","5","3","3","2","1","3","1","3","1","4","2","799649291374305282","刘","193","","","","","","","","","","","","","","","","","","","","","","","","","","","","","","feedback_test","","","","","","","","","","","",""
"694","","f","psychophysics","135","418024","0.0-7.0-1.0-4.0-0.0-0.14","4","4","4","4","4","4","4","4","4","4","5","5","5","5","5","5","5","5","5","5","1","1","1","1","1","1","1","1","1","1","1","0","0","0","0","0","1","0","0","0","0","1","0","0","5","3","3","2","1","3","1","3","1","4","2","799649291374305282","刘","193","","","","nonmatch","","","","","","","","","","","","","","key","f","16.98383838383803","720.2857142857143","476.2857142857143","f","true","nonmatch","img/diamond.png","五边","菱形","ALT1","formal_ALT1_2","","","","","","","","","","","",""
"null","<span style='color:GreenYellow; font-size: 70px;'>正确! </span>","null","html-keyboard-response","136","418526","0.0-7.0-1.0-4.0-0.0-1.14","4","4","4","4","4","4","4","4","4","4","5","5","5","5","5","5","5","5","5","5","1","1","1","1","1","1","1","1","1","1","1","0","0","0","0","0","1","0","0","0","0","1","0","0","5","3","3","2","1","3","1","3","1","4","2","799649291374305282","刘","193","","","","","","","","","","","","","","","","","","","","","","","","","","","","","","feedback_test","","","","","","","","","","","",""
"662","","f","psychophysics","137","420196","0.0-7.0-1.0-4.0-0.0-0.15","4","4","4","4","4","4","4","4","4","4","5","5","5","5","5","5","5","5","5","5","1","1","1","1","1","1","1","1","1","1","1","0","0","0","0","0","1","0","0","0","0","1","0","0","5","3","3","2","1","3","1","3","1","4","2","799649291374305282","刘","193","","","","nonmatch","","","","","","","","","","","","","","key","f","16.667676767677122","720.2857142857143","476.2857142857143","f","true","nonmatch","img/pentagon.png","椭圆","五边","ALT1","formal_ALT1_2","","","","","","","","","","","",""
"null","<span style='color:GreenYellow; font-size: 70px;'>正确! </span>","null","html-keyboard-response","138","420698","0.0-7.0-1.0-4.0-0.0-1.15","4","4","4","4","4","4","4","4","4","4","5","5","5","5","5","5","5","5","5","5","1","1","1","1","1","1","1","1","1","1","1","0","0","0","0","0","1","0","0","0","0","1","0","0","5","3","3","2","1","3","1","3","1","4","2","799649291374305282","刘","193","","","","","","","","","","","","","","","","","","","","","","","","","","","","","","feedback_test","","","","","","","","","","","",""
"695","","j","psychophysics","139","422396","0.0-7.0-1.0-4.0-0.0-0.16","4","4","4","4","4","4","4","4","4","4","5","5","5","5","5","5","5","5","5","5","1","1","1","1","1","1","1","1","1","1","1","0","0","0","0","0","1","0","0","0","0","1","0","0","5","3","3","2","1","3","1","3","1","4","2","799649291374305282","刘","193","","","","match","","","","","","","","","","","","","","key","j","16.66969696969685","720.2857142857143","476.2857142857143","j","true","match","img/diamond.png","菱形","菱形","ALT1","formal_ALT1_2","","","","","","","","","","","",""
"null","<span style='color:GreenYellow; font-size: 70px;'>正确! </span>","null","html-keyboard-response","140","422898","0.0-7.0-1.0-4.0-0.0-1.16","4","4","4","4","4","4","4","4","4","4","5","5","5","5","5","5","5","5","5","5","1","1","1","1","1","1","1","1","1","1","1","0","0","0","0","0","1","0","0","0","0","1","0","0","5","3","3","2","1","3","1","3","1","4","2","799649291374305282","刘","193","","","","","","","","","","","","","","","","","","","","","","","","","","","","","","feedback_test","","","","","","","","","","","",""
"978","","f","psychophysics","141","424880","0.0-7.0-1.0-4.0-0.0-0.17","4","4","4","4","4","4","4","4","4","4","5","5","5","5","5","5","5","5","5","5","1","1","1","1","1","1","1","1","1","1","1","0","0","0","0","0","1","0","0","0","0","1","0","0","5","3","3","2","1","3","1","3","1","4","2","799649291374305282","刘","193","","","","nonmatch","","","","","","","","","","","","","","key","f","16.66695652173923","720.2857142857143","476.2857142857143","f","true","nonmatch","img/square.png","菱形","方形","ALT1","formal_ALT1_2","","","","","","","","","","","",""
"null","<span style='color:GreenYellow; font-size: 70px;'>正确! </span>","null","html-keyboard-response","142","425383","0.0-7.0-1.0-4.0-0.0-1.17","4","4","4","4","4","4","4","4","4","4","5","5","5","5","5","5","5","5","5","5","1","1","1","1","1","1","1","1","1","1","1","0","0","0","0","0","1","0","0","0","0","1","0","0","5","3","3","2","1","3","1","3","1","4","2","799649291374305282","刘","193","","","","","","","","","","","","","","","","","","","","","","","","","","","","","","feedback_test","","","","","","","","","","","",""
"617","","j","psychophysics","143","427019","0.0-7.0-1.0-4.0-0.0-0.18","4","4","4","4","4","4","4","4","4","4","5","5","5","5","5","5","5","5","5","5","1","1","1","1","1","1","1","1","1","1","1","0","0","0","0","0","1","0","0","0","0","1","0","0","5","3","3","2","1","3","1","3","1","4","2","799649291374305282","刘","193","","","","match","","","","","","","","","","","","","","key","j","16.668085106382854","720.2857142857143","476.2857142857143","j","true","match","img/square.png","方形","方形","ALT1","formal_ALT1_2","","","","","","","","","","","",""
"null","<span style='color:GreenYellow; font-size: 70px;'>正确! </span>","null","html-keyboard-response","144","427522","0.0-7.0-1.0-4.0-0.0-1.18","4","4","4","4","4","4","4","4","4","4","5","5","5","5","5","5","5","5","5","5","1","1","1","1","1","1","1","1","1","1","1","0","0","0","0","0","1","0","0","0","0","1","0","0","5","3","3","2","1","3","1","3","1","4","2","799649291374305282","刘","193","","","","","","","","","","","","","","","","","","","","","","","","","","","","","","feedback_test","","","","","","","","","","","",""
"835","","j","psychophysics","145","429360","0.0-7.0-1.0-4.0-0.0-0.19","4","4","4","4","4","4","4","4","4","4","5","5","5","5","5","5","5","5","5","5","1","1","1","1","1","1","1","1","1","1","1","0","0","0","0","0","1","0","0","0","0","1","0","0","5","3","3","2","1","3","1","3","1","4","2","799649291374305282","刘","193","","","","match","","","","","","","","","","","","","","key","j","16.670093457944034","720.2857142857143","476.2857142857143","j","true","match","img/pentagon.png","五边","五边","ALT1","formal_ALT1_2","","","","","","","","","","","",""
"null","<span style='color:GreenYellow; font-size: 70px;'>正确! </span>","null","html-keyboard-response","146","429863","0.0-7.0-1.0-4.0-0.0-1.19","4","4","4","4","4","4","4","4","4","4","5","5","5","5","5","5","5","5","5","5","1","1","1","1","1","1","1","1","1","1","1","0","0","0","0","0","1","0","0","0","0","1","0","0","5","3","3","2","1","3","1","3","1","4","2","799649291374305282","刘","193","","","","","","","","","","","","","","","","","","","","","","","","","","","","","","feedback_test","","","","","","","","","","","",""
"804","","f","psychophysics","147","431670","0.0-7.0-1.0-4.0-0.0-0.20","4","4","4","4","4","4","4","4","4","4","5","5","5","5","5","5","5","5","5","5","1","1","1","1","1","1","1","1","1","1","1","0","0","0","0","0","1","0","0","0","0","1","0","0","5","3","3","2","1","3","1","3","1","4","2","799649291374305282","刘","193","","","","nonmatch","","","","","","","","","","","","","","key","f","16.66761904761938","720.2857142857143","476.2857142857143","f","true","nonmatch","img/ellipse.png","菱形","椭圆","ALT1","formal_ALT1_2","","","","","","","","","","","",""
"null","<span style='color:GreenYellow; font-size: 70px;'>正确! </span>","null","html-keyboard-response","148","432207","0.0-7.0-1.0-4.0-0.0-1.20","4","4","4","4","4","4","4","4","4","4","5","5","5","5","5","5","5","5","5","5","1","1","1","1","1","1","1","1","1","1","1","0","0","0","0","0","1","0","0","0","0","1","0","0","5","3","3","2","1","3","1","3","1","4","2","799649291374305282","刘","193","","","","","","","","","","","","","","","","","","","","","","","","","","","","","","feedback_test","","","","","","","","","","","",""
"667","","f","psychophysics","149","433883","0.0-7.0-1.0-4.0-0.0-0.21","4","4","4","4","4","4","4","4","4","4","5","5","5","5","5","5","5","5","5","5","1","1","1","1","1","1","1","1","1","1","1","0","0","0","0","0","1","0","0","0","0","1","0","0","5","3","3","2","1","3","1","3","1","4","2","799649291374305282","刘","193","","","","nonmatch","","","","","","","","","","","","","","key","f","16.66701030927847","720.2857142857143","476.2857142857143","f","true","nonmatch","img/ellipse.png","五边","椭圆","ALT1","formal_ALT1_2","","","","","","","","","","","",""
"null","<span style='color:GreenYellow; font-size: 70px;'>正确! </span>","null","html-keyboard-response","150","434393","0.0-7.0-1.0-4.0-0.0-1.21","4","4","4","4","4","4","4","4","4","4","5","5","5","5","5","5","5","5","5","5","1","1","1","1","1","1","1","1","1","1","1","0","0","0","0","0","1","0","0","0","0","1","0","0","5","3","3","2","1","3","1","3","1","4","2","799649291374305282","刘","193","","","","","","","","","","","","","","","","","","","","","","","","","","","","","","feedback_test","","","","","","","","","","","",""
"674","","f","psychophysics","151","436070","0.0-7.0-1.0-4.0-0.0-0.22","4","4","4","4","4","4","4","4","4","4","5","5","5","5","5","5","5","5","5","5","1","1","1","1","1","1","1","1","1","1","1","0","0","0","0","0","1","0","0","0","0","1","0","0","5","3","3","2","1","3","1","3","1","4","2","799649291374305282","刘","193","","","","nonmatch","","","","","","","","","","","","","","key","f","16.669072164948094","720.2857142857143","476.2857142857143","f","true","nonmatch","img/square.png","椭圆","方形","ALT1","formal_ALT1_2","","","","","","","","","","","",""
"null","<span style='color:GreenYellow; font-size: 70px;'>正确! </span>","null","html-keyboard-response","152","436572","0.0-7.0-1.0-4.0-0.0-1.22","4","4","4","4","4","4","4","4","4","4","5","5","5","5","5","5","5","5","5","5","1","1","1","1","1","1","1","1","1","1","1","0","0","0","0","0","1","0","0","0","0","1","0","0","5","3","3","2","1","3","1","3","1","4","2","799649291374305282","刘","193","","","","","","","","","","","","","","","","","","","","","","","","","","","","","","feedback_test","","","","","","","","","","","",""
"579","","j","psychophysics","153","438154","0.0-7.0-1.0-4.0-0.0-0.23","4","4","4","4","4","4","4","4","4","4","5","5","5","5","5","5","5","5","5","5","1","1","1","1","1","1","1","1","1","1","1","0","0","0","0","0","1","0","0","0","0","1","0","0","5","3","3","2","1","3","1","3","1","4","2","799649291374305282","刘","193","","","","match","","","","","","","","","","","","","","key","j","16.671428571428955","720.2857142857143","476.2857142857143","j","true","match","img/square.png","方形","方形","ALT1","formal_ALT1_2","","","","","","","","","","","",""
"null","<span style='color:GreenYellow; font-size: 70px;'>正确! </span>","null","html-keyboard-response","154","438656","0.0-7.0-1.0-4.0-0.0-1.23","4","4","4","4","4","4","4","4","4","4","5","5","5","5","5","5","5","5","5","5","1","1","1","1","1","1","1","1","1","1","1","0","0","0","0","0","1","0","0","0","0","1","0","0","5","3","3","2","1","3","1","3","1","4","2","799649291374305282","刘","193","","","","","","","","","","","","","","","","","","","","","","","","","","","","","","feedback_test","","","","","","","","","","","",""
"709","","j","psychophysics","155","440375","0.0-7.0-1.0-4.0-0.0-0.24","4","4","4","4","4","4","4","4","4","4","5","5","5","5","5","5","5","5","5","5","1","1","1","1","1","1","1","1","1","1","1","0","0","0","0","0","1","0","0","0","0","1","0","0","5","3","3","2","1","3","1","3","1","4","2","799649291374305282","刘","193","","","","match","","","","","","","","","","","","","","key","j","16.667999999999882","720.2857142857143","476.2857142857143","j","true","match","img/pentagon.png","五边","五边","ALT1","formal_ALT1_2","","","","","","","","","","","",""
"null","<span style='color:GreenYellow; font-size: 70px;'>正确! </span>","null","html-keyboard-response","156","440876","0.0-7.0-1.0-4.0-0.0-1.24","4","4","4","4","4","4","4","4","4","4","5","5","5","5","5","5","5","5","5","5","1","1","1","1","1","1","1","1","1","1","1","0","0","0","0","0","1","0","0","0","0","1","0","0","5","3","3","2","1","3","1","3","1","4","2","799649291374305282","刘","193","","","","","","","","","","","","","","","","","","","","","","","","","","","","","","feedback_test","","","","","","","","","","","",""
"700","","f","psychophysics","157","442579","0.0-7.0-1.0-4.0-0.0-0.25","4","4","4","4","4","4","4","4","4","4","5","5","5","5","5","5","5","5","5","5","1","1","1","1","1","1","1","1","1","1","1","0","0","0","0","0","1","0","0","0","0","1","0","0","5","3","3","2","1","3","1","3","1","4","2","799649291374305282","刘","193","","","","nonmatch","","","","","","","","","","","","","","key","f","16.667676767676532","720.2857142857143","476.2857142857143","f","true","nonmatch","img/square.png","椭圆","方形","ALT1","formal_ALT1_2","","","","","","","","","","","",""
"null","<span style='color:GreenYellow; font-size: 70px;'>正确! </span>","null","html-keyboard-response","158","443082","0.0-7.0-1.0-4.0-0.0-1.25","4","4","4","4","4","4","4","4","4","4","5","5","5","5","5","5","5","5","5","5","1","1","1","1","1","1","1","1","1","1","1","0","0","0","0","0","1","0","0","0","0","1","0","0","5","3","3","2","1","3","1","3","1","4","2","799649291374305282","刘","193","","","","","","","","","","","","","","","","","","","","","","","","","","","","","","feedback_test","","","","","","","","","","","",""
"668","","j","psychophysics","159","444753","0.0-7.0-1.0-4.0-0.0-0.26","4","4","4","4","4","4","4","4","4","4","5","5","5","5","5","5","5","5","5","5","1","1","1","1","1","1","1","1","1","1","1","0","0","0","0","0","1","0","0","0","0","1","0","0","5","3","3","2","1","3","1","3","1","4","2","799649291374305282","刘","193","","","","match","","","","","","","","","","","","","","key","j","16.616666666666788","720.2857142857143","476.2857142857143","j","true","match","img/ellipse.png","椭圆","椭圆","ALT1","formal_ALT1_2","","","","","","","","","","","",""
"null","<span style='color:GreenYellow; font-size: 70px;'>正确! </span>","null","html-keyboard-response","160","445270","0.0-7.0-1.0-4.0-0.0-1.26","4","4","4","4","4","4","4","4","4","4","5","5","5","5","5","5","5","5","5","5","1","1","1","1","1","1","1","1","1","1","1","0","0","0","0","0","1","0","0","0","0","1","0","0","5","3","3","2","1","3","1","3","1","4","2","799649291374305282","刘","193","","","","","","","","","","","","","","","","","","","","","","","","","","","","","","feedback_test","","","","","","","","","","","",""
"616","","f","psychophysics","161","446912","0.0-7.0-1.0-4.0-0.0-0.27","4","4","4","4","4","4","4","4","4","4","5","5","5","5","5","5","5","5","5","5","1","1","1","1","1","1","1","1","1","1","1","0","0","0","0","0","1","0","0","0","0","1","0","0","5","3","3","2","1","3","1","3","1","4","2","799649291374305282","刘","193","","","","nonmatch","","","","","","","","","","","","","","key","f","16.666666666666668","720.2857142857143","476.2857142857143","f","true","nonmatch","img/ellipse.png","方形","椭圆","ALT1","formal_ALT1_2","","","","","","","","","","","",""
"null","<span style='color:GreenYellow; font-size: 70px;'>正确! </span>","null","html-keyboard-response","162","447415","0.0-7.0-1.0-4.0-0.0-1.27","4","4","4","4","4","4","4","4","4","4","5","5","5","5","5","5","5","5","5","5","1","1","1","1","1","1","1","1","1","1","1","0","0","0","0","0","1","0","0","0","0","1","0","0","5","3","3","2","1","3","1","3","1","4","2","799649291374305282","刘","193","","","","","","","","","","","","","","","","","","","","","","","","","","","","","","feedback_test","","","","","","","","","","","",""
"819","","f","psychophysics","163","449238","0.0-7.0-1.0-4.0-0.0-0.28","4","4","4","4","4","4","4","4","4","4","5","5","5","5","5","5","5","5","5","5","1","1","1","1","1","1","1","1","1","1","1","0","0","0","0","0","1","0","0","0","0","1","0","0","5","3","3","2","1","3","1","3","1","4","2","799649291374305282","刘","193","","","","nonmatch","","","","","","","","","","","","","","key","f","16.66698113207558","720.2857142857143","476.2857142857143","f","true","nonmatch","img/square.png","菱形","方形","ALT1","formal_ALT1_2","","","","","","","","","","","",""
"null","<span style='color:GreenYellow; font-size: 70px;'>正确! </span>","null","html-keyboard-response","164","449741","0.0-7.0-1.0-4.0-0.0-1.28","4","4","4","4","4","4","4","4","4","4","5","5","5","5","5","5","5","5","5","5","1","1","1","1","1","1","1","1","1","1","1","0","0","0","0","0","1","0","0","0","0","1","0","0","5","3","3","2","1","3","1","3","1","4","2","799649291374305282","刘","193","","","","","","","","","","","","","","","","","","","","","","","","","","","","","","feedback_test","","","","","","","","","","","",""
"697","","f","psychophysics","165","451441","0.0-7.0-1.0-4.0-0.0-0.29","4","4","4","4","4","4","4","4","4","4","5","5","5","5","5","5","5","5","5","5","1","1","1","1","1","1","1","1","1","1","1","0","0","0","0","0","1","0","0","0","0","1","0","0","5","3","3","2","1","3","1","3","1","4","2","799649291374305282","刘","193","","","","nonmatch","","","","","","","","","","","","","","key","f","16.667676767676532","720.2857142857143","476.2857142857143","f","true","nonmatch","img/ellipse.png","五边","椭圆","ALT1","formal_ALT1_2","","","","","","","","","","","",""
"null","<span style='color:GreenYellow; font-size: 70px;'>正确! </span>","null","html-keyboard-response","166","451966","0.0-7.0-1.0-4.0-0.0-1.29","4","4","4","4","4","4","4","4","4","4","5","5","5","5","5","5","5","5","5","5","1","1","1","1","1","1","1","1","1","1","1","0","0","0","0","0","1","0","0","0","0","1","0","0","5","3","3","2","1","3","1","3","1","4","2","799649291374305282","刘","193","","","","","","","","","","","","","","","","","","","","","","","","","","","","","","feedback_test","","","","","","","","","","","",""
"689","","j","psychophysics","167","453674","0.0-7.0-1.0-4.0-0.0-0.30","4","4","4","4","4","4","4","4","4","4","5","5","5","5","5","5","5","5","5","5","1","1","1","1","1","1","1","1","1","1","1","0","0","0","0","0","1","0","0","0","0","1","0","0","5","3","3","2","1","3","1","3","1","4","2","799649291374305282","刘","193","","","","match","","","","","","","","","","","","","","key","j","16.667000000000115","720.2857142857143","476.2857142857143","j","true","match","img/pentagon.png","五边","五边","ALT1","formal_ALT1_2","","","","","","","","","","","",""
"null","<span style='color:GreenYellow; font-size: 70px;'>正确! </span>","null","html-keyboard-response","168","454175","0.0-7.0-1.0-4.0-0.0-1.30","4","4","4","4","4","4","4","4","4","4","5","5","5","5","5","5","5","5","5","5","1","1","1","1","1","1","1","1","1","1","1","0","0","0","0","0","1","0","0","0","0","1","0","0","5","3","3","2","1","3","1","3","1","4","2","799649291374305282","刘","193","","","","","","","","","","","","","","","","","","","","","","","","","","","","","","feedback_test","","","","","","","","","","","",""
"576","","j","psychophysics","169","455756","0.0-7.0-1.0-4.0-0.0-0.31","4","4","4","4","4","4","4","4","4","4","5","5","5","5","5","5","5","5","5","5","1","1","1","1","1","1","1","1","1","1","1","0","0","0","0","0","1","0","0","0","0","1","0","0","5","3","3","2","1","3","1","3","1","4","2","799649291374305282","刘","193","","","","match","","","","","","","","","","","","","","key","j","16.66813186813174","720.2857142857143","476.2857142857143","j","true","match","img/pentagon.png","五边","五边","ALT1","formal_ALT1_2","","","","","","","","","","","",""
"null","<span style='color:GreenYellow; font-size: 70px;'>正确! </span>","null","html-keyboard-response","170","456259","0.0-7.0-1.0-4.0-0.0-1.31","4","4","4","4","4","4","4","4","4","4","5","5","5","5","5","5","5","5","5","5","1","1","1","1","1","1","1","1","1","1","1","0","0","0","0","0","1","0","0","0","0","1","0","0","5","3","3","2","1","3","1","3","1","4","2","799649291374305282","刘","193","","","","","","","","","","","","","","","","","","","","","","","","","","","","","","feedback_test","","","","","","","","","","","",""
"787","","j","psychophysics","171","458049","0.0-7.0-1.0-4.0-0.0-0.32","4","4","4","4","4","4","4","4","4","4","5","5","5","5","5","5","5","5","5","5","1","1","1","1","1","1","1","1","1","1","1","0","0","0","0","0","1","0","0","0","0","1","0","0","5","3","3","2","1","3","1","3","1","4","2","799649291374305282","刘","193","","","","match","","","","","","","","","","","","","","key","j","16.66346153846154","720.2857142857143","476.2857142857143","j","true","match","img/square.png","方形","方形","ALT1","formal_ALT1_2","","","","","","","","","","","",""
"null","<span style='color:GreenYellow; font-size: 70px;'>正确! </span>","null","html-keyboard-response","172","458551","0.0-7.0-1.0-4.0-0.0-1.32","4","4","4","4","4","4","4","4","4","4","5","5","5","5","5","5","5","5","5","5","1","1","1","1","1","1","1","1","1","1","1","0","0","0","0","0","1","0","0","0","0","1","0","0","5","3","3","2","1","3","1","3","1","4","2","799649291374305282","刘","193","","","","","","","","","","","","","","","","","","","","","","","","","","","","","","feedback_test","","","","","","","","","","","",""
"672","","j","psychophysics","173","460228","0.0-7.0-1.0-4.0-0.0-0.33","4","4","4","4","4","4","4","4","4","4","5","5","5","5","5","5","5","5","5","5","1","1","1","1","1","1","1","1","1","1","1","0","0","0","0","0","1","0","0","0","0","1","0","0","5","3","3","2","1","3","1","3","1","4","2","799649291374305282","刘","193","","","","match","","","","","","","","","","","","","","key","j","16.668041237113282","720.2857142857143","476.2857142857143","j","true","match","img/ellipse.png","椭圆","椭圆","ALT1","formal_ALT1_2","","","","","","","","","","","",""
"null","<span style='color:GreenYellow; font-size: 70px;'>正确! </span>","null","html-keyboard-response","174","460730","0.0-7.0-1.0-4.0-0.0-1.33","4","4","4","4","4","4","4","4","4","4","5","5","5","5","5","5","5","5","5","5","1","1","1","1","1","1","1","1","1","1","1","0","0","0","0","0","1","0","0","0","0","1","0","0","5","3","3","2","1","3","1","3","1","4","2","799649291374305282","刘","193","","","","","","","","","","","","","","","","","","","","","","","","","","","","","","feedback_test","","","","","","","","","","","",""
"885","","j","psychophysics","175","462618","0.0-7.0-1.0-4.0-0.0-0.34","4","4","4","4","4","4","4","4","4","4","5","5","5","5","5","5","5","5","5","5","1","1","1","1","1","1","1","1","1","1","1","0","0","0","0","0","1","0","0","0","0","1","0","0","5","3","3","2","1","3","1","3","1","4","2","799649291374305282","刘","193","","","","match","","","","","","","","","","","","","","key","j","16.668181818181818","720.2857142857143","476.2857142857143","j","true","match","img/diamond.png","菱形","菱形","ALT1","formal_ALT1_2","","","","","","","","","","","",""
"null","<span style='color:GreenYellow; font-size: 70px;'>正确! </span>","null","html-keyboard-response","176","463119","0.0-7.0-1.0-4.0-0.0-1.34","4","4","4","4","4","4","4","4","4","4","5","5","5","5","5","5","5","5","5","5","1","1","1","1","1","1","1","1","1","1","1","0","0","0","0","0","1","0","0","0","0","1","0","0","5","3","3","2","1","3","1","3","1","4","2","799649291374305282","刘","193","","","","","","","","","","","","","","","","","","","","","","","","","","","","","","feedback_test","","","","","","","","","","","",""
"747","","f","psychophysics","177","464868","0.0-7.0-1.0-4.0-0.0-0.35","4","4","4","4","4","4","4","4","4","4","5","5","5","5","5","5","5","5","5","5","1","1","1","1","1","1","1","1","1","1","1","0","0","0","0","0","1","0","0","0","0","1","0","0","5","3","3","2","1","3","1","3","1","4","2","799649291374305282","刘","193","","","","nonmatch","","","","","","","","","","","","","","key","f","16.667647058823302","720.2857142857143","476.2857142857143","f","true","nonmatch","img/ellipse.png","菱形","椭圆","ALT1","formal_ALT1_2","","","","","","","","","","","",""
