"rt","stimulus","response","trial_type","trial_index","time_elapsed","internal_node_id","ses_1","ses_2","ses_3","ses_4","ses_5","ses_6","ses_7","ses_8","ses_9","ses_10","coreself_1","coreself_2","coreself_3","coreself_4","coreself_5","coreself_6","coreself_7","coreself_8","coreself_9","coreself_10","SGPS_1","SGPS_2","SGPS_3","SGPS_4","SGPS_5","SGPS_6","SGPS_7","SGPS_8","SGPS_9","NPI1","NPI2","NPI3","NPI4","NPI5","NPI6","NPI7","NPI8","NPI9","NPI10","NPI11","NPI12","NPI13","NPI14","NPI15","hsns_1","hsns_2","hsns_3","hsns_4","hsns_5","trap1","hsns_6","hsns_7","hsns_8","hsns_9","hsns_10","subj_idx","friend_name","ParticipantID","value","success","user_agent","responses","item_order","radio_event_ids","radio_event_times","key_event_times","mouse_event_times","straightlining","zigzagging","honeypot","timeout","failed_images","failed_audio","failed_video","version_attrib","version_target","correct","IAT","screen_id","task_id","RT","condition","word","varname","summary","version_attrib2","version_target2","time_stamp","view_history","response_type","key_press","avg_frame_time","center_x","center_y","correct_response","identity","Image","question_order","correct_answer","trap1_item"
"29886","
   <p><div style = ""color: white;font-size:25px;"">您好，欢迎参加本次实验。</div> </p>
   <p><div style = ""color: white;font-size:25px;"">为充分保障您的权利，请确保您已经知晓并同意《参与实验同意书》以及《数据公开知情同意书》。</div></p>
   <p><div style = ""color: white;font-size:25px;"">如果您未见过上述内容，请咨询实验员。</div></p>
   <p><div style = ""color: white;font-size:25px;"">如果您选择继续实验，则表示您已经清楚两份知情同意书的内容并同意。</div></p>
   <p><div style = ""color: pink;font-size:30px;"">请确保您记得day0的实验编号，您将在本次实验输入该编号，若您忘记，请咨询实验员后作答。</div></p>
   <p><div style = ""color: lightblue;font-size:25px;"">请您尽可能认真地作答，我们将依据您在各问卷和按键任务中的作答质量发放报酬。</div></p>
   <p> <div style = ""color: green;font-size:25px;""><按空格键至下页></div> </p>
   "," ","html-keyboard-response","0","29888","0.0-0.0","4","4","4","4","3","4","4","3","4","4","5","5","4","1","1","1","4","4","5","5","1","1","1","1","1","1","1","2","1","0","1","0","0","1","0","0","0","0","0","0","0","0","0","1","5","1","1","2","1","","2","1","2","2","1","781521029972627457","张","266","","","","","","","","","","","","","","","","","","","","","","","","","","","","","","","","","","","","","","","","","",""
"","","","call-function","1","29890","0.0-1.0-0.0","4","4","4","4","3","4","4","3","4","4","5","5","4","1","1","1","4","4","5","5","1","1","1","1","1","1","1","2","1","0","1","0","0","1","0","0","0","0","0","0","0","0","0","1","5","1","1","2","1","","2","1","2","2","1","781521029972627457","张","266","","","","","","","","","","","","","","","","","","","","","","","","","","","","","","","","","","","","","","","","","",""
"19992","","{""friend_name"":""张"",""ParticipantID"":""266""}","survey-html-form","2","49882","0.0-1.0-1.0","4","4","4","4","3","4","4","3","4","4","5","5","4","1","1","1","4","4","5","5","1","1","1","1","1","1","1","2","1","0","1","0","0","1","0","0","0","0","0","0","0","0","0","1","5","1","1","2","1","","2","1","2","2","1","781521029972627457","张","266","","","","","","","","","","","","","","","","","","","","","","","","","","","","","","","","","","","","","","","","","",""
"","","","fullscreen","3","90035","0.0-2.0","4","4","4","4","3","4","4","3","4","4","5","5","4","1","1","1","4","4","5","5","1","1","1","1","1","1","1","2","1","0","1","0","0","1","0","0","0","0","0","0","0","0","0","1","5","1","1","2","1","","2","1","2","2","1","781521029972627457","张","266","","true","{}","","","","","","","","","","","","","","","","","","","","","","","","","","","","","","","","","","","","","","",""
"152176.69999992847","","{""Q01"":""4"",""Q02"":""4"",""Q03"":""4"",""Q04"":""4"",""Q05"":""3"",""Q06"":""4"",""Q07"":""4"",""Q08"":""3"",""Q09"":""4"",""Q10"":""4""}","survey-template","4","242214","0.0-3.0","4","4","4","4","3","4","4","3","4","4","5","5","4","1","1","1","4","4","5","5","1","1","1","1","1","1","1","2","1","0","1","0","0","1","0","0","0","0","0","0","0","0","0","1","5","1","1","2","1","","2","1","2","2","1","781521029972627457","张","266","","","","{""Q01"":""4"",""Q02"":""4"",""Q03"":""4"",""Q04"":""4"",""Q05"":""3"",""Q06"":""4"",""Q07"":""4"",""Q08"":""3"",""Q09"":""4"",""Q10"":""4""}","[0,1,2,3,4,5,6,7,8,9]","[""Q01"",""Q02"",""Q03"",""Q04"",""Q05"",""Q05"",""Q06"",""Q07"",""Q08"",""Q08"",""Q09"",""Q09"",""Q10"",""Q08""]","[3936.7999999523163,5841.799999952316,61446.5,66999.29999995232,85288.59999990463,85352.89999997616,87168.79999995232,89553.19999992847,95553.69999992847,95633.69999992847,98506.39999997616,99674.5,144774.59999990463,150672.39999997616]","[]","[2688.5,3352.6999999284744,3936.7999999523163,5841.799999952316,61446.5,66999.29999995232,84529.29999995232,85288.59999990463,85352.89999997616,87168.79999995232,89553.19999992847,95553.69999992847,95633.69999992847,98506.39999997616,99674.5,144774.59999990463,150672.39999997616,152175.59999990463]","0.5","0.3333333333333333","0","","","","","","","","","","","","","","","","","","","","","","","","","","","","","",""
"50654.90000009537","","{""Q01"":""5"",""Q02"":""5"",""Q03"":""4"",""Q04"":""1"",""Q05"":""1"",""Q06"":""1"",""Q07"":""4"",""Q08"":""4"",""Q09"":""5"",""Q10"":""5""}","survey-template","5","292875","0.0-4.0","4","4","4","4","3","4","4","3","4","4","5","5","4","1","1","1","4","4","5","5","1","1","1","1","1","1","1","2","1","0","1","0","0","1","0","0","0","0","0","0","0","0","0","1","5","1","1","2","1","","2","1","2","2","1","781521029972627457","张","266","","","","{""Q01"":""5"",""Q02"":""5"",""Q03"":""4"",""Q04"":""1"",""Q05"":""1"",""Q06"":""1"",""Q07"":""4"",""Q08"":""4"",""Q09"":""5"",""Q10"":""5""}","[0,1,2,3,4,5,6,7,8,9]","[""Q01"",""Q02"",""Q03"",""Q04"",""Q05"",""Q06"",""Q07"",""Q08"",""Q08"",""Q10"",""Q09""]","[12250.200000047684,30451.900000095367,34844.200000047684,36740.40000009537,38020.90000009537,39756.700000047684,42500.90000009537,44053.5,45365.5,48805.5,49510.5]","[]","[12250.200000047684,28971.700000047684,30451.900000095367,34844.200000047684,36740.40000009537,38020.90000009537,39756.700000047684,42500.90000009537,44053.5,45365.5,47389.300000071526,48805.5,49510.5,50653.90000009537]","0.4","0.7777777777777778","0","","","","","","","","","","","","","","","","","","","","","","","","","","","","","",""
"","","","preload","6","293165","0.0-5.0","4","4","4","4","3","4","4","3","4","4","5","5","4","1","1","1","4","4","5","5","1","1","1","1","1","1","1","2","1","0","1","0","0","1","0","0","0","0","0","0","0","0","0","1","5","1","1","2","1","","2","1","2","2","1","781521029972627457","张","266","","true","","","","","","","","","","","false","[]","[]","[]","","","","","","","","","","","","","","","","","","","","","","","","","",""
"26406","
    <h3>词语分类任务</h3>
    <p>在接下来的任务中，你需要对一系列词语进行分类。</p>
    <p>请先熟悉这些词语，这有利于你完成接下来的任务。</p>
    <table align=""center"" border=1 cellpadding=3 cellspacing=0>
    <tr> <th>类别</th> <th>词语</th> </tr>
    <tr> <td>&emsp;积极&emsp;</td> <td>&emsp;能干、全能、全才、高效、精干、天才&emsp;</td> </tr>
    <tr> <td>&emsp;消极&emsp;</td> <td>&emsp;无能、低能、废物、拙笨、愚钝、蠢笨&emsp;</td> </tr>
    <tr> <td>&emsp;自我&emsp;</td> <td>&emsp;我、我的、自己、自己的、本人、本人的&emsp;</td> </tr>
    <tr> <td>&emsp;他人&emsp;</td> <td>&emsp;他、他的、别人、别人的、他人、他人的&emsp;</td> </tr>
    </table><br/>","0","html-button-response","7","319573","0.0-6.0-0.0-0.0","4","4","4","4","3","4","4","3","4","4","5","5","4","1","1","1","4","4","5","5","1","1","1","1","1","1","1","2","1","0","1","0","0","1","0","0","0","0","0","0","0","0","0","1","5","1","1","2","1","","2","1","2","2","1","781521029972627457","张","266","","","","","","","","","","","","","","","","","1","1","","","","","","","","","","","","","","","","","","","","","","","",""
"17007","
    <div class=""tag-bottom"">
    <p> —— 任务1：对“自我”词和“他人”词分类 ——<p/>
    不同词语会出现在屏幕中央，类别标签将始终显示在屏幕上方<p/>   
    <span style=""color:#FFD866""><b>请根据上方标签的提示，尽可能正确并且快速地做出按键反应</b></span><p/>
    当按键错误时屏幕中会出现<span style=""color:red""> X </span>，需要按另一个键纠正才能继续<br/><p/>
    请把双手食指分别放在键盘的“E”键和“I”键上<p/>
    按<空格键>开始
    </p></div>"," ","html-keyboard-response","8","336583","0.0-6.0-0.0-1.0","4","4","4","4","3","4","4","3","4","4","5","5","4","1","1","1","4","4","5","5","1","1","1","1","1","1","1","2","1","0","1","0","0","1","0","0","0","0","0","0","0","0","0","1","5","1","1","2","1","","2","1","2","2","1","781521029972627457","张","266","","","","","","","","","","","","","","","","","","","","","","","","","","","","","","","","","","","","","","","","","",""
"null","","null","html-keyboard-response","9","336834","0.0-6.0-0.0-2.0-0.0","4","4","4","4","3","4","4","3","4","4","5","5","4","1","1","1","4","4","5","5","1","1","1","1","1","1","1","2","1","0","1","0","0","1","0","0","0","0","0","0","0","0","0","1","5","1","1","2","1","","2","1","2","2","1","781521029972627457","张","266","","","","","","","","","","","","","","","","","","","","","","","","","","","","","","","","","","","","","","","","","",""
"883","<p style=""color:rgb(150, 250, 100); font-size: 35px;"">他的</p>","i","categorize-html","10","337720","0.0-6.0-0.0-2.0-1.0","4","4","4","4","3","4","4","3","4","4","5","5","4","1","1","1","4","4","5","5","1","1","1","1","1","1","1","2","1","0","1","0","0","1","0","0","0","0","0","0","0","0","0","1","5","1","1","2","1","","2","1","2","2","1","781521029972627457","张","266","","","","","","","","","","","","","","","","","","","true","1","1","ability","883","other","他的","","","","","","","","","","","","","","","","",""
"null","","null","html-keyboard-response","11","337972","0.0-6.0-0.0-2.0-0.1","4","4","4","4","3","4","4","3","4","4","5","5","4","1","1","1","4","4","5","5","1","1","1","1","1","1","1","2","1","0","1","0","0","1","0","0","0","0","0","0","0","0","0","1","5","1","1","2","1","","2","1","2","2","1","781521029972627457","张","266","","","","","","","","","","","","","","","","","","","","","","","","","","","","","","","","","","","","","","","","","",""
"730","<p style=""color:rgb(150, 250, 100); font-size: 35px;"">自己</p>","e","categorize-html","12","338703","0.0-6.0-0.0-2.0-1.1","4","4","4","4","3","4","4","3","4","4","5","5","4","1","1","1","4","4","5","5","1","1","1","1","1","1","1","2","1","0","1","0","0","1","0","0","0","0","0","0","0","0","0","1","5","1","1","2","1","","2","1","2","2","1","781521029972627457","张","266","","","","","","","","","","","","","","","","","","","true","1","1","ability","730","self","自己","","","","","","","","","","","","","","","","",""
"null","","null","html-keyboard-response","13","338954","0.0-6.0-0.0-2.0-0.2","4","4","4","4","3","4","4","3","4","4","5","5","4","1","1","1","4","4","5","5","1","1","1","1","1","1","1","2","1","0","1","0","0","1","0","0","0","0","0","0","0","0","0","1","5","1","1","2","1","","2","1","2","2","1","781521029972627457","张","266","","","","","","","","","","","","","","","","","","","","","","","","","","","","","","","","","","","","","","","","","",""
"820","<p style=""color:rgb(150, 250, 100); font-size: 35px;"">我的</p>","e","categorize-html","14","339775","0.0-6.0-0.0-2.0-1.2","4","4","4","4","3","4","4","3","4","4","5","5","4","1","1","1","4","4","5","5","1","1","1","1","1","1","1","2","1","0","1","0","0","1","0","0","0","0","0","0","0","0","0","1","5","1","1","2","1","","2","1","2","2","1","781521029972627457","张","266","","","","","","","","","","","","","","","","","","","true","1","1","ability","820","self","我的","","","","","","","","","","","","","","","","",""
"null","","null","html-keyboard-response","15","340026","0.0-6.0-0.0-2.0-0.3","4","4","4","4","3","4","4","3","4","4","5","5","4","1","1","1","4","4","5","5","1","1","1","1","1","1","1","2","1","0","1","0","0","1","0","0","0","0","0","0","0","0","0","1","5","1","1","2","1","","2","1","2","2","1","781521029972627457","张","266","","","","","","","","","","","","","","","","","","","","","","","","","","","","","","","","","","","","","","","","","",""
"515","<p style=""color:rgb(150, 250, 100); font-size: 35px;"">我</p>","e","categorize-html","16","340544","0.0-6.0-0.0-2.0-1.3","4","4","4","4","3","4","4","3","4","4","5","5","4","1","1","1","4","4","5","5","1","1","1","1","1","1","1","2","1","0","1","0","0","1","0","0","0","0","0","0","0","0","0","1","5","1","1","2","1","","2","1","2","2","1","781521029972627457","张","266","","","","","","","","","","","","","","","","","","","true","1","1","ability","515","self","我","","","","","","","","","","","","","","","","",""
"null","","null","html-keyboard-response","17","340795","0.0-6.0-0.0-2.0-0.4","4","4","4","4","3","4","4","3","4","4","5","5","4","1","1","1","4","4","5","5","1","1","1","1","1","1","1","2","1","0","1","0","0","1","0","0","0","0","0","0","0","0","0","1","5","1","1","2","1","","2","1","2","2","1","781521029972627457","张","266","","","","","","","","","","","","","","","","","","","","","","","","","","","","","","","","","","","","","","","","","",""
"707","<p style=""color:rgb(150, 250, 100); font-size: 35px;"">他人的</p>","i","categorize-html","18","341504","0.0-6.0-0.0-2.0-1.4","4","4","4","4","3","4","4","3","4","4","5","5","4","1","1","1","4","4","5","5","1","1","1","1","1","1","1","2","1","0","1","0","0","1","0","0","0","0","0","0","0","0","0","1","5","1","1","2","1","","2","1","2","2","1","781521029972627457","张","266","","","","","","","","","","","","","","","","","","","true","1","1","ability","707","other","他人的","","","","","","","","","","","","","","","","",""
"null","","null","html-keyboard-response","19","341757","0.0-6.0-0.0-2.0-0.5","4","4","4","4","3","4","4","3","4","4","5","5","4","1","1","1","4","4","5","5","1","1","1","1","1","1","1","2","1","0","1","0","0","1","0","0","0","0","0","0","0","0","0","1","5","1","1","2","1","","2","1","2","2","1","781521029972627457","张","266","","","","","","","","","","","","","","","","","","","","","","","","","","","","","","","","","","","","","","","","","",""
"681","<p style=""color:rgb(150, 250, 100); font-size: 35px;"">他人</p>","i","categorize-html","20","342440","0.0-6.0-0.0-2.0-1.5","4","4","4","4","3","4","4","3","4","4","5","5","4","1","1","1","4","4","5","5","1","1","1","1","1","1","1","2","1","0","1","0","0","1","0","0","0","0","0","0","0","0","0","1","5","1","1","2","1","","2","1","2","2","1","781521029972627457","张","266","","","","","","","","","","","","","","","","","","","true","1","1","ability","681","other","他人","","","","","","","","","","","","","","","","",""
"null","","null","html-keyboard-response","21","342692","0.0-6.0-0.0-2.0-0.6","4","4","4","4","3","4","4","3","4","4","5","5","4","1","1","1","4","4","5","5","1","1","1","1","1","1","1","2","1","0","1","0","0","1","0","0","0","0","0","0","0","0","0","1","5","1","1","2","1","","2","1","2","2","1","781521029972627457","张","266","","","","","","","","","","","","","","","","","","","","","","","","","","","","","","","","","","","","","","","","","",""
"466","<p style=""color:rgb(150, 250, 100); font-size: 35px;"">他</p>","i","categorize-html","22","343160","0.0-6.0-0.0-2.0-1.6","4","4","4","4","3","4","4","3","4","4","5","5","4","1","1","1","4","4","5","5","1","1","1","1","1","1","1","2","1","0","1","0","0","1","0","0","0","0","0","0","0","0","0","1","5","1","1","2","1","","2","1","2","2","1","781521029972627457","张","266","","","","","","","","","","","","","","","","","","","true","1","1","ability","466","other","他","","","","","","","","","","","","","","","","",""
"null","","null","html-keyboard-response","23","343411","0.0-6.0-0.0-2.0-0.7","4","4","4","4","3","4","4","3","4","4","5","5","4","1","1","1","4","4","5","5","1","1","1","1","1","1","1","2","1","0","1","0","0","1","0","0","0","0","0","0","0","0","0","1","5","1","1","2","1","","2","1","2","2","1","781521029972627457","张","266","","","","","","","","","","","","","","","","","","","","","","","","","","","","","","","","","","","","","","","","","",""
"507","<p style=""color:rgb(150, 250, 100); font-size: 35px;"">自己的</p>","e","categorize-html","24","343920","0.0-6.0-0.0-2.0-1.7","4","4","4","4","3","4","4","3","4","4","5","5","4","1","1","1","4","4","5","5","1","1","1","1","1","1","1","2","1","0","1","0","0","1","0","0","0","0","0","0","0","0","0","1","5","1","1","2","1","","2","1","2","2","1","781521029972627457","张","266","","","","","","","","","","","","","","","","","","","true","1","1","ability","507","self","自己的","","","","","","","","","","","","","","","","",""
"null","","null","html-keyboard-response","25","344172","0.0-6.0-0.0-2.0-0.8","4","4","4","4","3","4","4","3","4","4","5","5","4","1","1","1","4","4","5","5","1","1","1","1","1","1","1","2","1","0","1","0","0","1","0","0","0","0","0","0","0","0","0","1","5","1","1","2","1","","2","1","2","2","1","781521029972627457","张","266","","","","","","","","","","","","","","","","","","","","","","","","","","","","","","","","","","","","","","","","","",""
"547","<p style=""color:rgb(150, 250, 100); font-size: 35px;"">别人的</p>","i","categorize-html","26","344720","0.0-6.0-0.0-2.0-1.8","4","4","4","4","3","4","4","3","4","4","5","5","4","1","1","1","4","4","5","5","1","1","1","1","1","1","1","2","1","0","1","0","0","1","0","0","0","0","0","0","0","0","0","1","5","1","1","2","1","","2","1","2","2","1","781521029972627457","张","266","","","","","","","","","","","","","","","","","","","true","1","1","ability","547","other","别人的","","","","","","","","","","","","","","","","",""
"null","","null","html-keyboard-response","27","344971","0.0-6.0-0.0-2.0-0.9","4","4","4","4","3","4","4","3","4","4","5","5","4","1","1","1","4","4","5","5","1","1","1","1","1","1","1","2","1","0","1","0","0","1","0","0","0","0","0","0","0","0","0","1","5","1","1","2","1","","2","1","2","2","1","781521029972627457","张","266","","","","","","","","","","","","","","","","","","","","","","","","","","","","","","","","","","","","","","","","","",""
"780","<p style=""color:rgb(150, 250, 100); font-size: 35px;"">本人的</p>","e","categorize-html","28","345752","0.0-6.0-0.0-2.0-1.9","4","4","4","4","3","4","4","3","4","4","5","5","4","1","1","1","4","4","5","5","1","1","1","1","1","1","1","2","1","0","1","0","0","1","0","0","0","0","0","0","0","0","0","1","5","1","1","2","1","","2","1","2","2","1","781521029972627457","张","266","","","","","","","","","","","","","","","","","","","true","1","1","ability","780","self","本人的","","","","","","","","","","","","","","","","",""
"null","","null","html-keyboard-response","29","346002","0.0-6.0-0.0-2.0-0.10","4","4","4","4","3","4","4","3","4","4","5","5","4","1","1","1","4","4","5","5","1","1","1","1","1","1","1","2","1","0","1","0","0","1","0","0","0","0","0","0","0","0","0","1","5","1","1","2","1","","2","1","2","2","1","781521029972627457","张","266","","","","","","","","","","","","","","","","","","","","","","","","","","","","","","","","","","","","","","","","","",""
"549","<p style=""color:rgb(150, 250, 100); font-size: 35px;"">别人</p>","i","categorize-html","30","346553","0.0-6.0-0.0-2.0-1.10","4","4","4","4","3","4","4","3","4","4","5","5","4","1","1","1","4","4","5","5","1","1","1","1","1","1","1","2","1","0","1","0","0","1","0","0","0","0","0","0","0","0","0","1","5","1","1","2","1","","2","1","2","2","1","781521029972627457","张","266","","","","","","","","","","","","","","","","","","","true","1","1","ability","549","other","别人","","","","","","","","","","","","","","","","",""
"null","","null","html-keyboard-response","31","346804","0.0-6.0-0.0-2.0-0.11","4","4","4","4","3","4","4","3","4","4","5","5","4","1","1","1","4","4","5","5","1","1","1","1","1","1","1","2","1","0","1","0","0","1","0","0","0","0","0","0","0","0","0","1","5","1","1","2","1","","2","1","2","2","1","781521029972627457","张","266","","","","","","","","","","","","","","","","","","","","","","","","","","","","","","","","","","","","","","","","","",""
"723","<p style=""color:rgb(150, 250, 100); font-size: 35px;"">本人</p>","e","categorize-html","32","347529","0.0-6.0-0.0-2.0-1.11","4","4","4","4","3","4","4","3","4","4","5","5","4","1","1","1","4","4","5","5","1","1","1","1","1","1","1","2","1","0","1","0","0","1","0","0","0","0","0","0","0","0","0","1","5","1","1","2","1","","2","1","2","2","1","781521029972627457","张","266","","","","","","","","","","","","","","","","","","","true","1","1","ability","723","self","本人","","","","","","","","","","","","","","","","",""
"7687","
    <div class=""tag-bottom""><p>
    —— 任务2：对“积极”词和“消极”词分类 ——<p/>   
    <span style=""color:#78DCE8""><b>注意上方，类别标签和需要分类的词语都已经改变</b></span><p/>
    <span style=""color:#FFD866""><b>请根据上方标签的提示，尽可能正确并且快速地做出按键反应</b></span><p/>
    当按键错误时屏幕中会出现<span style=""color:red""> X </span>，需要按另一个键纠正才能继续<br/><p/>
    请把双手食指分别放在键盘的“E”键和“I”键上<p/>
    按<空格键>开始
    </p></div>"," ","html-keyboard-response","33","355216","0.0-6.0-0.0-3.0","4","4","4","4","3","4","4","3","4","4","5","5","4","1","1","1","4","4","5","5","1","1","1","1","1","1","1","2","1","0","1","0","0","1","0","0","0","0","0","0","0","0","0","1","5","1","1","2","1","","2","1","2","2","1","781521029972627457","张","266","","","","","","","","","","","","","","","","","","","","","","","","","","","","","","","","","","","","","","","","","",""
"null","","null","html-keyboard-response","34","355467","0.0-6.0-0.0-4.0-0.0","4","4","4","4","3","4","4","3","4","4","5","5","4","1","1","1","4","4","5","5","1","1","1","1","1","1","1","2","1","0","1","0","0","1","0","0","0","0","0","0","0","0","0","1","5","1","1","2","1","","2","1","2","2","1","781521029972627457","张","266","","","","","","","","","","","","","","","","","","","","","","","","","","","","","","","","","","","","","","","","","",""
"852","<p style=""color:white; font-size: 35px;"">拙笨</p>","i","categorize-html","35","356321","0.0-6.0-0.0-4.0-1.0","4","4","4","4","3","4","4","3","4","4","5","5","4","1","1","1","4","4","5","5","1","1","1","1","1","1","1","2","1","0","1","0","0","1","0","0","0","0","0","0","0","0","0","1","5","1","1","2","1","","2","1","2","2","1","781521029972627457","张","266","","","","","","","","","","","","","","","","","","","true","2","2","ability","852","negative","拙笨","","","","","","","","","","","","","","","","",""
"null","","null","html-keyboard-response","36","356572","0.0-6.0-0.0-4.0-0.1","4","4","4","4","3","4","4","3","4","4","5","5","4","1","1","1","4","4","5","5","1","1","1","1","1","1","1","2","1","0","1","0","0","1","0","0","0","0","0","0","0","0","0","1","5","1","1","2","1","","2","1","2","2","1","781521029972627457","张","266","","","","","","","","","","","","","","","","","","","","","","","","","","","","","","","","","","","","","","","","","",""
"731","<p style=""color:white; font-size: 35px;"">天才</p>","e","categorize-html","37","357305","0.0-6.0-0.0-4.0-1.1","4","4","4","4","3","4","4","3","4","4","5","5","4","1","1","1","4","4","5","5","1","1","1","1","1","1","1","2","1","0","1","0","0","1","0","0","0","0","0","0","0","0","0","1","5","1","1","2","1","","2","1","2","2","1","781521029972627457","张","266","","","","","","","","","","","","","","","","","","","true","2","2","ability","731","positive","天才","","","","","","","","","","","","","","","","",""
"null","","null","html-keyboard-response","38","357556","0.0-6.0-0.0-4.0-0.2","4","4","4","4","3","4","4","3","4","4","5","5","4","1","1","1","4","4","5","5","1","1","1","1","1","1","1","2","1","0","1","0","0","1","0","0","0","0","0","0","0","0","0","1","5","1","1","2","1","","2","1","2","2","1","781521029972627457","张","266","","","","","","","","","","","","","","","","","","","","","","","","","","","","","","","","","","","","","","","","","",""
"819","<p style=""color:white; font-size: 35px;"">无能</p>","i","categorize-html","39","358377","0.0-6.0-0.0-4.0-1.2","4","4","4","4","3","4","4","3","4","4","5","5","4","1","1","1","4","4","5","5","1","1","1","1","1","1","1","2","1","0","1","0","0","1","0","0","0","0","0","0","0","0","0","1","5","1","1","2","1","","2","1","2","2","1","781521029972627457","张","266","","","","","","","","","","","","","","","","","","","true","2","2","ability","819","negative","无能","","","","","","","","","","","","","","","","",""
"null","","null","html-keyboard-response","40","358628","0.0-6.0-0.0-4.0-0.3","4","4","4","4","3","4","4","3","4","4","5","5","4","1","1","1","4","4","5","5","1","1","1","1","1","1","1","2","1","0","1","0","0","1","0","0","0","0","0","0","0","0","0","1","5","1","1","2","1","","2","1","2","2","1","781521029972627457","张","266","","","","","","","","","","","","","","","","","","","","","","","","","","","","","","","","","","","","","","","","","",""
"635","<p style=""color:white; font-size: 35px;"">低能</p>","i","categorize-html","41","359265","0.0-6.0-0.0-4.0-1.3","4","4","4","4","3","4","4","3","4","4","5","5","4","1","1","1","4","4","5","5","1","1","1","1","1","1","1","2","1","0","1","0","0","1","0","0","0","0","0","0","0","0","0","1","5","1","1","2","1","","2","1","2","2","1","781521029972627457","张","266","","","","","","","","","","","","","","","","","","","true","2","2","ability","635","negative","低能","","","","","","","","","","","","","","","","",""
"null","","null","html-keyboard-response","42","359516","0.0-6.0-0.0-4.0-0.4","4","4","4","4","3","4","4","3","4","4","5","5","4","1","1","1","4","4","5","5","1","1","1","1","1","1","1","2","1","0","1","0","0","1","0","0","0","0","0","0","0","0","0","1","5","1","1","2","1","","2","1","2","2","1","781521029972627457","张","266","","","","","","","","","","","","","","","","","","","","","","","","","","","","","","","","","","","","","","","","","",""
"612","<p style=""color:white; font-size: 35px;"">精干</p>","e","categorize-html","43","360129","0.0-6.0-0.0-4.0-1.4","4","4","4","4","3","4","4","3","4","4","5","5","4","1","1","1","4","4","5","5","1","1","1","1","1","1","1","2","1","0","1","0","0","1","0","0","0","0","0","0","0","0","0","1","5","1","1","2","1","","2","1","2","2","1","781521029972627457","张","266","","","","","","","","","","","","","","","","","","","true","2","2","ability","612","positive","精干","","","","","","","","","","","","","","","","",""
"null","","null","html-keyboard-response","44","360380","0.0-6.0-0.0-4.0-0.5","4","4","4","4","3","4","4","3","4","4","5","5","4","1","1","1","4","4","5","5","1","1","1","1","1","1","1","2","1","0","1","0","0","1","0","0","0","0","0","0","0","0","0","1","5","1","1","2","1","","2","1","2","2","1","781521029972627457","张","266","","","","","","","","","","","","","","","","","","","","","","","","","","","","","","","","","","","","","","","","","",""
"740","<p style=""color:white; font-size: 35px;"">全才</p>","e","categorize-html","45","361121","0.0-6.0-0.0-4.0-1.5","4","4","4","4","3","4","4","3","4","4","5","5","4","1","1","1","4","4","5","5","1","1","1","1","1","1","1","2","1","0","1","0","0","1","0","0","0","0","0","0","0","0","0","1","5","1","1","2","1","","2","1","2","2","1","781521029972627457","张","266","","","","","","","","","","","","","","","","","","","true","2","2","ability","740","positive","全才","","","","","","","","","","","","","","","","",""
"null","","null","html-keyboard-response","46","361372","0.0-6.0-0.0-4.0-0.6","4","4","4","4","3","4","4","3","4","4","5","5","4","1","1","1","4","4","5","5","1","1","1","1","1","1","1","2","1","0","1","0","0","1","0","0","0","0","0","0","0","0","0","1","5","1","1","2","1","","2","1","2","2","1","781521029972627457","张","266","","","","","","","","","","","","","","","","","","","","","","","","","","","","","","","","","","","","","","","","","",""
"579","<p style=""color:white; font-size: 35px;"">全能</p>","e","categorize-html","47","361954","0.0-6.0-0.0-4.0-1.6","4","4","4","4","3","4","4","3","4","4","5","5","4","1","1","1","4","4","5","5","1","1","1","1","1","1","1","2","1","0","1","0","0","1","0","0","0","0","0","0","0","0","0","1","5","1","1","2","1","","2","1","2","2","1","781521029972627457","张","266","","","","","","","","","","","","","","","","","","","true","2","2","ability","579","positive","全能","","","","","","","","","","","","","","","","",""
"null","","null","html-keyboard-response","48","362205","0.0-6.0-0.0-4.0-0.7","4","4","4","4","3","4","4","3","4","4","5","5","4","1","1","1","4","4","5","5","1","1","1","1","1","1","1","2","1","0","1","0","0","1","0","0","0","0","0","0","0","0","0","1","5","1","1","2","1","","2","1","2","2","1","781521029972627457","张","266","","","","","","","","","","","","","","","","","","","","","","","","","","","","","","","","","","","","","","","","","",""
"556","<p style=""color:white; font-size: 35px;"">高效</p>","e","categorize-html","49","362763","0.0-6.0-0.0-4.0-1.7","4","4","4","4","3","4","4","3","4","4","5","5","4","1","1","1","4","4","5","5","1","1","1","1","1","1","1","2","1","0","1","0","0","1","0","0","0","0","0","0","0","0","0","1","5","1","1","2","1","","2","1","2","2","1","781521029972627457","张","266","","","","","","","","","","","","","","","","","","","true","2","2","ability","556","positive","高效","","","","","","","","","","","","","","","","",""
"null","","null","html-keyboard-response","50","363014","0.0-6.0-0.0-4.0-0.8","4","4","4","4","3","4","4","3","4","4","5","5","4","1","1","1","4","4","5","5","1","1","1","1","1","1","1","2","1","0","1","0","0","1","0","0","0","0","0","0","0","0","0","1","5","1","1","2","1","","2","1","2","2","1","781521029972627457","张","266","","","","","","","","","","","","","","","","","","","","","","","","","","","","","","","","","","","","","","","","","",""
"507","<p style=""color:white; font-size: 35px;"">蠢笨</p>","i","categorize-html","51","363522","0.0-6.0-0.0-4.0-1.8","4","4","4","4","3","4","4","3","4","4","5","5","4","1","1","1","4","4","5","5","1","1","1","1","1","1","1","2","1","0","1","0","0","1","0","0","0","0","0","0","0","0","0","1","5","1","1","2","1","","2","1","2","2","1","781521029972627457","张","266","","","","","","","","","","","","","","","","","","","true","2","2","ability","507","negative","蠢笨","","","","","","","","","","","","","","","","",""
"null","","null","html-keyboard-response","52","363774","0.0-6.0-0.0-4.0-0.9","4","4","4","4","3","4","4","3","4","4","5","5","4","1","1","1","4","4","5","5","1","1","1","1","1","1","1","2","1","0","1","0","0","1","0","0","0","0","0","0","0","0","0","1","5","1","1","2","1","","2","1","2","2","1","781521029972627457","张","266","","","","","","","","","","","","","","","","","","","","","","","","","","","","","","","","","","","","","","","","","",""
"699","<p style=""color:white; font-size: 35px;"">能干</p>","e","categorize-html","53","364474","0.0-6.0-0.0-4.0-1.9","4","4","4","4","3","4","4","3","4","4","5","5","4","1","1","1","4","4","5","5","1","1","1","1","1","1","1","2","1","0","1","0","0","1","0","0","0","0","0","0","0","0","0","1","5","1","1","2","1","","2","1","2","2","1","781521029972627457","张","266","","","","","","","","","","","","","","","","","","","true","2","2","ability","699","positive","能干","","","","","","","","","","","","","","","","",""
"null","","null","html-keyboard-response","54","364726","0.0-6.0-0.0-4.0-0.10","4","4","4","4","3","4","4","3","4","4","5","5","4","1","1","1","4","4","5","5","1","1","1","1","1","1","1","2","1","0","1","0","0","1","0","0","0","0","0","0","0","0","0","1","5","1","1","2","1","","2","1","2","2","1","781521029972627457","张","266","","","","","","","","","","","","","","","","","","","","","","","","","","","","","","","","","","","","","","","","","",""
"714","<p style=""color:white; font-size: 35px;"">废物</p>","i","categorize-html","55","365442","0.0-6.0-0.0-4.0-1.10","4","4","4","4","3","4","4","3","4","4","5","5","4","1","1","1","4","4","5","5","1","1","1","1","1","1","1","2","1","0","1","0","0","1","0","0","0","0","0","0","0","0","0","1","5","1","1","2","1","","2","1","2","2","1","781521029972627457","张","266","","","","","","","","","","","","","","","","","","","true","2","2","ability","714","negative","废物","","","","","","","","","","","","","","","","",""
"null","","null","html-keyboard-response","56","365693","0.0-6.0-0.0-4.0-0.11","4","4","4","4","3","4","4","3","4","4","5","5","4","1","1","1","4","4","5","5","1","1","1","1","1","1","1","2","1","0","1","0","0","1","0","0","0","0","0","0","0","0","0","1","5","1","1","2","1","","2","1","2","2","1","781521029972627457","张","266","","","","","","","","","","","","","","","","","","","","","","","","","","","","","","","","","","","","","","","","","",""
"1131","<p style=""color:white; font-size: 35px;"">愚钝</p>","i","categorize-html","57","366826","0.0-6.0-0.0-4.0-1.11","4","4","4","4","3","4","4","3","4","4","5","5","4","1","1","1","4","4","5","5","1","1","1","1","1","1","1","2","1","0","1","0","0","1","0","0","0","0","0","0","0","0","0","1","5","1","1","2","1","","2","1","2","2","1","781521029972627457","张","266","","","","","","","","","","","","","","","","","","","true","2","2","ability","1131","negative","愚钝","","","","","","","","","","","","","","","","",""
"4231","
    <div class=""tag-bottom""><p>
    —— 任务3：对“自我/积极”词和“他人/消极”词分类 ——<p/>
    <span style=""color:#78DCE8""><b>注意上方，之前的四类词语将混合在一起交替呈现</b></span><p/>
    <span style=""color:#FFD866""><b>请根据上方标签的提示，尽可能正确并且快速地做出按键反应</b></span><p/>
    当按键错误时屏幕中会出现<span style=""color:red""> X </span>，需要按另一个键纠正才能继续<br/><p/>
    请把双手食指分别放在键盘的“E”键和“I”键上<p/>
    按<空格键>开始
    </p></div>"," ","html-keyboard-response","58","371057","0.0-6.0-0.0-5.0","4","4","4","4","3","4","4","3","4","4","5","5","4","1","1","1","4","4","5","5","1","1","1","1","1","1","1","2","1","0","1","0","0","1","0","0","0","0","0","0","0","0","0","1","5","1","1","2","1","","2","1","2","2","1","781521029972627457","张","266","","","","","","","","","","","","","","","","","","","","","","","","","","","","","","","","","","","","","","","","","",""
"null","","null","html-keyboard-response","59","371308","0.0-6.0-0.0-6.0-0.0","4","4","4","4","3","4","4","3","4","4","5","5","4","1","1","1","4","4","5","5","1","1","1","1","1","1","1","2","1","0","1","0","0","1","0","0","0","0","0","0","0","0","0","1","5","1","1","2","1","","2","1","2","2","1","781521029972627457","张","266","","","","","","","","","","","","","","","","","","","","","","","","","","","","","","","","","","","","","","","","","",""
"852","<p style=""color:rgb(150, 250, 100); font-size: 35px;"">他</p>","i","categorize-html","60","372163","0.0-6.0-0.0-6.0-1.0","4","4","4","4","3","4","4","3","4","4","5","5","4","1","1","1","4","4","5","5","1","1","1","1","1","1","1","2","1","0","1","0","0","1","0","0","0","0","0","0","0","0","0","1","5","1","1","2","1","","2","1","2","2","1","781521029972627457","张","266","","","","","","","","","","","","","","","","","","","true","3","3","ability","852","other","他","","","","","","","","","","","","","","","","",""
"null","","null","html-keyboard-response","61","372414","0.0-6.0-0.0-6.0-0.1","4","4","4","4","3","4","4","3","4","4","5","5","4","1","1","1","4","4","5","5","1","1","1","1","1","1","1","2","1","0","1","0","0","1","0","0","0","0","0","0","0","0","0","1","5","1","1","2","1","","2","1","2","2","1","781521029972627457","张","266","","","","","","","","","","","","","","","","","","","","","","","","","","","","","","","","","","","","","","","","","",""
"531","<p style=""color:white; font-size: 35px;"">低能</p>","i","categorize-html","62","372947","0.0-6.0-0.0-6.0-1.1","4","4","4","4","3","4","4","3","4","4","5","5","4","1","1","1","4","4","5","5","1","1","1","1","1","1","1","2","1","0","1","0","0","1","0","0","0","0","0","0","0","0","0","1","5","1","1","2","1","","2","1","2","2","1","781521029972627457","张","266","","","","","","","","","","","","","","","","","","","true","3","3","ability","531","negative","低能","","","","","","","","","","","","","","","","",""
"null","","null","html-keyboard-response","63","373199","0.0-6.0-0.0-6.0-0.2","4","4","4","4","3","4","4","3","4","4","5","5","4","1","1","1","4","4","5","5","1","1","1","1","1","1","1","2","1","0","1","0","0","1","0","0","0","0","0","0","0","0","0","1","5","1","1","2","1","","2","1","2","2","1","781521029972627457","张","266","","","","","","","","","","","","","","","","","","","","","","","","","","","","","","","","","","","","","","","","","",""
"730","<p style=""color:rgb(150, 250, 100); font-size: 35px;"">自己的</p>","e","categorize-html","64","373931","0.0-6.0-0.0-6.0-1.2","4","4","4","4","3","4","4","3","4","4","5","5","4","1","1","1","4","4","5","5","1","1","1","1","1","1","1","2","1","0","1","0","0","1","0","0","0","0","0","0","0","0","0","1","5","1","1","2","1","","2","1","2","2","1","781521029972627457","张","266","","","","","","","","","","","","","","","","","","","true","3","3","ability","730","self","自己的","","","","","","","","","","","","","","","","",""
"null","","null","html-keyboard-response","65","374182","0.0-6.0-0.0-6.0-0.3","4","4","4","4","3","4","4","3","4","4","5","5","4","1","1","1","4","4","5","5","1","1","1","1","1","1","1","2","1","0","1","0","0","1","0","0","0","0","0","0","0","0","0","1","5","1","1","2","1","","2","1","2","2","1","781521029972627457","张","266","","","","","","","","","","","","","","","","","","","","","","","","","","","","","","","","","","","","","","","","","",""
"739","<p style=""color:white; font-size: 35px;"">全才</p>","e","categorize-html","66","374923","0.0-6.0-0.0-6.0-1.3","4","4","4","4","3","4","4","3","4","4","5","5","4","1","1","1","4","4","5","5","1","1","1","1","1","1","1","2","1","0","1","0","0","1","0","0","0","0","0","0","0","0","0","1","5","1","1","2","1","","2","1","2","2","1","781521029972627457","张","266","","","","","","","","","","","","","","","","","","","true","3","3","ability","739","positive","全才","","","","","","","","","","","","","","","","",""
"null","","null","html-keyboard-response","67","375174","0.0-6.0-0.0-6.0-0.4","4","4","4","4","3","4","4","3","4","4","5","5","4","1","1","1","4","4","5","5","1","1","1","1","1","1","1","2","1","0","1","0","0","1","0","0","0","0","0","0","0","0","0","1","5","1","1","2","1","","2","1","2","2","1","781521029972627457","张","266","","","","","","","","","","","","","","","","","","","","","","","","","","","","","","","","","","","","","","","","","",""
"587","<p style=""color:rgb(150, 250, 100); font-size: 35px;"">他人</p>","i","categorize-html","68","375763","0.0-6.0-0.0-6.0-1.4","4","4","4","4","3","4","4","3","4","4","5","5","4","1","1","1","4","4","5","5","1","1","1","1","1","1","1","2","1","0","1","0","0","1","0","0","0","0","0","0","0","0","0","1","5","1","1","2","1","","2","1","2","2","1","781521029972627457","张","266","","","","","","","","","","","","","","","","","","","true","3","3","ability","587","other","他人","","","","","","","","","","","","","","","","",""
"null","","null","html-keyboard-response","69","376015","0.0-6.0-0.0-6.0-0.5","4","4","4","4","3","4","4","3","4","4","5","5","4","1","1","1","4","4","5","5","1","1","1","1","1","1","1","2","1","0","1","0","0","1","0","0","0","0","0","0","0","0","0","1","5","1","1","2","1","","2","1","2","2","1","781521029972627457","张","266","","","","","","","","","","","","","","","","","","","","","","","","","","","","","","","","","","","","","","","","","",""
"603","<p style=""color:white; font-size: 35px;"">高效</p>","e","categorize-html","70","376619","0.0-6.0-0.0-6.0-1.5","4","4","4","4","3","4","4","3","4","4","5","5","4","1","1","1","4","4","5","5","1","1","1","1","1","1","1","2","1","0","1","0","0","1","0","0","0","0","0","0","0","0","0","1","5","1","1","2","1","","2","1","2","2","1","781521029972627457","张","266","","","","","","","","","","","","","","","","","","","true","3","3","ability","603","positive","高效","","","","","","","","","","","","","","","","",""
"null","","null","html-keyboard-response","71","376871","0.0-6.0-0.0-6.0-0.6","4","4","4","4","3","4","4","3","4","4","5","5","4","1","1","1","4","4","5","5","1","1","1","1","1","1","1","2","1","0","1","0","0","1","0","0","0","0","0","0","0","0","0","1","5","1","1","2","1","","2","1","2","2","1","781521029972627457","张","266","","","","","","","","","","","","","","","","","","","","","","","","","","","","","","","","","","","","","","","","","",""
"594","<p style=""color:rgb(150, 250, 100); font-size: 35px;"">自己</p>","e","categorize-html","72","377467","0.0-6.0-0.0-6.0-1.6","4","4","4","4","3","4","4","3","4","4","5","5","4","1","1","1","4","4","5","5","1","1","1","1","1","1","1","2","1","0","1","0","0","1","0","0","0","0","0","0","0","0","0","1","5","1","1","2","1","","2","1","2","2","1","781521029972627457","张","266","","","","","","","","","","","","","","","","","","","true","3","3","ability","594","self","自己","","","","","","","","","","","","","","","","",""
"null","","null","html-keyboard-response","73","377718","0.0-6.0-0.0-6.0-0.7","4","4","4","4","3","4","4","3","4","4","5","5","4","1","1","1","4","4","5","5","1","1","1","1","1","1","1","2","1","0","1","0","0","1","0","0","0","0","0","0","0","0","0","1","5","1","1","2","1","","2","1","2","2","1","781521029972627457","张","266","","","","","","","","","","","","","","","","","","","","","","","","","","","","","","","","","","","","","","","","","",""
"963","<p style=""color:white; font-size: 35px;"">废物</p>","i","categorize-html","74","378683","0.0-6.0-0.0-6.0-1.7","4","4","4","4","3","4","4","3","4","4","5","5","4","1","1","1","4","4","5","5","1","1","1","1","1","1","1","2","1","0","1","0","0","1","0","0","0","0","0","0","0","0","0","1","5","1","1","2","1","","2","1","2","2","1","781521029972627457","张","266","","","","","","","","","","","","","","","","","","","true","3","3","ability","963","negative","废物","","","","","","","","","","","","","","","","",""
"null","","null","html-keyboard-response","75","378934","0.0-6.0-0.0-6.0-0.8","4","4","4","4","3","4","4","3","4","4","5","5","4","1","1","1","4","4","5","5","1","1","1","1","1","1","1","2","1","0","1","0","0","1","0","0","0","0","0","0","0","0","0","1","5","1","1","2","1","","2","1","2","2","1","781521029972627457","张","266","","","","","","","","","","","","","","","","","","","","","","","","","","","","","","","","","","","","","","","","","",""
"731","<p style=""color:rgb(150, 250, 100); font-size: 35px;"">本人的</p>","e","categorize-html","76","379668","0.0-6.0-0.0-6.0-1.8","4","4","4","4","3","4","4","3","4","4","5","5","4","1","1","1","4","4","5","5","1","1","1","1","1","1","1","2","1","0","1","0","0","1","0","0","0","0","0","0","0","0","0","1","5","1","1","2","1","","2","1","2","2","1","781521029972627457","张","266","","","","","","","","","","","","","","","","","","","true","3","3","ability","731","self","本人的","","","","","","","","","","","","","","","","",""
"null","","null","html-keyboard-response","77","379919","0.0-6.0-0.0-6.0-0.9","4","4","4","4","3","4","4","3","4","4","5","5","4","1","1","1","4","4","5","5","1","1","1","1","1","1","1","2","1","0","1","0","0","1","0","0","0","0","0","0","0","0","0","1","5","1","1","2","1","","2","1","2","2","1","781521029972627457","张","266","","","","","","","","","","","","","","","","","","","","","","","","","","","","","","","","","","","","","","","","","",""
"595","<p style=""color:white; font-size: 35px;"">愚钝</p>","i","categorize-html","78","380515","0.0-6.0-0.0-6.0-1.9","4","4","4","4","3","4","4","3","4","4","5","5","4","1","1","1","4","4","5","5","1","1","1","1","1","1","1","2","1","0","1","0","0","1","0","0","0","0","0","0","0","0","0","1","5","1","1","2","1","","2","1","2","2","1","781521029972627457","张","266","","","","","","","","","","","","","","","","","","","true","3","3","ability","595","negative","愚钝","","","","","","","","","","","","","","","","",""
"null","","null","html-keyboard-response","79","380766","0.0-6.0-0.0-6.0-0.10","4","4","4","4","3","4","4","3","4","4","5","5","4","1","1","1","4","4","5","5","1","1","1","1","1","1","1","2","1","0","1","0","0","1","0","0","0","0","0","0","0","0","0","1","5","1","1","2","1","","2","1","2","2","1","781521029972627457","张","266","","","","","","","","","","","","","","","","","","","","","","","","","","","","","","","","","","","","","","","","","",""
"1211","<p style=""color:rgb(150, 250, 100); font-size: 35px;"">别人</p>","i","categorize-html","80","381980","0.0-6.0-0.0-6.0-1.10","4","4","4","4","3","4","4","3","4","4","5","5","4","1","1","1","4","4","5","5","1","1","1","1","1","1","1","2","1","0","1","0","0","1","0","0","0","0","0","0","0","0","0","1","5","1","1","2","1","","2","1","2","2","1","781521029972627457","张","266","","","","","","","","","","","","","","","","","","","true","3","3","ability","1211","other","别人","","","","","","","","","","","","","","","","",""
"null","","null","html-keyboard-response","81","382231","0.0-6.0-0.0-6.0-0.11","4","4","4","4","3","4","4","3","4","4","5","5","4","1","1","1","4","4","5","5","1","1","1","1","1","1","1","2","1","0","1","0","0","1","0","0","0","0","0","0","0","0","0","1","5","1","1","2","1","","2","1","2","2","1","781521029972627457","张","266","","","","","","","","","","","","","","","","","","","","","","","","","","","","","","","","","","","","","","","","","",""
"923","<p style=""color:white; font-size: 35px;"">天才</p>","e","categorize-html","82","383156","0.0-6.0-0.0-6.0-1.11","4","4","4","4","3","4","4","3","4","4","5","5","4","1","1","1","4","4","5","5","1","1","1","1","1","1","1","2","1","0","1","0","0","1","0","0","0","0","0","0","0","0","0","1","5","1","1","2","1","","2","1","2","2","1","781521029972627457","张","266","","","","","","","","","","","","","","","","","","","true","3","3","ability","923","positive","天才","","","","","","","","","","","","","","","","",""
"null","","null","html-keyboard-response","83","383407","0.0-6.0-0.0-6.0-0.12","4","4","4","4","3","4","4","3","4","4","5","5","4","1","1","1","4","4","5","5","1","1","1","1","1","1","1","2","1","0","1","0","0","1","0","0","0","0","0","0","0","0","0","1","5","1","1","2","1","","2","1","2","2","1","781521029972627457","张","266","","","","","","","","","","","","","","","","","","","","","","","","","","","","","","","","","","","","","","","","","",""
"707","<p style=""color:rgb(150, 250, 100); font-size: 35px;"">本人</p>","e","categorize-html","84","384116","0.0-6.0-0.0-6.0-1.12","4","4","4","4","3","4","4","3","4","4","5","5","4","1","1","1","4","4","5","5","1","1","1","1","1","1","1","2","1","0","1","0","0","1","0","0","0","0","0","0","0","0","0","1","5","1","1","2","1","","2","1","2","2","1","781521029972627457","张","266","","","","","","","","","","","","","","","","","","","true","3","3","ability","707","self","本人","","","","","","","","","","","","","","","","",""
"null","","null","html-keyboard-response","85","384367","0.0-6.0-0.0-6.0-0.13","4","4","4","4","3","4","4","3","4","4","5","5","4","1","1","1","4","4","5","5","1","1","1","1","1","1","1","2","1","0","1","0","0","1","0","0","0","0","0","0","0","0","0","1","5","1","1","2","1","","2","1","2","2","1","781521029972627457","张","266","","","","","","","","","","","","","","","","","","","","","","","","","","","","","","","","","","","","","","","","","",""
"563","<p style=""color:white; font-size: 35px;"">精干</p>","e","categorize-html","86","384932","0.0-6.0-0.0-6.0-1.13","4","4","4","4","3","4","4","3","4","4","5","5","4","1","1","1","4","4","5","5","1","1","1","1","1","1","1","2","1","0","1","0","0","1","0","0","0","0","0","0","0","0","0","1","5","1","1","2","1","","2","1","2","2","1","781521029972627457","张","266","","","","","","","","","","","","","","","","","","","true","3","3","ability","563","positive","精干","","","","","","","","","","","","","","","","",""
"null","","null","html-keyboard-response","87","385183","0.0-6.0-0.0-6.0-0.14","4","4","4","4","3","4","4","3","4","4","5","5","4","1","1","1","4","4","5","5","1","1","1","1","1","1","1","2","1","0","1","0","0","1","0","0","0","0","0","0","0","0","0","1","5","1","1","2","1","","2","1","2","2","1","781521029972627457","张","266","","","","","","","","","","","","","","","","","","","","","","","","","","","","","","","","","","","","","","","","","",""
"635","<p style=""color:rgb(150, 250, 100); font-size: 35px;"">他人的</p>","i","categorize-html","88","385820","0.0-6.0-0.0-6.0-1.14","4","4","4","4","3","4","4","3","4","4","5","5","4","1","1","1","4","4","5","5","1","1","1","1","1","1","1","2","1","0","1","0","0","1","0","0","0","0","0","0","0","0","0","1","5","1","1","2","1","","2","1","2","2","1","781521029972627457","张","266","","","","","","","","","","","","","","","","","","","true","3","3","ability","635","other","他人的","","","","","","","","","","","","","","","","",""
"null","","null","html-keyboard-response","89","386071","0.0-6.0-0.0-6.0-0.15","4","4","4","4","3","4","4","3","4","4","5","5","4","1","1","1","4","4","5","5","1","1","1","1","1","1","1","2","1","0","1","0","0","1","0","0","0","0","0","0","0","0","0","1","5","1","1","2","1","","2","1","2","2","1","781521029972627457","张","266","","","","","","","","","","","","","","","","","","","","","","","","","","","","","","","","","","","","","","","","","",""
"1459","<p style=""color:white; font-size: 35px;"">无能</p>","i","categorize-html","90","387532","0.0-6.0-0.0-6.0-1.15","4","4","4","4","3","4","4","3","4","4","5","5","4","1","1","1","4","4","5","5","1","1","1","1","1","1","1","2","1","0","1","0","0","1","0","0","0","0","0","0","0","0","0","1","5","1","1","2","1","","2","1","2","2","1","781521029972627457","张","266","","","","","","","","","","","","","","","","","","","true","3","3","ability","1459","negative","无能","","","","","","","","","","","","","","","","",""
"null","","null","html-keyboard-response","91","387783","0.0-6.0-0.0-6.0-0.16","4","4","4","4","3","4","4","3","4","4","5","5","4","1","1","1","4","4","5","5","1","1","1","1","1","1","1","2","1","0","1","0","0","1","0","0","0","0","0","0","0","0","0","1","5","1","1","2","1","","2","1","2","2","1","781521029972627457","张","266","","","","","","","","","","","","","","","","","","","","","","","","","","","","","","","","","","","","","","","","","",""
"859","<p style=""color:rgb(150, 250, 100); font-size: 35px;"">别人的</p>","i","categorize-html","92","388644","0.0-6.0-0.0-6.0-1.16","4","4","4","4","3","4","4","3","4","4","5","5","4","1","1","1","4","4","5","5","1","1","1","1","1","1","1","2","1","0","1","0","0","1","0","0","0","0","0","0","0","0","0","1","5","1","1","2","1","","2","1","2","2","1","781521029972627457","张","266","","","","","","","","","","","","","","","","","","","true","3","3","ability","859","other","别人的","","","","","","","","","","","","","","","","",""
"null","","null","html-keyboard-response","93","388895","0.0-6.0-0.0-6.0-0.17","4","4","4","4","3","4","4","3","4","4","5","5","4","1","1","1","4","4","5","5","1","1","1","1","1","1","1","2","1","0","1","0","0","1","0","0","0","0","0","0","0","0","0","1","5","1","1","2","1","","2","1","2","2","1","781521029972627457","张","266","","","","","","","","","","","","","","","","","","","","","","","","","","","","","","","","","","","","","","","","","",""
"675","<p style=""color:white; font-size: 35px;"">拙笨</p>","i","categorize-html","94","389572","0.0-6.0-0.0-6.0-1.17","4","4","4","4","3","4","4","3","4","4","5","5","4","1","1","1","4","4","5","5","1","1","1","1","1","1","1","2","1","0","1","0","0","1","0","0","0","0","0","0","0","0","0","1","5","1","1","2","1","","2","1","2","2","1","781521029972627457","张","266","","","","","","","","","","","","","","","","","","","true","3","3","ability","675","negative","拙笨","","","","","","","","","","","","","","","","",""
"null","","null","html-keyboard-response","95","389823","0.0-6.0-0.0-6.0-0.18","4","4","4","4","3","4","4","3","4","4","5","5","4","1","1","1","4","4","5","5","1","1","1","1","1","1","1","2","1","0","1","0","0","1","0","0","0","0","0","0","0","0","0","1","5","1","1","2","1","","2","1","2","2","1","781521029972627457","张","266","","","","","","","","","","","","","","","","","","","","","","","","","","","","","","","","","","","","","","","","","",""
"595","<p style=""color:rgb(150, 250, 100); font-size: 35px;"">我的</p>","e","categorize-html","96","390420","0.0-6.0-0.0-6.0-1.18","4","4","4","4","3","4","4","3","4","4","5","5","4","1","1","1","4","4","5","5","1","1","1","1","1","1","1","2","1","0","1","0","0","1","0","0","0","0","0","0","0","0","0","1","5","1","1","2","1","","2","1","2","2","1","781521029972627457","张","266","","","","","","","","","","","","","","","","","","","true","3","3","ability","595","self","我的","","","","","","","","","","","","","","","","",""
"null","","null","html-keyboard-response","97","390671","0.0-6.0-0.0-6.0-0.19","4","4","4","4","3","4","4","3","4","4","5","5","4","1","1","1","4","4","5","5","1","1","1","1","1","1","1","2","1","0","1","0","0","1","0","0","0","0","0","0","0","0","0","1","5","1","1","2","1","","2","1","2","2","1","781521029972627457","张","266","","","","","","","","","","","","","","","","","","","","","","","","","","","","","","","","","","","","","","","","","",""
"627","<p style=""color:white; font-size: 35px;"">全能</p>","e","categorize-html","98","391301","0.0-6.0-0.0-6.0-1.19","4","4","4","4","3","4","4","3","4","4","5","5","4","1","1","1","4","4","5","5","1","1","1","1","1","1","1","2","1","0","1","0","0","1","0","0","0","0","0","0","0","0","0","1","5","1","1","2","1","","2","1","2","2","1","781521029972627457","张","266","","","","","","","","","","","","","","","","","","","true","3","3","ability","627","positive","全能","","","","","","","","","","","","","","","","",""
"null","","null","html-keyboard-response","99","391552","0.0-6.0-0.0-6.0-0.20","4","4","4","4","3","4","4","3","4","4","5","5","4","1","1","1","4","4","5","5","1","1","1","1","1","1","1","2","1","0","1","0","0","1","0","0","0","0","0","0","0","0","0","1","5","1","1","2","1","","2","1","2","2","1","781521029972627457","张","266","","","","","","","","","","","","","","","","","","","","","","","","","","","","","","","","","","","","","","","","","",""
"1011","<p style=""color:rgb(150, 250, 100); font-size: 35px;"">他的</p>","i","categorize-html","100","392565","0.0-6.0-0.0-6.0-1.20","4","4","4","4","3","4","4","3","4","4","5","5","4","1","1","1","4","4","5","5","1","1","1","1","1","1","1","2","1","0","1","0","0","1","0","0","0","0","0","0","0","0","0","1","5","1","1","2","1","","2","1","2","2","1","781521029972627457","张","266","","","","","","","","","","","","","","","","","","","true","3","3","ability","1011","other","他的","","","","","","","","","","","","","","","","",""
"null","","null","html-keyboard-response","101","392831","0.0-6.0-0.0-6.0-0.21","4","4","4","4","3","4","4","3","4","4","5","5","4","1","1","1","4","4","5","5","1","1","1","1","1","1","1","2","1","0","1","0","0","1","0","0","0","0","0","0","0","0","0","1","5","1","1","2","1","","2","1","2","2","1","781521029972627457","张","266","","","","","","","","","","","","","","","","","","","","","","","","","","","","","","","","","","","","","","","","","",""
"636","<p style=""color:white; font-size: 35px;"">能干</p>","e","categorize-html","102","393469","0.0-6.0-0.0-6.0-1.21","4","4","4","4","3","4","4","3","4","4","5","5","4","1","1","1","4","4","5","5","1","1","1","1","1","1","1","2","1","0","1","0","0","1","0","0","0","0","0","0","0","0","0","1","5","1","1","2","1","","2","1","2","2","1","781521029972627457","张","266","","","","","","","","","","","","","","","","","","","true","3","3","ability","636","positive","能干","","","","","","","","","","","","","","","","",""
"null","","null","html-keyboard-response","103","393720","0.0-6.0-0.0-6.0-0.22","4","4","4","4","3","4","4","3","4","4","5","5","4","1","1","1","4","4","5","5","1","1","1","1","1","1","1","2","1","0","1","0","0","1","0","0","0","0","0","0","0","0","0","1","5","1","1","2","1","","2","1","2","2","1","781521029972627457","张","266","","","","","","","","","","","","","","","","","","","","","","","","","","","","","","","","","","","","","","","","","",""
"683","<p style=""color:rgb(150, 250, 100); font-size: 35px;"">我</p>","e","categorize-html","104","394405","0.0-6.0-0.0-6.0-1.22","4","4","4","4","3","4","4","3","4","4","5","5","4","1","1","1","4","4","5","5","1","1","1","1","1","1","1","2","1","0","1","0","0","1","0","0","0","0","0","0","0","0","0","1","5","1","1","2","1","","2","1","2","2","1","781521029972627457","张","266","","","","","","","","","","","","","","","","","","","true","3","3","ability","683","self","我","","","","","","","","","","","","","","","","",""
"null","","null","html-keyboard-response","105","394656","0.0-6.0-0.0-6.0-0.23","4","4","4","4","3","4","4","3","4","4","5","5","4","1","1","1","4","4","5","5","1","1","1","1","1","1","1","2","1","0","1","0","0","1","0","0","0","0","0","0","0","0","0","1","5","1","1","2","1","","2","1","2","2","1","781521029972627457","张","266","","","","","","","","","","","","","","","","","","","","","","","","","","","","","","","","","","","","","","","","","",""
"587","<p style=""color:white; font-size: 35px;"">蠢笨</p>","i","categorize-html","106","395246","0.0-6.0-0.0-6.0-1.23","4","4","4","4","3","4","4","3","4","4","5","5","4","1","1","1","4","4","5","5","1","1","1","1","1","1","1","2","1","0","1","0","0","1","0","0","0","0","0","0","0","0","0","1","5","1","1","2","1","","2","1","2","2","1","781521029972627457","张","266","","","","","","","","","","","","","","","","","","","true","3","3","ability","587","negative","蠢笨","","","","","","","","","","","","","","","","",""
"11726","
    <div class=""tag-bottom""><p>
    —— 任务4：对“自我/积极”词和“他人/消极”词分类 ——<p/>
    <span style=""color:#78DCE8""><b>与刚才的任务完全相同，请再次对这四类词语分类</b></span><p/>
    <span style=""color:#FFD866""><b>请根据上方标签的提示，尽可能正确并且快速地做出按键反应</b></span><p/>
    当按键错误时屏幕中会出现<span style=""color:red""> X </span>，需要按另一个键纠正才能继续<br/><p/>
    请把双手食指分别放在键盘的“E”键和“I”键上<p/>
    按<空格键>开始
    </p></div>"," ","html-keyboard-response","107","406973","0.0-6.0-0.0-7.0","4","4","4","4","3","4","4","3","4","4","5","5","4","1","1","1","4","4","5","5","1","1","1","1","1","1","1","2","1","0","1","0","0","1","0","0","0","0","0","0","0","0","0","1","5","1","1","2","1","","2","1","2","2","1","781521029972627457","张","266","","","","","","","","","","","","","","","","","","","","","","","","","","","","","","","","","","","","","","","","","",""
"null","","null","html-keyboard-response","108","407224","0.0-6.0-0.0-8.0-0.0","4","4","4","4","3","4","4","3","4","4","5","5","4","1","1","1","4","4","5","5","1","1","1","1","1","1","1","2","1","0","1","0","0","1","0","0","0","0","0","0","0","0","0","1","5","1","1","2","1","","2","1","2","2","1","781521029972627457","张","266","","","","","","","","","","","","","","","","","","","","","","","","","","","","","","","","","","","","","","","","","",""
"652","<p style=""color:rgb(150, 250, 100); font-size: 35px;"">他人的</p>","i","categorize-html","109","407878","0.0-6.0-0.0-8.0-1.0","4","4","4","4","3","4","4","3","4","4","5","5","4","1","1","1","4","4","5","5","1","1","1","1","1","1","1","2","1","0","1","0","0","1","0","0","0","0","0","0","0","0","0","1","5","1","1","2","1","","2","1","2","2","1","781521029972627457","张","266","","","","","","","","","","","","","","","","","","","true","4","4","ability","652","other","他人的","","","","","","","","","","","","","","","","",""
"null","","null","html-keyboard-response","110","408129","0.0-6.0-0.0-8.0-0.1","4","4","4","4","3","4","4","3","4","4","5","5","4","1","1","1","4","4","5","5","1","1","1","1","1","1","1","2","1","0","1","0","0","1","0","0","0","0","0","0","0","0","0","1","5","1","1","2","1","","2","1","2","2","1","781521029972627457","张","266","","","","","","","","","","","","","","","","","","","","","","","","","","","","","","","","","","","","","","","","","",""
"571","<p style=""color:white; font-size: 35px;"">全才</p>","e","categorize-html","111","408703","0.0-6.0-0.0-8.0-1.1","4","4","4","4","3","4","4","3","4","4","5","5","4","1","1","1","4","4","5","5","1","1","1","1","1","1","1","2","1","0","1","0","0","1","0","0","0","0","0","0","0","0","0","1","5","1","1","2","1","","2","1","2","2","1","781521029972627457","张","266","","","","","","","","","","","","","","","","","","","true","4","4","ability","571","positive","全才","","","","","","","","","","","","","","","","",""
"null","","null","html-keyboard-response","112","408954","0.0-6.0-0.0-8.0-0.2","4","4","4","4","3","4","4","3","4","4","5","5","4","1","1","1","4","4","5","5","1","1","1","1","1","1","1","2","1","0","1","0","0","1","0","0","0","0","0","0","0","0","0","1","5","1","1","2","1","","2","1","2","2","1","781521029972627457","张","266","","","","","","","","","","","","","","","","","","","","","","","","","","","","","","","","","","","","","","","","","",""
"827","<p style=""color:rgb(150, 250, 100); font-size: 35px;"">我的</p>","e","categorize-html","113","409782","0.0-6.0-0.0-8.0-1.2","4","4","4","4","3","4","4","3","4","4","5","5","4","1","1","1","4","4","5","5","1","1","1","1","1","1","1","2","1","0","1","0","0","1","0","0","0","0","0","0","0","0","0","1","5","1","1","2","1","","2","1","2","2","1","781521029972627457","张","266","","","","","","","","","","","","","","","","","","","true","4","4","ability","827","self","我的","","","","","","","","","","","","","","","","",""
"null","","null","html-keyboard-response","114","410034","0.0-6.0-0.0-8.0-0.3","4","4","4","4","3","4","4","3","4","4","5","5","4","1","1","1","4","4","5","5","1","1","1","1","1","1","1","2","1","0","1","0","0","1","0","0","0","0","0","0","0","0","0","1","5","1","1","2","1","","2","1","2","2","1","781521029972627457","张","266","","","","","","","","","","","","","","","","","","","","","","","","","","","","","","","","","","","","","","","","","",""
"635","<p style=""color:white; font-size: 35px;"">无能</p>","i","categorize-html","115","410671","0.0-6.0-0.0-8.0-1.3","4","4","4","4","3","4","4","3","4","4","5","5","4","1","1","1","4","4","5","5","1","1","1","1","1","1","1","2","1","0","1","0","0","1","0","0","0","0","0","0","0","0","0","1","5","1","1","2","1","","2","1","2","2","1","781521029972627457","张","266","","","","","","","","","","","","","","","","","","","true","4","4","ability","635","negative","无能","","","","","","","","","","","","","","","","",""
"null","","null","html-keyboard-response","116","410923","0.0-6.0-0.0-8.0-0.4","4","4","4","4","3","4","4","3","4","4","5","5","4","1","1","1","4","4","5","5","1","1","1","1","1","1","1","2","1","0","1","0","0","1","0","0","0","0","0","0","0","0","0","1","5","1","1","2","1","","2","1","2","2","1","781521029972627457","张","266","","","","","","","","","","","","","","","","","","","","","","","","","","","","","","","","","","","","","","","","","",""
"562","<p style=""color:rgb(150, 250, 100); font-size: 35px;"">他人的</p>","i","categorize-html","117","411487","0.0-6.0-0.0-8.0-1.4","4","4","4","4","3","4","4","3","4","4","5","5","4","1","1","1","4","4","5","5","1","1","1","1","1","1","1","2","1","0","1","0","0","1","0","0","0","0","0","0","0","0","0","1","5","1","1","2","1","","2","1","2","2","1","781521029972627457","张","266","","","","","","","","","","","","","","","","","","","true","4","4","ability","562","other","他人的","","","","","","","","","","","","","","","","",""
"null","","null","html-keyboard-response","118","411738","0.0-6.0-0.0-8.0-0.5","4","4","4","4","3","4","4","3","4","4","5","5","4","1","1","1","4","4","5","5","1","1","1","1","1","1","1","2","1","0","1","0","0","1","0","0","0","0","0","0","0","0","0","1","5","1","1","2","1","","2","1","2","2","1","781521029972627457","张","266","","","","","","","","","","","","","","","","","","","","","","","","","","","","","","","","","","","","","","","","","",""
"506","<p style=""color:white; font-size: 35px;"">拙笨</p>","i","categorize-html","119","412247","0.0-6.0-0.0-8.0-1.5","4","4","4","4","3","4","4","3","4","4","5","5","4","1","1","1","4","4","5","5","1","1","1","1","1","1","1","2","1","0","1","0","0","1","0","0","0","0","0","0","0","0","0","1","5","1","1","2","1","","2","1","2","2","1","781521029972627457","张","266","","","","","","","","","","","","","","","","","","","true","4","4","ability","506","negative","拙笨","","","","","","","","","","","","","","","","",""
"null","","null","html-keyboard-response","120","412499","0.0-6.0-0.0-8.0-0.6","4","4","4","4","3","4","4","3","4","4","5","5","4","1","1","1","4","4","5","5","1","1","1","1","1","1","1","2","1","0","1","0","0","1","0","0","0","0","0","0","0","0","0","1","5","1","1","2","1","","2","1","2","2","1","781521029972627457","张","266","","","","","","","","","","","","","","","","","","","","","","","","","","","","","","","","","","","","","","","","","",""
"2298","<p style=""color:rgb(150, 250, 100); font-size: 35px;"">本人</p>","e","categorize-html","121","414799","0.0-6.0-0.0-8.0-1.6","4","4","4","4","3","4","4","3","4","4","5","5","4","1","1","1","4","4","5","5","1","1","1","1","1","1","1","2","1","0","1","0","0","1","0","0","0","0","0","0","0","0","0","1","5","1","1","2","1","","2","1","2","2","1","781521029972627457","张","266","","","","","","","","","","","","","","","","","","","true","4","4","ability","2298","self","本人","","","","","","","","","","","","","","","","",""
"null","","null","html-keyboard-response","122","415050","0.0-6.0-0.0-8.0-0.7","4","4","4","4","3","4","4","3","4","4","5","5","4","1","1","1","4","4","5","5","1","1","1","1","1","1","1","2","1","0","1","0","0","1","0","0","0","0","0","0","0","0","0","1","5","1","1","2","1","","2","1","2","2","1","781521029972627457","张","266","","","","","","","","","","","","","","","","","","","","","","","","","","","","","","","","","","","","","","","","","",""
"595","<p style=""color:white; font-size: 35px;"">高效</p>","e","categorize-html","123","415647","0.0-6.0-0.0-8.0-1.7","4","4","4","4","3","4","4","3","4","4","5","5","4","1","1","1","4","4","5","5","1","1","1","1","1","1","1","2","1","0","1","0","0","1","0","0","0","0","0","0","0","0","0","1","5","1","1","2","1","","2","1","2","2","1","781521029972627457","张","266","","","","","","","","","","","","","","","","","","","true","4","4","ability","595","positive","高效","","","","","","","","","","","","","","","","",""
"null","","null","html-keyboard-response","124","415899","0.0-6.0-0.0-8.0-0.8","4","4","4","4","3","4","4","3","4","4","5","5","4","1","1","1","4","4","5","5","1","1","1","1","1","1","1","2","1","0","1","0","0","1","0","0","0","0","0","0","0","0","0","1","5","1","1","2","1","","2","1","2","2","1","781521029972627457","张","266","","","","","","","","","","","","","","","","","","","","","","","","","","","","","","","","","","","","","","","","","",""
"1474","<p style=""color:rgb(150, 250, 100); font-size: 35px;"">他人</p>","i","categorize-html","125","417375","0.0-6.0-0.0-8.0-1.8","4","4","4","4","3","4","4","3","4","4","5","5","4","1","1","1","4","4","5","5","1","1","1","1","1","1","1","2","1","0","1","0","0","1","0","0","0","0","0","0","0","0","0","1","5","1","1","2","1","","2","1","2","2","1","781521029972627457","张","266","","","","","","","","","","","","","","","","","","","true","4","4","ability","1474","other","他人","","","","","","","","","","","","","","","","",""
"null","","null","html-keyboard-response","126","417627","0.0-6.0-0.0-8.0-0.9","4","4","4","4","3","4","4","3","4","4","5","5","4","1","1","1","4","4","5","5","1","1","1","1","1","1","1","2","1","0","1","0","0","1","0","0","0","0","0","0","0","0","0","1","5","1","1","2","1","","2","1","2","2","1","781521029972627457","张","266","","","","","","","","","","","","","","","","","","","","","","","","","","","","","","","","","","","","","","","","","",""
"803","<p style=""color:white; font-size: 35px;"">全能</p>","e","categorize-html","127","418432","0.0-6.0-0.0-8.0-1.9","4","4","4","4","3","4","4","3","4","4","5","5","4","1","1","1","4","4","5","5","1","1","1","1","1","1","1","2","1","0","1","0","0","1","0","0","0","0","0","0","0","0","0","1","5","1","1","2","1","","2","1","2","2","1","781521029972627457","张","266","","","","","","","","","","","","","","","","","","","true","4","4","ability","803","positive","全能","","","","","","","","","","","","","","","","",""
"null","","null","html-keyboard-response","128","418683","0.0-6.0-0.0-8.0-0.10","4","4","4","4","3","4","4","3","4","4","5","5","4","1","1","1","4","4","5","5","1","1","1","1","1","1","1","2","1","0","1","0","0","1","0","0","0","0","0","0","0","0","0","1","5","1","1","2","1","","2","1","2","2","1","781521029972627457","张","266","","","","","","","","","","","","","","","","","","","","","","","","","","","","","","","","","","","","","","","","","",""
"1794","<p style=""color:rgb(150, 250, 100); font-size: 35px;"">自己的</p>","e","categorize-html","129","420479","0.0-6.0-0.0-8.0-1.10","4","4","4","4","3","4","4","3","4","4","5","5","4","1","1","1","4","4","5","5","1","1","1","1","1","1","1","2","1","0","1","0","0","1","0","0","0","0","0","0","0","0","0","1","5","1","1","2","1","","2","1","2","2","1","781521029972627457","张","266","","","","","","","","","","","","","","","","","","","true","4","4","ability","1794","self","自己的","","","","","","","","","","","","","","","","",""
"null","","null","html-keyboard-response","130","420731","0.0-6.0-0.0-8.0-0.11","4","4","4","4","3","4","4","3","4","4","5","5","4","1","1","1","4","4","5","5","1","1","1","1","1","1","1","2","1","0","1","0","0","1","0","0","0","0","0","0","0","0","0","1","5","1","1","2","1","","2","1","2","2","1","781521029972627457","张","266","","","","","","","","","","","","","","","","","","","","","","","","","","","","","","","","","","","","","","","","","",""
"851","<p style=""color:white; font-size: 35px;"">蠢笨</p>","i","categorize-html","131","421584","0.0-6.0-0.0-8.0-1.11","4","4","4","4","3","4","4","3","4","4","5","5","4","1","1","1","4","4","5","5","1","1","1","1","1","1","1","2","1","0","1","0","0","1","0","0","0","0","0","0","0","0","0","1","5","1","1","2","1","","2","1","2","2","1","781521029972627457","张","266","","","","","","","","","","","","","","","","","","","true","4","4","ability","851","negative","蠢笨","","","","","","","","","","","","","","","","",""
"null","","null","html-keyboard-response","132","421835","0.0-6.0-0.0-8.0-0.12","4","4","4","4","3","4","4","3","4","4","5","5","4","1","1","1","4","4","5","5","1","1","1","1","1","1","1","2","1","0","1","0","0","1","0","0","0","0","0","0","0","0","0","1","5","1","1","2","1","","2","1","2","2","1","781521029972627457","张","266","","","","","","","","","","","","","","","","","","","","","","","","","","","","","","","","","","","","","","","","","",""
"963","<p style=""color:rgb(150, 250, 100); font-size: 35px;"">自己</p>","e","categorize-html","133","422800","0.0-6.0-0.0-8.0-1.12","4","4","4","4","3","4","4","3","4","4","5","5","4","1","1","1","4","4","5","5","1","1","1","1","1","1","1","2","1","0","1","0","0","1","0","0","0","0","0","0","0","0","0","1","5","1","1","2","1","","2","1","2","2","1","781521029972627457","张","266","","","","","","","","","","","","","","","","","","","true","4","4","ability","963","self","自己","","","","","","","","","","","","","","","","",""
"null","","null","html-keyboard-response","134","423051","0.0-6.0-0.0-8.0-0.13","4","4","4","4","3","4","4","3","4","4","5","5","4","1","1","1","4","4","5","5","1","1","1","1","1","1","1","2","1","0","1","0","0","1","0","0","0","0","0","0","0","0","0","1","5","1","1","2","1","","2","1","2","2","1","781521029972627457","张","266","","","","","","","","","","","","","","","","","","","","","","","","","","","","","","","","","","","","","","","","","",""
"546","<p style=""color:white; font-size: 35px;"">蠢笨</p>","i","categorize-html","135","423600","0.0-6.0-0.0-8.0-1.13","4","4","4","4","3","4","4","3","4","4","5","5","4","1","1","1","4","4","5","5","1","1","1","1","1","1","1","2","1","0","1","0","0","1","0","0","0","0","0","0","0","0","0","1","5","1","1","2","1","","2","1","2","2","1","781521029972627457","张","266","","","","","","","","","","","","","","","","","","","true","4","4","ability","546","negative","蠢笨","","","","","","","","","","","","","","","","",""
"null","","null","html-keyboard-response","136","423851","0.0-6.0-0.0-8.0-0.14","4","4","4","4","3","4","4","3","4","4","5","5","4","1","1","1","4","4","5","5","1","1","1","1","1","1","1","2","1","0","1","0","0","1","0","0","0","0","0","0","0","0","0","1","5","1","1","2","1","","2","1","2","2","1","781521029972627457","张","266","","","","","","","","","","","","","","","","","","","","","","","","","","","","","","","","","","","","","","","","","",""
"491","<p style=""color:rgb(150, 250, 100); font-size: 35px;"">别人</p>","i","categorize-html","137","424344","0.0-6.0-0.0-8.0-1.14","4","4","4","4","3","4","4","3","4","4","5","5","4","1","1","1","4","4","5","5","1","1","1","1","1","1","1","2","1","0","1","0","0","1","0","0","0","0","0","0","0","0","0","1","5","1","1","2","1","","2","1","2","2","1","781521029972627457","张","266","","","","","","","","","","","","","","","","","","","true","4","4","ability","491","other","别人","","","","","","","","","","","","","","","","",""
"null","","null","html-keyboard-response","138","424594","0.0-6.0-0.0-8.0-0.15","4","4","4","4","3","4","4","3","4","4","5","5","4","1","1","1","4","4","5","5","1","1","1","1","1","1","1","2","1","0","1","0","0","1","0","0","0","0","0","0","0","0","0","1","5","1","1","2","1","","2","1","2","2","1","781521029972627457","张","266","","","","","","","","","","","","","","","","","","","","","","","","","","","","","","","","","","","","","","","","","",""
"564","<p style=""color:white; font-size: 35px;"">高效</p>","e","categorize-html","139","425160","0.0-6.0-0.0-8.0-1.15","4","4","4","4","3","4","4","3","4","4","5","5","4","1","1","1","4","4","5","5","1","1","1","1","1","1","1","2","1","0","1","0","0","1","0","0","0","0","0","0","0","0","0","1","5","1","1","2","1","","2","1","2","2","1","781521029972627457","张","266","","","","","","","","","","","","","","","","","","","true","4","4","ability","564","positive","高效","","","","","","","","","","","","","","","","",""
"null","","null","html-keyboard-response","140","425411","0.0-6.0-0.0-8.0-0.16","4","4","4","4","3","4","4","3","4","4","5","5","4","1","1","1","4","4","5","5","1","1","1","1","1","1","1","2","1","0","1","0","0","1","0","0","0","0","0","0","0","0","0","1","5","1","1","2","1","","2","1","2","2","1","781521029972627457","张","266","","","","","","","","","","","","","","","","","","","","","","","","","","","","","","","","","","","","","","","","","",""
"603","<p style=""color:rgb(150, 250, 100); font-size: 35px;"">我</p>","e","categorize-html","141","426017","0.0-6.0-0.0-8.0-1.16","4","4","4","4","3","4","4","3","4","4","5","5","4","1","1","1","4","4","5","5","1","1","1","1","1","1","1","2","1","0","1","0","0","1","0","0","0","0","0","0","0","0","0","1","5","1","1","2","1","","2","1","2","2","1","781521029972627457","张","266","","","","","","","","","","","","","","","","","","","true","4","4","ability","603","self","我","","","","","","","","","","","","","","","","",""
"null","","null","html-keyboard-response","142","426268","0.0-6.0-0.0-8.0-0.17","4","4","4","4","3","4","4","3","4","4","5","5","4","1","1","1","4","4","5","5","1","1","1","1","1","1","1","2","1","0","1","0","0","1","0","0","0","0","0","0","0","0","0","1","5","1","1","2","1","","2","1","2","2","1","781521029972627457","张","266","","","","","","","","","","","","","","","","","","","","","","","","","","","","","","","","","","","","","","","","","",""
"962","<p style=""color:white; font-size: 35px;"">拙笨</p>","i","categorize-html","143","427232","0.0-6.0-0.0-8.0-1.17","4","4","4","4","3","4","4","3","4","4","5","5","4","1","1","1","4","4","5","5","1","1","1","1","1","1","1","2","1","0","1","0","0","1","0","0","0","0","0","0","0","0","0","1","5","1","1","2","1","","2","1","2","2","1","781521029972627457","张","266","","","","","","","","","","","","","","","","","","","true","4","4","ability","962","negative","拙笨","","","","","","","","","","","","","","","","",""
"null","","null","html-keyboard-response","144","427483","0.0-6.0-0.0-8.0-0.18","4","4","4","4","3","4","4","3","4","4","5","5","4","1","1","1","4","4","5","5","1","1","1","1","1","1","1","2","1","0","1","0","0","1","0","0","0","0","0","0","0","0","0","1","5","1","1","2","1","","2","1","2","2","1","781521029972627457","张","266","","","","","","","","","","","","","","","","","","","","","","","","","","","","","","","","","","","","","","","","","",""
"628","<p style=""color:rgb(150, 250, 100); font-size: 35px;"">别人的</p>","i","categorize-html","145","428113","0.0-6.0-0.0-8.0-1.18","4","4","4","4","3","4","4","3","4","4","5","5","4","1","1","1","4","4","5","5","1","1","1","1","1","1","1","2","1","0","1","0","0","1","0","0","0","0","0","0","0","0","0","1","5","1","1","2","1","","2","1","2","2","1","781521029972627457","张","266","","","","","","","","","","","","","","","","","","","true","4","4","ability","628","other","别人的","","","","","","","","","","","","","","","","",""
"null","","null","html-keyboard-response","146","428365","0.0-6.0-0.0-8.0-0.19","4","4","4","4","3","4","4","3","4","4","5","5","4","1","1","1","4","4","5","5","1","1","1","1","1","1","1","2","1","0","1","0","0","1","0","0","0","0","0","0","0","0","0","1","5","1","1","2","1","","2","1","2","2","1","781521029972627457","张","266","","","","","","","","","","","","","","","","","","","","","","","","","","","","","","","","","","","","","","","","","",""
"610","<p style=""color:white; font-size: 35px;"">能干</p>","e","categorize-html","147","428977","0.0-6.0-0.0-8.0-1.19","4","4","4","4","3","4","4","3","4","4","5","5","4","1","1","1","4","4","5","5","1","1","1","1","1","1","1","2","1","0","1","0","0","1","0","0","0","0","0","0","0","0","0","1","5","1","1","2","1","","2","1","2","2","1","781521029972627457","张","266","","","","","","","","","","","","","","","","","","","true","4","4","ability","610","positive","能干","","","","","","","","","","","","","","","","",""
"null","","null","html-keyboard-response","148","429228","0.0-6.0-0.0-8.0-0.20","4","4","4","4","3","4","4","3","4","4","5","5","4","1","1","1","4","4","5","5","1","1","1","1","1","1","1","2","1","0","1","0","0","1","0","0","0","0","0","0","0","0","0","1","5","1","1","2","1","","2","1","2","2","1","781521029972627457","张","266","","","","","","","","","","","","","","","","","","","","","","","","","","","","","","","","","","","","","","","","","",""
"515","<p style=""color:rgb(150, 250, 100); font-size: 35px;"">本人的</p>","e","categorize-html","149","429744","0.0-6.0-0.0-8.0-1.20","4","4","4","4","3","4","4","3","4","4","5","5","4","1","1","1","4","4","5","5","1","1","1","1","1","1","1","2","1","0","1","0","0","1","0","0","0","0","0","0","0","0","0","1","5","1","1","2","1","","2","1","2","2","1","781521029972627457","张","266","","","","","","","","","","","","","","","","","","","true","4","4","ability","515","self","本人的","","","","","","","","","","","","","","","","",""
"null","","null","html-keyboard-response","150","429996","0.0-6.0-0.0-8.0-0.21","4","4","4","4","3","4","4","3","4","4","5","5","4","1","1","1","4","4","5","5","1","1","1","1","1","1","1","2","1","0","1","0","0","1","0","0","0","0","0","0","0","0","0","1","5","1","1","2","1","","2","1","2","2","1","781521029972627457","张","266","","","","","","","","","","","","","","","","","","","","","","","","","","","","","","","","","","","","","","","","","",""
"539","<p style=""color:white; font-size: 35px;"">低能</p>","i","categorize-html","151","430537","0.0-6.0-0.0-8.0-1.21","4","4","4","4","3","4","4","3","4","4","5","5","4","1","1","1","4","4","5","5","1","1","1","1","1","1","1","2","1","0","1","0","0","1","0","0","0","0","0","0","0","0","0","1","5","1","1","2","1","","2","1","2","2","1","781521029972627457","张","266","","","","","","","","","","","","","","","","","","","true","4","4","ability","539","negative","低能","","","","","","","","","","","","","","","","",""
"null","","null","html-keyboard-response","152","430788","0.0-6.0-0.0-8.0-0.22","4","4","4","4","3","4","4","3","4","4","5","5","4","1","1","1","4","4","5","5","1","1","1","1","1","1","1","2","1","0","1","0","0","1","0","0","0","0","0","0","0","0","0","1","5","1","1","2","1","","2","1","2","2","1","781521029972627457","张","266","","","","","","","","","","","","","","","","","","","","","","","","","","","","","","","","","","","","","","","","","",""
"620","<p style=""color:rgb(150, 250, 100); font-size: 35px;"">他的</p>","i","categorize-html","153","431410","0.0-6.0-0.0-8.0-1.22","4","4","4","4","3","4","4","3","4","4","5","5","4","1","1","1","4","4","5","5","1","1","1","1","1","1","1","2","1","0","1","0","0","1","0","0","0","0","0","0","0","0","0","1","5","1","1","2","1","","2","1","2","2","1","781521029972627457","张","266","","","","","","","","","","","","","","","","","","","true","4","4","ability","620","other","他的","","","","","","","","","","","","","","","","",""
"null","","null","html-keyboard-response","154","431661","0.0-6.0-0.0-8.0-0.23","4","4","4","4","3","4","4","3","4","4","5","5","4","1","1","1","4","4","5","5","1","1","1","1","1","1","1","2","1","0","1","0","0","1","0","0","0","0","0","0","0","0","0","1","5","1","1","2","1","","2","1","2","2","1","781521029972627457","张","266","","","","","","","","","","","","","","","","","","","","","","","","","","","","","","","","","","","","","","","","","",""
"538","<p style=""color:white; font-size: 35px;"">天才</p>","e","categorize-html","155","432201","0.0-6.0-0.0-8.0-1.23","4","4","4","4","3","4","4","3","4","4","5","5","4","1","1","1","4","4","5","5","1","1","1","1","1","1","1","2","1","0","1","0","0","1","0","0","0","0","0","0","0","0","0","1","5","1","1","2","1","","2","1","2","2","1","781521029972627457","张","266","","","","","","","","","","","","","","","","","","","true","4","4","ability","538","positive","天才","","","","","","","","","","","","","","","","",""
"null","","null","html-keyboard-response","156","432451","0.0-6.0-0.0-8.0-0.24","4","4","4","4","3","4","4","3","4","4","5","5","4","1","1","1","4","4","5","5","1","1","1","1","1","1","1","2","1","0","1","0","0","1","0","0","0","0","0","0","0","0","0","1","5","1","1","2","1","","2","1","2","2","1","781521029972627457","张","266","","","","","","","","","","","","","","","","","","","","","","","","","","","","","","","","","","","","","","","","","",""
"499","<p style=""color:rgb(150, 250, 100); font-size: 35px;"">我</p>","e","categorize-html","157","432952","0.0-6.0-0.0-8.0-1.24","4","4","4","4","3","4","4","3","4","4","5","5","4","1","1","1","4","4","5","5","1","1","1","1","1","1","1","2","1","0","1","0","0","1","0","0","0","0","0","0","0","0","0","1","5","1","1","2","1","","2","1","2","2","1","781521029972627457","张","266","","","","","","","","","","","","","","","","","","","true","4","4","ability","499","self","我","","","","","","","","","","","","","","","","",""
"null","","null","html-keyboard-response","158","433203","0.0-6.0-0.0-8.0-0.25","4","4","4","4","3","4","4","3","4","4","5","5","4","1","1","1","4","4","5","5","1","1","1","1","1","1","1","2","1","0","1","0","0","1","0","0","0","0","0","0","0","0","0","1","5","1","1","2","1","","2","1","2","2","1","781521029972627457","张","266","","","","","","","","","","","","","","","","","","","","","","","","","","","","","","","","","","","","","","","","","",""
"516","<p style=""color:white; font-size: 35px;"">废物</p>","i","categorize-html","159","433721","0.0-6.0-0.0-8.0-1.25","4","4","4","4","3","4","4","3","4","4","5","5","4","1","1","1","4","4","5","5","1","1","1","1","1","1","1","2","1","0","1","0","0","1","0","0","0","0","0","0","0","0","0","1","5","1","1","2","1","","2","1","2","2","1","781521029972627457","张","266","","","","","","","","","","","","","","","","","","","true","4","4","ability","516","negative","废物","","","","","","","","","","","","","","","","",""
"null","","null","html-keyboard-response","160","433972","0.0-6.0-0.0-8.0-0.26","4","4","4","4","3","4","4","3","4","4","5","5","4","1","1","1","4","4","5","5","1","1","1","1","1","1","1","2","1","0","1","0","0","1","0","0","0","0","0","0","0","0","0","1","5","1","1","2","1","","2","1","2","2","1","781521029972627457","张","266","","","","","","","","","","","","","","","","","","","","","","","","","","","","","","","","","","","","","","","","","",""
"547","<p style=""color:rgb(150, 250, 100); font-size: 35px;"">他</p>","i","categorize-html","161","434522","0.0-6.0-0.0-8.0-1.26","4","4","4","4","3","4","4","3","4","4","5","5","4","1","1","1","4","4","5","5","1","1","1","1","1","1","1","2","1","0","1","0","0","1","0","0","0","0","0","0","0","0","0","1","5","1","1","2","1","","2","1","2","2","1","781521029972627457","张","266","","","","","","","","","","","","","","","","","","","true","4","4","ability","547","other","他","","","","","","","","","","","","","","","","",""
"null","","null","html-keyboard-response","162","434773","0.0-6.0-0.0-8.0-0.27","4","4","4","4","3","4","4","3","4","4","5","5","4","1","1","1","4","4","5","5","1","1","1","1","1","1","1","2","1","0","1","0","0","1","0","0","0","0","0","0","0","0","0","1","5","1","1","2","1","","2","1","2","2","1","781521029972627457","张","266","","","","","","","","","","","","","","","","","","","","","","","","","","","","","","","","","","","","","","","","","",""
"570","<p style=""color:white; font-size: 35px;"">精干</p>","e","categorize-html","163","435345","0.0-6.0-0.0-8.0-1.27","4","4","4","4","3","4","4","3","4","4","5","5","4","1","1","1","4","4","5","5","1","1","1","1","1","1","1","2","1","0","1","0","0","1","0","0","0","0","0","0","0","0","0","1","5","1","1","2","1","","2","1","2","2","1","781521029972627457","张","266","","","","","","","","","","","","","","","","","","","true","4","4","ability","570","positive","精干","","","","","","","","","","","","","","","","",""
"null","","null","html-keyboard-response","164","435596","0.0-6.0-0.0-8.0-0.28","4","4","4","4","3","4","4","3","4","4","5","5","4","1","1","1","4","4","5","5","1","1","1","1","1","1","1","2","1","0","1","0","0","1","0","0","0","0","0","0","0","0","0","1","5","1","1","2","1","","2","1","2","2","1","781521029972627457","张","266","","","","","","","","","","","","","","","","","","","","","","","","","","","","","","","","","","","","","","","","","",""
"612","<p style=""color:rgb(150, 250, 100); font-size: 35px;"">别人</p>","i","categorize-html","165","436210","0.0-6.0-0.0-8.0-1.28","4","4","4","4","3","4","4","3","4","4","5","5","4","1","1","1","4","4","5","5","1","1","1","1","1","1","1","2","1","0","1","0","0","1","0","0","0","0","0","0","0","0","0","1","5","1","1","2","1","","2","1","2","2","1","781521029972627457","张","266","","","","","","","","","","","","","","","","","","","true","4","4","ability","612","other","别人","","","","","","","","","","","","","","","","",""
"null","","null","html-keyboard-response","166","436461","0.0-6.0-0.0-8.0-0.29","4","4","4","4","3","4","4","3","4","4","5","5","4","1","1","1","4","4","5","5","1","1","1","1","1","1","1","2","1","0","1","0","0","1","0","0","0","0","0","0","0","0","0","1","5","1","1","2","1","","2","1","2","2","1","781521029972627457","张","266","","","","","","","","","","","","","","","","","","","","","","","","","","","","","","","","","","","","","","","","","",""
"970","<p style=""color:white; font-size: 35px;"">精干</p>","e","categorize-html","167","437433","0.0-6.0-0.0-8.0-1.29","4","4","4","4","3","4","4","3","4","4","5","5","4","1","1","1","4","4","5","5","1","1","1","1","1","1","1","2","1","0","1","0","0","1","0","0","0","0","0","0","0","0","0","1","5","1","1","2","1","","2","1","2","2","1","781521029972627457","张","266","","","","","","","","","","","","","","","","","","","true","4","4","ability","970","positive","精干","","","","","","","","","","","","","","","","",""
"null","","null","html-keyboard-response","168","437685","0.0-6.0-0.0-8.0-0.30","4","4","4","4","3","4","4","3","4","4","5","5","4","1","1","1","4","4","5","5","1","1","1","1","1","1","1","2","1","0","1","0","0","1","0","0","0","0","0","0","0","0","0","1","5","1","1","2","1","","2","1","2","2","1","781521029972627457","张","266","","","","","","","","","","","","","","","","","","","","","","","","","","","","","","","","","","","","","","","","","",""
"467","<p style=""color:rgb(150, 250, 100); font-size: 35px;"">本人的</p>","e","categorize-html","169","438154","0.0-6.0-0.0-8.0-1.30","4","4","4","4","3","4","4","3","4","4","5","5","4","1","1","1","4","4","5","5","1","1","1","1","1","1","1","2","1","0","1","0","0","1","0","0","0","0","0","0","0","0","0","1","5","1","1","2","1","","2","1","2","2","1","781521029972627457","张","266","","","","","","","","","","","","","","","","","","","true","4","4","ability","467","self","本人的","","","","","","","","","","","","","","","","",""
"null","","null","html-keyboard-response","170","438406","0.0-6.0-0.0-8.0-0.31","4","4","4","4","3","4","4","3","4","4","5","5","4","1","1","1","4","4","5","5","1","1","1","1","1","1","1","2","1","0","1","0","0","1","0","0","0","0","0","0","0","0","0","1","5","1","1","2","1","","2","1","2","2","1","781521029972627457","张","266","","","","","","","","","","","","","","","","","","","","","","","","","","","","","","","","","","","","","","","","","",""
"794","<p style=""color:white; font-size: 35px;"">愚钝</p>","i","categorize-html","171","439201","0.0-6.0-0.0-8.0-1.31","4","4","4","4","3","4","4","3","4","4","5","5","4","1","1","1","4","4","5","5","1","1","1","1","1","1","1","2","1","0","1","0","0","1","0","0","0","0","0","0","0","0","0","1","5","1","1","2","1","","2","1","2","2","1","781521029972627457","张","266","","","","","","","","","","","","","","","","","","","true","4","4","ability","794","negative","愚钝","","","","","","","","","","","","","","","","",""
"null","","null","html-keyboard-response","172","439452","0.0-6.0-0.0-8.0-0.32","4","4","4","4","3","4","4","3","4","4","5","5","4","1","1","1","4","4","5","5","1","1","1","1","1","1","1","2","1","0","1","0","0","1","0","0","0","0","0","0","0","0","0","1","5","1","1","2","1","","2","1","2","2","1","781521029972627457","张","266","","","","","","","","","","","","","","","","","","","","","","","","","","","","","","","","","","","","","","","","","",""
"643","<p style=""color:rgb(150, 250, 100); font-size: 35px;"">自己的</p>","e","categorize-html","173","440098","0.0-6.0-0.0-8.0-1.32","4","4","4","4","3","4","4","3","4","4","5","5","4","1","1","1","4","4","5","5","1","1","1","1","1","1","1","2","1","0","1","0","0","1","0","0","0","0","0","0","0","0","0","1","5","1","1","2","1","","2","1","2","2","1","781521029972627457","张","266","","","","","","","","","","","","","","","","","","","true","4","4","ability","643","self","自己的","","","","","","","","","","","","","","","","",""
"null","","null","html-keyboard-response","174","440354","0.0-6.0-0.0-8.0-0.33","4","4","4","4","3","4","4","3","4","4","5","5","4","1","1","1","4","4","5","5","1","1","1","1","1","1","1","2","1","0","1","0","0","1","0","0","0","0","0","0","0","0","0","1","5","1","1","2","1","","2","1","2","2","1","781521029972627457","张","266","","","","","","","","","","","","","","","","","","","","","","","","","","","","","","","","","","","","","","","","","",""
"982","<p style=""color:white; font-size: 35px;"">低能</p>","i","categorize-html","175","441338","0.0-6.0-0.0-8.0-1.33","4","4","4","4","3","4","4","3","4","4","5","5","4","1","1","1","4","4","5","5","1","1","1","1","1","1","1","2","1","0","1","0","0","1","0","0","0","0","0","0","0","0","0","1","5","1","1","2","1","","2","1","2","2","1","781521029972627457","张","266","","","","","","","","","","","","","","","","","","","true","4","4","ability","982","negative","低能","","","","","","","","","","","","","","","","",""
"null","","null","html-keyboard-response","176","441589","0.0-6.0-0.0-8.0-0.34","4","4","4","4","3","4","4","3","4","4","5","5","4","1","1","1","4","4","5","5","1","1","1","1","1","1","1","2","1","0","1","0","0","1","0","0","0","0","0","0","0","0","0","1","5","1","1","2","1","","2","1","2","2","1","781521029972627457","张","266","","","","","","","","","","","","","","","","","","","","","","","","","","","","","","","","","","","","","","","","","",""
"459","<p style=""color:rgb(150, 250, 100); font-size: 35px;"">他人</p>","i","categorize-html","177","442050","0.0-6.0-0.0-8.0-1.34","4","4","4","4","3","4","4","3","4","4","5","5","4","1","1","1","4","4","5","5","1","1","1","1","1","1","1","2","1","0","1","0","0","1","0","0","0","0","0","0","0","0","0","1","5","1","1","2","1","","2","1","2","2","1","781521029972627457","张","266","","","","","","","","","","","","","","","","","","","true","4","4","ability","459","other","他人","","","","","","","","","","","","","","","","",""
"null","","null","html-keyboard-response","178","442301","0.0-6.0-0.0-8.0-0.35","4","4","4","4","3","4","4","3","4","4","5","5","4","1","1","1","4","4","5","5","1","1","1","1","1","1","1","2","1","0","1","0","0","1","0","0","0","0","0","0","0","0","0","1","5","1","1","2","1","","2","1","2","2","1","781521029972627457","张","266","","","","","","","","","","","","","","","","","","","","","","","","","","","","","","","","","","","","","","","","","",""
"570","<p style=""color:white; font-size: 35px;"">全才</p>","e","categorize-html","179","442874","0.0-6.0-0.0-8.0-1.35","4","4","4","4","3","4","4","3","4","4","5","5","4","1","1","1","4","4","5","5","1","1","1","1","1","1","1","2","1","0","1","0","0","1","0","0","0","0","0","0","0","0","0","1","5","1","1","2","1","","2","1","2","2","1","781521029972627457","张","266","","","","","","","","","","","","","","","","","","","true","4","4","ability","570","positive","全才","","","","","","","","","","","","","","","","",""
"null","","null","html-keyboard-response","180","443126","0.0-6.0-0.0-8.0-0.36","4","4","4","4","3","4","4","3","4","4","5","5","4","1","1","1","4","4","5","5","1","1","1","1","1","1","1","2","1","0","1","0","0","1","0","0","0","0","0","0","0","0","0","1","5","1","1","2","1","","2","1","2","2","1","781521029972627457","张","266","","","","","","","","","","","","","","","","","","","","","","","","","","","","","","","","","","","","","","","","","",""
"594","<p style=""color:rgb(150, 250, 100); font-size: 35px;"">他</p>","i","categorize-html","181","443723","0.0-6.0-0.0-8.0-1.36","4","4","4","4","3","4","4","3","4","4","5","5","4","1","1","1","4","4","5","5","1","1","1","1","1","1","1","2","1","0","1","0","0","1","0","0","0","0","0","0","0","0","0","1","5","1","1","2","1","","2","1","2","2","1","781521029972627457","张","266","","","","","","","","","","","","","","","","","","","true","4","4","ability","594","other","他","","","","","","","","","","","","","","","","",""
"null","","null","html-keyboard-response","182","443974","0.0-6.0-0.0-8.0-0.37","4","4","4","4","3","4","4","3","4","4","5","5","4","1","1","1","4","4","5","5","1","1","1","1","1","1","1","2","1","0","1","0","0","1","0","0","0","0","0","0","0","0","0","1","5","1","1","2","1","","2","1","2","2","1","781521029972627457","张","266","","","","","","","","","","","","","","","","","","","","","","","","","","","","","","","","","","","","","","","","","",""
"1234","<p style=""color:white; font-size: 35px;"">愚钝</p>","i","categorize-html","183","445210","0.0-6.0-0.0-8.0-1.37","4","4","4","4","3","4","4","3","4","4","5","5","4","1","1","1","4","4","5","5","1","1","1","1","1","1","1","2","1","0","1","0","0","1","0","0","0","0","0","0","0","0","0","1","5","1","1","2","1","","2","1","2","2","1","781521029972627457","张","266","","","","","","","","","","","","","","","","","","","true","4","4","ability","1234","negative","愚钝","","","","","","","","","","","","","","","","",""
"null","","null","html-keyboard-response","184","445460","0.0-6.0-0.0-8.0-0.38","4","4","4","4","3","4","4","3","4","4","5","5","4","1","1","1","4","4","5","5","1","1","1","1","1","1","1","2","1","0","1","0","0","1","0","0","0","0","0","0","0","0","0","1","5","1","1","2","1","","2","1","2","2","1","781521029972627457","张","266","","","","","","","","","","","","","","","","","","","","","","","","","","","","","","","","","","","","","","","","","",""
"668","<p style=""color:rgb(150, 250, 100); font-size: 35px;"">本人</p>","e","categorize-html","185","446131","0.0-6.0-0.0-8.0-1.38","4","4","4","4","3","4","4","3","4","4","5","5","4","1","1","1","4","4","5","5","1","1","1","1","1","1","1","2","1","0","1","0","0","1","0","0","0","0","0","0","0","0","0","1","5","1","1","2","1","","2","1","2","2","1","781521029972627457","张","266","","","","","","","","","","","","","","","","","","","true","4","4","ability","668","self","本人","","","","","","","","","","","","","","","","",""
"null","","null","html-keyboard-response","186","446382","0.0-6.0-0.0-8.0-0.39","4","4","4","4","3","4","4","3","4","4","5","5","4","1","1","1","4","4","5","5","1","1","1","1","1","1","1","2","1","0","1","0","0","1","0","0","0","0","0","0","0","0","0","1","5","1","1","2","1","","2","1","2","2","1","781521029972627457","张","266","","","","","","","","","","","","","","","","","","","","","","","","","","","","","","","","","","","","","","","","","",""
"882","<p style=""color:white; font-size: 35px;"">全能</p>","e","categorize-html","187","447266","0.0-6.0-0.0-8.0-1.39","4","4","4","4","3","4","4","3","4","4","5","5","4","1","1","1","4","4","5","5","1","1","1","1","1","1","1","2","1","0","1","0","0","1","0","0","0","0","0","0","0","0","0","1","5","1","1","2","1","","2","1","2","2","1","781521029972627457","张","266","","","","","","","","","","","","","","","","","","","true","4","4","ability","882","positive","全能","","","","","","","","","","","","","","","","",""
"null","","null","html-keyboard-response","188","447517","0.0-6.0-0.0-8.0-0.40","4","4","4","4","3","4","4","3","4","4","5","5","4","1","1","1","4","4","5","5","1","1","1","1","1","1","1","2","1","0","1","0","0","1","0","0","0","0","0","0","0","0","0","1","5","1","1","2","1","","2","1","2","2","1","781521029972627457","张","266","","","","","","","","","","","","","","","","","","","","","","","","","","","","","","","","","","","","","","","","","",""
"563","<p style=""color:rgb(150, 250, 100); font-size: 35px;"">他的</p>","i","categorize-html","189","448082","0.0-6.0-0.0-8.0-1.40","4","4","4","4","3","4","4","3","4","4","5","5","4","1","1","1","4","4","5","5","1","1","1","1","1","1","1","2","1","0","1","0","0","1","0","0","0","0","0","0","0","0","0","1","5","1","1","2","1","","2","1","2","2","1","781521029972627457","张","266","","","","","","","","","","","","","","","","","","","true","4","4","ability","563","other","他的","","","","","","","","","","","","","","","","",""
"null","","null","html-keyboard-response","190","448334","0.0-6.0-0.0-8.0-0.41","4","4","4","4","3","4","4","3","4","4","5","5","4","1","1","1","4","4","5","5","1","1","1","1","1","1","1","2","1","0","1","0","0","1","0","0","0","0","0","0","0","0","0","1","5","1","1","2","1","","2","1","2","2","1","781521029972627457","张","266","","","","","","","","","","","","","","","","","","","","","","","","","","","","","","","","","","","","","","","","","",""
"554","<p style=""color:white; font-size: 35px;"">废物</p>","i","categorize-html","191","448891","0.0-6.0-0.0-8.0-1.41","4","4","4","4","3","4","4","3","4","4","5","5","4","1","1","1","4","4","5","5","1","1","1","1","1","1","1","2","1","0","1","0","0","1","0","0","0","0","0","0","0","0","0","1","5","1","1","2","1","","2","1","2","2","1","781521029972627457","张","266","","","","","","","","","","","","","","","","","","","true","4","4","ability","554","negative","废物","","","","","","","","","","","","","","","","",""
"null","","null","html-keyboard-response","192","449141","0.0-6.0-0.0-8.0-0.42","4","4","4","4","3","4","4","3","4","4","5","5","4","1","1","1","4","4","5","5","1","1","1","1","1","1","1","2","1","0","1","0","0","1","0","0","0","0","0","0","0","0","0","1","5","1","1","2","1","","2","1","2","2","1","781521029972627457","张","266","","","","","","","","","","","","","","","","","","","","","","","","","","","","","","","","","","","","","","","","","",""
"507","<p style=""color:rgb(150, 250, 100); font-size: 35px;"">自己</p>","e","categorize-html","193","449650","0.0-6.0-0.0-8.0-1.42","4","4","4","4","3","4","4","3","4","4","5","5","4","1","1","1","4","4","5","5","1","1","1","1","1","1","1","2","1","0","1","0","0","1","0","0","0","0","0","0","0","0","0","1","5","1","1","2","1","","2","1","2","2","1","781521029972627457","张","266","","","","","","","","","","","","","","","","","","","true","4","4","ability","507","self","自己","","","","","","","","","","","","","","","","",""
