"rt","stimulus","response","trial_type","trial_index","time_elapsed","internal_node_id","ses_1","ses_2","ses_3","ses_4","ses_5","ses_6","ses_7","ses_8","ses_9","ses_10","coreself_1","coreself_2","coreself_3","coreself_4","coreself_5","coreself_6","coreself_7","coreself_8","coreself_9","coreself_10","SGPS_1","SGPS_2","SGPS_3","SGPS_4","SGPS_5","SGPS_6","SGPS_7","SGPS_8","SGPS_9","NPI1","NPI2","NPI3","NPI4","NPI5","NPI6","NPI7","NPI8","NPI9","NPI10","NPI11","NPI12","NPI13","NPI14","NPI15","hsns_1","hsns_2","hsns_3","hsns_4","hsns_5","trap1","hsns_6","hsns_7","hsns_8","hsns_9","hsns_10","subj_idx","friend_name","ParticipantID","value","success","user_agent","responses","item_order","radio_event_ids","radio_event_times","key_event_times","mouse_event_times","straightlining","zigzagging","honeypot","timeout","failed_images","failed_audio","failed_video","view_history","response_type","key_press","avg_frame_time","center_x","center_y","correct_response","correct","identity","Image","word","condition","task_id","screen_id","time_stamp","version_attrib2","version_target2","IAT","RT","varname","summary","version_attrib","version_target","question_order","correct_answer","trap1_item"
"47196","
   <p><div style = ""color: white;font-size:25px;"">您好，欢迎参加本次实验。</div> </p>
   <p><div style = ""color: white;font-size:25px;"">为充分保障您的权利，请确保您已经知晓并同意《参与实验同意书》以及《数据公开知情同意书》。</div></p>
   <p><div style = ""color: white;font-size:25px;"">如果您未见过上述内容，请咨询实验员。</div></p>
   <p><div style = ""color: white;font-size:25px;"">如果您选择继续实验，则表示您已经清楚两份知情同意书的内容并同意。</div></p>
   <p><div style = ""color: pink;font-size:30px;"">请确保您记得day0的实验编号，您将在本次实验输入该编号，若您忘记，请咨询实验员后作答。</div></p>
   <p><div style = ""color: lightblue;font-size:25px;"">请您尽可能认真地作答，我们将依据您在各问卷和按键任务中的作答质量发放报酬。</div></p>
   <p> <div style = ""color: green;font-size:25px;""><按空格键至下页></div> </p>
   "," ","html-keyboard-response","0","47198","0.0-0.0","4","4","4","4","4","4","3","2","4","4","5","4","4","4","4","4","5","4","5","5","2","1","2","2","2","1","1","1","2","1","0","0","0","0","0","0","1","0","1","1","0","1","0","0","4","2","2","2","2","","4","2","1","1","2","652595581352411136","王","446","","","","","","","","","","","","","","","","","","","","","","","","","","","","","","","","","","","","","","","","","",""
"","","","call-function","1","47199","0.0-1.0-0.0","4","4","4","4","4","4","3","2","4","4","5","4","4","4","4","4","5","4","5","5","2","1","2","2","2","1","1","1","2","1","0","0","0","0","0","0","1","0","1","1","0","1","0","0","4","2","2","2","2","","4","2","1","1","2","652595581352411136","王","446","","","","","","","","","","","","","","","","","","","","","","","","","","","","","","","","","","","","","","","","","",""
"52997","","{""friend_name"":""王"",""ParticipantID"":""446""}","survey-html-form","2","100198","0.0-1.0-1.0","4","4","4","4","4","4","3","2","4","4","5","4","4","4","4","4","5","4","5","5","2","1","2","2","2","1","1","1","2","1","0","0","0","0","0","0","1","0","1","1","0","1","0","0","4","2","2","2","2","","4","2","1","1","2","652595581352411136","王","446","","","","","","","","","","","","","","","","","","","","","","","","","","","","","","","","","","","","","","","","","",""
"","","","fullscreen","3","126942","0.0-2.0","4","4","4","4","4","4","3","2","4","4","5","4","4","4","4","4","5","4","5","5","2","1","2","2","2","1","1","1","2","1","0","0","0","0","0","0","1","0","1","1","0","1","0","0","4","2","2","2","2","","4","2","1","1","2","652595581352411136","王","446","","true","{}","","","","","","","","","","","","","","","","","","","","","","","","","","","","","","","","","","","","","","",""
"58370.20000000298","","{""Q01"":""4"",""Q02"":""4"",""Q03"":""4"",""Q04"":""4"",""Q05"":""4"",""Q06"":""4"",""Q07"":""3"",""Q08"":""2"",""Q09"":""4"",""Q10"":""4""}","survey-template","4","185314","0.0-3.0","4","4","4","4","4","4","3","2","4","4","5","4","4","4","4","4","5","4","5","5","2","1","2","2","2","1","1","1","2","1","0","0","0","0","0","0","1","0","1","1","0","1","0","0","4","2","2","2","2","","4","2","1","1","2","652595581352411136","王","446","","","","{""Q01"":""4"",""Q02"":""4"",""Q03"":""4"",""Q04"":""4"",""Q05"":""4"",""Q06"":""4"",""Q07"":""3"",""Q08"":""2"",""Q09"":""4"",""Q10"":""4""}","[0,1,2,3,4,5,6,7,8,9]","[""Q01"",""Q02"",""Q03"",""Q04"",""Q05"",""Q06"",""Q07"",""Q08"",""Q08"",""Q09"",""Q09"",""Q10""]","[4993.70000000298,5945.70000000298,8581.70000000298,10997.70000000298,17333.59999999404,19077.79999999702,22661.5,27269.59999999404,31349.59999999404,32333.39999999106,36437.70000000298,37333.59999999404]","[]","[3797.3999999910593,4993.70000000298,5945.70000000298,8581.70000000298,10997.70000000298,17333.59999999404,19077.79999999702,22661.5,27269.59999999404,29613.70000000298,30677.29999999702,31349.59999999404,32333.39999999106,35229.89999999106,36437.70000000298,37333.59999999404,58369.39999999106]","0.4","0.5555555555555556","0","","","","","","","","","","","","","","","","","","","","","","","","","","","","","",""
"40584.70000000298","","{""Q01"":""5"",""Q02"":""4"",""Q03"":""4"",""Q04"":""4"",""Q05"":""4"",""Q06"":""4"",""Q07"":""5"",""Q08"":""4"",""Q09"":""5"",""Q10"":""5""}","survey-template","5","225902","0.0-4.0","4","4","4","4","4","4","3","2","4","4","5","4","4","4","4","4","5","4","5","5","2","1","2","2","2","1","1","1","2","1","0","0","0","0","0","0","1","0","1","1","0","1","0","0","4","2","2","2","2","","4","2","1","1","2","652595581352411136","王","446","","","","{""Q01"":""5"",""Q02"":""4"",""Q03"":""4"",""Q04"":""4"",""Q05"":""4"",""Q06"":""4"",""Q07"":""5"",""Q08"":""4"",""Q09"":""5"",""Q10"":""5""}","[0,1,2,3,4,5,6,7,8,9]","[""Q01"",""Q02"",""Q03"",""Q04"",""Q05"",""Q06"",""Q07"",""Q08"",""Q09"",""Q10""]","[4508,8068,11900,17467.90000000596,21379.90000000596,25108,27875.60000000894,31859.90000000596,33963.90000000596,37228.5]","[]","[4508,7412.20000000298,8068,11900,15485.20000000298,17467.90000000596,21379.90000000596,25108,27875.60000000894,31859.90000000596,33963.90000000596,37228.5,40584.10000000894]","0.4","0.2222222222222222","0","","","","","","","","","","","","","","","","","","","","","","","","","","","","","",""
"","","","preload","6","226164","0.0-5.0","4","4","4","4","4","4","3","2","4","4","5","4","4","4","4","4","5","4","5","5","2","1","2","2","2","1","1","1","2","1","0","0","0","0","0","0","1","0","1","1","0","1","0","0","4","2","2","2","2","","4","2","1","1","2","652595581352411136","王","446","","true","","","","","","","","","","","false","[]","[]","[]","","","","","","","","","","","","","","","","","","","","","","","","","",""
"31172","","","instructions","7","257337","0.0-6.0","4","4","4","4","4","4","3","2","4","4","5","4","4","4","4","4","5","4","5","5","2","1","2","2","2","1","1","1","2","1","0","0","0","0","0","0","1","0","1","1","0","1","0","0","4","2","2","2","2","","4","2","1","1","2","652595581352411136","王","446","","","","","","","","","","","","","","","","","[{""page_index"":0,""viewing_time"":31172}]","","","","","","","","","","","","","","","","","","","","","","","","",""
"38602","","","instructions","8","295940","0.0-7.0-0.0-0.0","4","4","4","4","4","4","3","2","4","4","5","4","4","4","4","4","5","4","5","5","2","1","2","2","2","1","1","1","2","1","0","0","0","0","0","0","1","0","1","1","0","1","0","0","4","2","2","2","2","","4","2","1","1","2","652595581352411136","王","446","","","","","","","","","","","","","","","","","[{""page_index"":0,""viewing_time"":16422},{""page_index"":1,""viewing_time"":19260},{""page_index"":2,""viewing_time"":2920}]","","","","","","","","","","","","","","","","","","","","","","","","",""
"null","","null","psychophysics","9","298144","0.0-7.0-0.0-1.0-0.0-0.0","4","4","4","4","4","4","3","2","4","4","5","4","4","4","4","4","5","4","5","5","2","1","2","2","2","1","1","1","2","1","0","0","0","0","0","0","1","0","1","1","0","1","0","0","4","2","2","2","2","","4","2","1","1","2","652595581352411136","王","446","","","","null","","","","","","","","","","","","","","key","null","8.333460076045672","640","396","j","false","nonmatch","img/pentagon.png","梯形","五边","ALT1_1","prac_ALT1_1","","","","","","","","","","","",""
"null","<span class='add_' style='color:yellow; font-size: 70px;'> 太慢! </span>","null","html-keyboard-response","10","298646","0.0-7.0-0.0-1.0-0.0-1.0","4","4","4","4","4","4","3","2","4","4","5","4","4","4","4","4","5","4","5","5","2","1","2","2","2","1","1","1","2","1","0","0","0","0","0","0","1","0","1","1","0","1","0","0","4","2","2","2","2","","4","2","1","1","2","652595581352411136","王","446","","","","","","","","","","","","","","","","","","","","","","","","","","","","","","feedback_test","","","","","","","","","","","",""
"937","","j","psychophysics","11","300584","0.0-7.0-0.0-1.0-0.0-0.1","4","4","4","4","4","4","3","2","4","4","5","4","4","4","4","4","5","4","5","5","2","1","2","2","2","1","1","1","2","1","0","0","0","0","0","0","1","0","1","1","0","1","0","0","4","2","2","2","2","","4","2","1","1","2","652595581352411136","王","446","","","","nonmatch","","","","","","","","","","","","","","key","j","8.331896551724139","640","396","j","true","nonmatch","img/circle.png","方形","圆形","ALT1_1","prac_ALT1_1","","","","","","","","","","","",""
"null","<span style='color:GreenYellow; font-size: 70px;'>正确! </span>","null","html-keyboard-response","12","301085","0.0-7.0-0.0-1.0-0.0-1.1","4","4","4","4","4","4","3","2","4","4","5","4","4","4","4","4","5","4","5","5","2","1","2","2","2","1","1","1","2","1","0","0","0","0","0","0","1","0","1","1","0","1","0","0","4","2","2","2","2","","4","2","1","1","2","652595581352411136","王","446","","","","","","","","","","","","","","","","","","","","","","","","","","","","","","feedback_test","","","","","","","","","","","",""
"946","","j","psychophysics","13","303033","0.0-7.0-0.0-1.0-0.0-0.2","4","4","4","4","4","4","3","2","4","4","5","4","4","4","4","4","5","4","5","5","2","1","2","2","2","1","1","1","2","1","0","0","0","0","0","0","1","0","1","1","0","1","0","0","4","2","2","2","2","","4","2","1","1","2","652595581352411136","王","446","","","","nonmatch","","","","","","","","","","","","","","key","j","8.33405172413793","640","396","j","true","nonmatch","img/trapezoid.png","五边","梯形","ALT1_1","prac_ALT1_1","","","","","","","","","","","",""
"null","<span style='color:GreenYellow; font-size: 70px;'>正确! </span>","null","html-keyboard-response","14","303535","0.0-7.0-0.0-1.0-0.0-1.2","4","4","4","4","4","4","3","2","4","4","5","4","4","4","4","4","5","4","5","5","2","1","2","2","2","1","1","1","2","1","0","0","0","0","0","0","1","0","1","1","0","1","0","0","4","2","2","2","2","","4","2","1","1","2","652595581352411136","王","446","","","","","","","","","","","","","","","","","","","","","","","","","","","","","","feedback_test","","","","","","","","","","","",""
"1083","","j","psychophysics","15","305620","0.0-7.0-0.0-1.0-0.0-0.3","4","4","4","4","4","4","3","2","4","4","5","4","4","4","4","4","5","4","5","5","2","1","2","2","2","1","1","1","2","1","0","0","0","0","0","0","1","0","1","1","0","1","0","0","4","2","2","2","2","","4","2","1","1","2","652595581352411136","王","446","","","","nonmatch","","","","","","","","","","","","","","key","j","8.333467741935296","640","396","j","true","nonmatch","img/square.png","圆形","方形","ALT1_1","prac_ALT1_1","","","","","","","","","","","",""
"null","<span style='color:GreenYellow; font-size: 70px;'>正确! </span>","null","html-keyboard-response","16","306121","0.0-7.0-0.0-1.0-0.0-1.3","4","4","4","4","4","4","3","2","4","4","5","4","4","4","4","4","5","4","5","5","2","1","2","2","2","1","1","1","2","1","0","0","0","0","0","0","1","0","1","1","0","1","0","0","4","2","2","2","2","","4","2","1","1","2","652595581352411136","王","446","","","","","","","","","","","","","","","","","","","","","","","","","","","","","","feedback_test","","","","","","","","","","","",""
"1083","","j","psychophysics","17","308205","0.0-7.0-0.0-1.0-0.0-0.4","4","4","4","4","4","4","3","2","4","4","5","4","4","4","4","4","5","4","5","5","2","1","2","2","2","1","1","1","2","1","0","0","0","0","0","0","1","0","1","1","0","1","0","0","4","2","2","2","2","","4","2","1","1","2","652595581352411136","王","446","","","","nonmatch","","","","","","","","","","","","","","key","j","8.367871485943915","640","396","f","false","match","img/trapezoid.png","梯形","梯形","ALT1_1","prac_ALT1_1","","","","","","","","","","","",""
"null","<span style='color:red; font-size: 70px;'>错误! </span>","null","html-keyboard-response","18","308706","0.0-7.0-0.0-1.0-0.0-1.4","4","4","4","4","4","4","3","2","4","4","5","4","4","4","4","4","5","4","5","5","2","1","2","2","2","1","1","1","2","1","0","0","0","0","0","0","1","0","1","1","0","1","0","0","4","2","2","2","2","","4","2","1","1","2","652595581352411136","王","446","","","","","","","","","","","","","","","","","","","","","","","","","","","","","","feedback_test","","","","","","","","","","","",""
"null","","null","psychophysics","19","310916","0.0-7.0-0.0-1.0-0.0-0.5","4","4","4","4","4","4","3","2","4","4","5","4","4","4","4","4","5","4","5","5","2","1","2","2","2","1","1","1","2","1","0","0","0","0","0","0","1","0","1","1","0","1","0","0","4","2","2","2","2","","4","2","1","1","2","652595581352411136","王","446","","","","null","","","","","","","","","","","","","","key","null","8.333333333333334","640","396","j","false","nonmatch","img/square.png","梯形","方形","ALT1_1","prac_ALT1_1","","","","","","","","","","","",""
"null","<span class='add_' style='color:yellow; font-size: 70px;'> 太慢! </span>","null","html-keyboard-response","20","311417","0.0-7.0-0.0-1.0-0.0-1.5","4","4","4","4","4","4","3","2","4","4","5","4","4","4","4","4","5","4","5","5","2","1","2","2","2","1","1","1","2","1","0","0","0","0","0","0","1","0","1","1","0","1","0","0","4","2","2","2","2","","4","2","1","1","2","652595581352411136","王","446","","","","","","","","","","","","","","","","","","","","","","","","","","","","","","feedback_test","","","","","","","","","","","",""
"1095","","j","psychophysics","21","313514","0.0-7.0-0.0-1.0-0.0-0.6","4","4","4","4","4","4","3","2","4","4","5","4","4","4","4","4","5","4","5","5","2","1","2","2","2","1","1","1","2","1","0","0","0","0","0","0","1","0","1","1","0","1","0","0","4","2","2","2","2","","4","2","1","1","2","652595581352411136","王","446","","","","nonmatch","","","","","","","","","","","","","","key","j","8.329317269076306","640","396","j","true","nonmatch","img/square.png","五边","方形","ALT1_1","prac_ALT1_1","","","","","","","","","","","",""
"null","<span style='color:GreenYellow; font-size: 70px;'>正确! </span>","null","html-keyboard-response","22","314016","0.0-7.0-0.0-1.0-0.0-1.6","4","4","4","4","4","4","3","2","4","4","5","4","4","4","4","4","5","4","5","5","2","1","2","2","2","1","1","1","2","1","0","0","0","0","0","0","1","0","1","1","0","1","0","0","4","2","2","2","2","","4","2","1","1","2","652595581352411136","王","446","","","","","","","","","","","","","","","","","","","","","","","","","","","","","","feedback_test","","","","","","","","","","","",""
"774","","f","psychophysics","23","315792","0.0-7.0-0.0-1.0-0.0-0.7","4","4","4","4","4","4","3","2","4","4","5","4","4","4","4","4","5","4","5","5","2","1","2","2","2","1","1","1","2","1","0","0","0","0","0","0","1","0","1","1","0","1","0","0","4","2","2","2","2","","4","2","1","1","2","652595581352411136","王","446","","","","match","","","","","","","","","","","","","","key","f","8.334597156398269","640","396","f","true","match","img/circle.png","圆形","圆形","ALT1_1","prac_ALT1_1","","","","","","","","","","","",""
"null","<span style='color:GreenYellow; font-size: 70px;'>正确! </span>","null","html-keyboard-response","24","316293","0.0-7.0-0.0-1.0-0.0-1.7","4","4","4","4","4","4","3","2","4","4","5","4","4","4","4","4","5","4","5","5","2","1","2","2","2","1","1","1","2","1","0","0","0","0","0","0","1","0","1","1","0","1","0","0","4","2","2","2","2","","4","2","1","1","2","652595581352411136","王","446","","","","","","","","","","","","","","","","","","","","","","","","","","","","","","feedback_test","","","","","","","","","","","",""
"1199","","f","psychophysics","25","318493","0.0-7.0-0.0-1.0-0.0-0.8","4","4","4","4","4","4","3","2","4","4","5","4","4","4","4","4","5","4","5","5","2","1","2","2","2","1","1","1","2","1","0","0","0","0","0","0","1","0","1","1","0","1","0","0","4","2","2","2","2","","4","2","1","1","2","652595581352411136","王","446","","","","match","","","","","","","","","","","","","","key","f","8.332950191570747","640","396","f","true","match","img/square.png","方形","方形","ALT1_1","prac_ALT1_1","","","","","","","","","","","",""
"null","<span style='color:GreenYellow; font-size: 70px;'>正确! </span>","null","html-keyboard-response","26","318994","0.0-7.0-0.0-1.0-0.0-1.8","4","4","4","4","4","4","3","2","4","4","5","4","4","4","4","4","5","4","5","5","2","1","2","2","2","1","1","1","2","1","0","0","0","0","0","0","1","0","1","1","0","1","0","0","4","2","2","2","2","","4","2","1","1","2","652595581352411136","王","446","","","","","","","","","","","","","","","","","","","","","","","","","","","","","","feedback_test","","","","","","","","","","","",""
"763","","j","psychophysics","27","320758","0.0-7.0-0.0-1.0-0.0-0.9","4","4","4","4","4","4","3","2","4","4","5","4","4","4","4","4","5","4","5","5","2","1","2","2","2","1","1","1","2","1","0","0","0","0","0","0","1","0","1","1","0","1","0","0","4","2","2","2","2","","4","2","1","1","2","652595581352411136","王","446","","","","nonmatch","","","","","","","","","","","","","","key","j","8.332701421800728","640","396","j","true","nonmatch","img/circle.png","梯形","圆形","ALT1_1","prac_ALT1_1","","","","","","","","","","","",""
"null","<span style='color:GreenYellow; font-size: 70px;'>正确! </span>","null","html-keyboard-response","28","321259","0.0-7.0-0.0-1.0-0.0-1.9","4","4","4","4","4","4","3","2","4","4","5","4","4","4","4","4","5","4","5","5","2","1","2","2","2","1","1","1","2","1","0","0","0","0","0","0","1","0","1","1","0","1","0","0","4","2","2","2","2","","4","2","1","1","2","652595581352411136","王","446","","","","","","","","","","","","","","","","","","","","","","","","","","","","","","feedback_test","","","","","","","","","","","",""
"795","","f","psychophysics","29","323056","0.0-7.0-0.0-1.0-0.0-0.10","4","4","4","4","4","4","3","2","4","4","5","4","4","4","4","4","5","4","5","5","2","1","2","2","2","1","1","1","2","1","0","0","0","0","0","0","1","0","1","1","0","1","0","0","4","2","2","2","2","","4","2","1","1","2","652595581352411136","王","446","","","","match","","","","","","","","","","","","","","key","f","8.333802816901299","640","396","f","true","match","img/pentagon.png","五边","五边","ALT1_1","prac_ALT1_1","","","","","","","","","","","",""
"null","<span style='color:GreenYellow; font-size: 70px;'>正确! </span>","null","html-keyboard-response","30","323557","0.0-7.0-0.0-1.0-0.0-1.10","4","4","4","4","4","4","3","2","4","4","5","4","4","4","4","4","5","4","5","5","2","1","2","2","2","1","1","1","2","1","0","0","0","0","0","0","1","0","1","1","0","1","0","0","4","2","2","2","2","","4","2","1","1","2","652595581352411136","王","446","","","","","","","","","","","","","","","","","","","","","","","","","","","","","","feedback_test","","","","","","","","","","","",""
"1130","","f","psychophysics","31","325688","0.0-7.0-0.0-1.0-0.0-0.11","4","4","4","4","4","4","3","2","4","4","5","4","4","4","4","4","5","4","5","5","2","1","2","2","2","1","1","1","2","1","0","0","0","0","0","0","1","0","1","1","0","1","0","0","4","2","2","2","2","","4","2","1","1","2","652595581352411136","王","446","","","","match","","","","","","","","","","","","","","key","f","8.335433070866188","640","396","f","true","match","img/trapezoid.png","梯形","梯形","ALT1_1","prac_ALT1_1","","","","","","","","","","","",""
"null","<span style='color:GreenYellow; font-size: 70px;'>正确! </span>","null","html-keyboard-response","32","326189","0.0-7.0-0.0-1.0-0.0-1.11","4","4","4","4","4","4","3","2","4","4","5","4","4","4","4","4","5","4","5","5","2","1","2","2","2","1","1","1","2","1","0","0","0","0","0","0","1","0","1","1","0","1","0","0","4","2","2","2","2","","4","2","1","1","2","652595581352411136","王","446","","","","","","","","","","","","","","","","","","","","","","","","","","","","","","feedback_test","","","","","","","","","","","",""
"742","","f","psychophysics","33","327932","0.0-7.0-0.0-1.0-0.0-0.12","4","4","4","4","4","4","3","2","4","4","5","4","4","4","4","4","5","4","5","5","2","1","2","2","2","1","1","1","2","1","0","0","0","0","0","0","1","0","1","1","0","1","0","0","4","2","2","2","2","","4","2","1","1","2","652595581352411136","王","446","","","","match","","","","","","","","","","","","","","key","f","8.333333333333334","640","396","f","true","match","img/circle.png","圆形","圆形","ALT1_1","prac_ALT1_1","","","","","","","","","","","",""
"null","<span style='color:GreenYellow; font-size: 70px;'>正确! </span>","null","html-keyboard-response","34","328433","0.0-7.0-0.0-1.0-0.0-1.12","4","4","4","4","4","4","3","2","4","4","5","4","4","4","4","4","5","4","5","5","2","1","2","2","2","1","1","1","2","1","0","0","0","0","0","0","1","0","1","1","0","1","0","0","4","2","2","2","2","","4","2","1","1","2","652595581352411136","王","446","","","","","","","","","","","","","","","","","","","","","","","","","","","","","","feedback_test","","","","","","","","","","","",""
"1017","","j","psychophysics","35","330451","0.0-7.0-0.0-1.0-0.0-0.13","4","4","4","4","4","4","3","2","4","4","5","4","4","4","4","4","5","4","5","5","2","1","2","2","2","1","1","1","2","1","0","0","0","0","0","0","1","0","1","1","0","1","0","0","4","2","2","2","2","","4","2","1","1","2","652595581352411136","王","446","","","","nonmatch","","","","","","","","","","","","","","key","j","8.334166666666714","640","396","j","true","nonmatch","img/trapezoid.png","方形","梯形","ALT1_1","prac_ALT1_1","","","","","","","","","","","",""
"null","<span style='color:GreenYellow; font-size: 70px;'>正确! </span>","null","html-keyboard-response","36","330952","0.0-7.0-0.0-1.0-0.0-1.13","4","4","4","4","4","4","3","2","4","4","5","4","4","4","4","4","5","4","5","5","2","1","2","2","2","1","1","1","2","1","0","0","0","0","0","0","1","0","1","1","0","1","0","0","4","2","2","2","2","","4","2","1","1","2","652595581352411136","王","446","","","","","","","","","","","","","","","","","","","","","","","","","","","","","","feedback_test","","","","","","","","","","","",""
"898","","f","psychophysics","37","332851","0.0-7.0-0.0-1.0-0.0-0.14","4","4","4","4","4","4","3","2","4","4","5","4","4","4","4","4","5","4","5","5","2","1","2","2","2","1","1","1","2","1","0","0","0","0","0","0","1","0","1","1","0","1","0","0","4","2","2","2","2","","4","2","1","1","2","652595581352411136","王","446","","","","match","","","","","","","","","","","","","","key","f","8.332888888888734","640","396","f","true","match","img/circle.png","圆形","圆形","ALT1_1","prac_ALT1_1","","","","","","","","","","","",""
"null","<span style='color:GreenYellow; font-size: 70px;'>正确! </span>","null","html-keyboard-response","38","333352","0.0-7.0-0.0-1.0-0.0-1.14","4","4","4","4","4","4","3","2","4","4","5","4","4","4","4","4","5","4","5","5","2","1","2","2","2","1","1","1","2","1","0","0","0","0","0","0","1","0","1","1","0","1","0","0","4","2","2","2","2","","4","2","1","1","2","652595581352411136","王","446","","","","","","","","","","","","","","","","","","","","","","","","","","","","","","feedback_test","","","","","","","","","","","",""
"828","","j","psychophysics","39","335181","0.0-7.0-0.0-1.0-0.0-0.15","4","4","4","4","4","4","3","2","4","4","5","4","4","4","4","4","5","4","5","5","2","1","2","2","2","1","1","1","2","1","0","0","0","0","0","0","1","0","1","1","0","1","0","0","4","2","2","2","2","","4","2","1","1","2","652595581352411136","王","446","","","","nonmatch","","","","","","","","","","","","","","key","j","8.33271889400927","640","396","j","true","nonmatch","img/pentagon.png","方形","五边","ALT1_1","prac_ALT1_1","","","","","","","","","","","",""
"null","<span style='color:GreenYellow; font-size: 70px;'>正确! </span>","null","html-keyboard-response","40","335683","0.0-7.0-0.0-1.0-0.0-1.15","4","4","4","4","4","4","3","2","4","4","5","4","4","4","4","4","5","4","5","5","2","1","2","2","2","1","1","1","2","1","0","0","0","0","0","0","1","0","1","1","0","1","0","0","4","2","2","2","2","","4","2","1","1","2","652595581352411136","王","446","","","","","","","","","","","","","","","","","","","","","","","","","","","","","","feedback_test","","","","","","","","","","","",""
"1023","","f","psychophysics","41","337707","0.0-7.0-0.0-1.0-0.0-0.16","4","4","4","4","4","4","3","2","4","4","5","4","4","4","4","4","5","4","5","5","2","1","2","2","2","1","1","1","2","1","0","0","0","0","0","0","1","0","1","1","0","1","0","0","4","2","2","2","2","","4","2","1","1","2","652595581352411136","王","446","","","","match","","","","","","","","","","","","","","key","f","8.333057851239813","640","396","f","true","match","img/trapezoid.png","梯形","梯形","ALT1_1","prac_ALT1_1","","","","","","","","","","","",""
"null","<span style='color:GreenYellow; font-size: 70px;'>正确! </span>","null","html-keyboard-response","42","338207","0.0-7.0-0.0-1.0-0.0-1.16","4","4","4","4","4","4","3","2","4","4","5","4","4","4","4","4","5","4","5","5","2","1","2","2","2","1","1","1","2","1","0","0","0","0","0","0","1","0","1","1","0","1","0","0","4","2","2","2","2","","4","2","1","1","2","652595581352411136","王","446","","","","","","","","","","","","","","","","","","","","","","","","","","","","","","feedback_test","","","","","","","","","","","",""
"927","","f","psychophysics","43","340138","0.0-7.0-0.0-1.0-0.0-0.17","4","4","4","4","4","4","3","2","4","4","5","4","4","4","4","4","5","4","5","5","2","1","2","2","2","1","1","1","2","1","0","0","0","0","0","0","1","0","1","1","0","1","0","0","4","2","2","2","2","","4","2","1","1","2","652595581352411136","王","446","","","","match","","","","","","","","","","","","","","key","f","8.331168831168831","640","396","f","true","match","img/square.png","方形","方形","ALT1_1","prac_ALT1_1","","","","","","","","","","","",""
"null","<span style='color:GreenYellow; font-size: 70px;'>正确! </span>","null","html-keyboard-response","44","340638","0.0-7.0-0.0-1.0-0.0-1.17","4","4","4","4","4","4","3","2","4","4","5","4","4","4","4","4","5","4","5","5","2","1","2","2","2","1","1","1","2","1","0","0","0","0","0","0","1","0","1","1","0","1","0","0","4","2","2","2","2","","4","2","1","1","2","652595581352411136","王","446","","","","","","","","","","","","","","","","","","","","","","","","","","","","","","feedback_test","","","","","","","","","","","",""
"1031","","f","psychophysics","45","342670","0.0-7.0-0.0-1.0-0.0-0.18","4","4","4","4","4","4","3","2","4","4","5","4","4","4","4","4","5","4","5","5","2","1","2","2","2","1","1","1","2","1","0","0","0","0","0","0","1","0","1","1","0","1","0","0","4","2","2","2","2","","4","2","1","1","2","652595581352411136","王","446","","","","match","","","","","","","","","","","","","","key","f","8.334710743801653","640","396","f","true","match","img/pentagon.png","五边","五边","ALT1_1","prac_ALT1_1","","","","","","","","","","","",""
"null","<span style='color:GreenYellow; font-size: 70px;'>正确! </span>","null","html-keyboard-response","46","343172","0.0-7.0-0.0-1.0-0.0-1.18","4","4","4","4","4","4","3","2","4","4","5","4","4","4","4","4","5","4","5","5","2","1","2","2","2","1","1","1","2","1","0","0","0","0","0","0","1","0","1","1","0","1","0","0","4","2","2","2","2","","4","2","1","1","2","652595581352411136","王","446","","","","","","","","","","","","","","","","","","","","","","","","","","","","","","feedback_test","","","","","","","","","","","",""
"898","","j","psychophysics","47","345071","0.0-7.0-0.0-1.0-0.0-0.19","4","4","4","4","4","4","3","2","4","4","5","4","4","4","4","4","5","4","5","5","2","1","2","2","2","1","1","1","2","1","0","0","0","0","0","0","1","0","1","1","0","1","0","0","4","2","2","2","2","","4","2","1","1","2","652595581352411136","王","446","","","","nonmatch","","","","","","","","","","","","","","key","j","8.332599118942731","640","396","j","true","nonmatch","img/pentagon.png","圆形","五边","ALT1_1","prac_ALT1_1","","","","","","","","","","","",""
"null","<span style='color:GreenYellow; font-size: 70px;'>正确! </span>","null","html-keyboard-response","48","345571","0.0-7.0-0.0-1.0-0.0-1.19","4","4","4","4","4","4","3","2","4","4","5","4","4","4","4","4","5","4","5","5","2","1","2","2","2","1","1","1","2","1","0","0","0","0","0","0","1","0","1","1","0","1","0","0","4","2","2","2","2","","4","2","1","1","2","652595581352411136","王","446","","","","","","","","","","","","","","","","","","","","","","","","","","","","","","feedback_test","","","","","","","","","","","",""
"893","","f","psychophysics","49","347466","0.0-7.0-0.0-1.0-0.0-0.20","4","4","4","4","4","4","3","2","4","4","5","4","4","4","4","4","5","4","5","5","2","1","2","2","2","1","1","1","2","1","0","0","0","0","0","0","1","0","1","1","0","1","0","0","4","2","2","2","2","","4","2","1","1","2","652595581352411136","王","446","","","","match","","","","","","","","","","","","","","key","f","8.326222222222068","640","396","f","true","match","img/square.png","方形","方形","ALT1_1","prac_ALT1_1","","","","","","","","","","","",""
"null","<span style='color:GreenYellow; font-size: 70px;'>正确! </span>","null","html-keyboard-response","50","347967","0.0-7.0-0.0-1.0-0.0-1.20","4","4","4","4","4","4","3","2","4","4","5","4","4","4","4","4","5","4","5","5","2","1","2","2","2","1","1","1","2","1","0","0","0","0","0","0","1","0","1","1","0","1","0","0","4","2","2","2","2","","4","2","1","1","2","652595581352411136","王","446","","","","","","","","","","","","","","","","","","","","","","","","","","","","","","feedback_test","","","","","","","","","","","",""
"869","","f","psychophysics","51","349837","0.0-7.0-0.0-1.0-0.0-0.21","4","4","4","4","4","4","3","2","4","4","5","4","4","4","4","4","5","4","5","5","2","1","2","2","2","1","1","1","2","1","0","0","0","0","0","0","1","0","1","1","0","1","0","0","4","2","2","2","2","","4","2","1","1","2","652595581352411136","王","446","","","","match","","","","","","","","","","","","","","key","f","8.336036036035932","640","396","f","true","match","img/pentagon.png","五边","五边","ALT1_1","prac_ALT1_1","","","","","","","","","","","",""
"null","<span style='color:GreenYellow; font-size: 70px;'>正确! </span>","null","html-keyboard-response","52","350338","0.0-7.0-0.0-1.0-0.0-1.21","4","4","4","4","4","4","3","2","4","4","5","4","4","4","4","4","5","4","5","5","2","1","2","2","2","1","1","1","2","1","0","0","0","0","0","0","1","0","1","1","0","1","0","0","4","2","2","2","2","","4","2","1","1","2","652595581352411136","王","446","","","","","","","","","","","","","","","","","","","","","","","","","","","","","","feedback_test","","","","","","","","","","","",""
"897","","j","psychophysics","53","352236","0.0-7.0-0.0-1.0-0.0-0.22","4","4","4","4","4","4","3","2","4","4","5","4","4","4","4","4","5","4","5","5","2","1","2","2","2","1","1","1","2","1","0","0","0","0","0","0","1","0","1","1","0","1","0","0","4","2","2","2","2","","4","2","1","1","2","652595581352411136","王","446","","","","nonmatch","","","","","","","","","","","","","","key","j","8.370925110131953","640","396","j","true","nonmatch","img/trapezoid.png","圆形","梯形","ALT1_1","prac_ALT1_1","","","","","","","","","","","",""
"null","<span style='color:GreenYellow; font-size: 70px;'>正确! </span>","null","html-keyboard-response","54","352737","0.0-7.0-0.0-1.0-0.0-1.22","4","4","4","4","4","4","3","2","4","4","5","4","4","4","4","4","5","4","5","5","2","1","2","2","2","1","1","1","2","1","0","0","0","0","0","0","1","0","1","1","0","1","0","0","4","2","2","2","2","","4","2","1","1","2","652595581352411136","王","446","","","","","","","","","","","","","","","","","","","","","","","","","","","","","","feedback_test","","","","","","","","","","","",""
"731","","j","psychophysics","55","354470","0.0-7.0-0.0-1.0-0.0-0.23","4","4","4","4","4","4","3","2","4","4","5","4","4","4","4","4","5","4","5","5","2","1","2","2","2","1","1","1","2","1","0","0","0","0","0","0","1","0","1","1","0","1","0","0","4","2","2","2","2","","4","2","1","1","2","652595581352411136","王","446","","","","nonmatch","","","","","","","","","","","","","","key","j","8.33543689320377","640","396","j","true","nonmatch","img/circle.png","五边","圆形","ALT1_1","prac_ALT1_1","","","","","","","","","","","",""
"null","<span style='color:GreenYellow; font-size: 70px;'>正确! </span>","null","html-keyboard-response","56","354971","0.0-7.0-0.0-1.0-0.0-1.23","4","4","4","4","4","4","3","2","4","4","5","4","4","4","4","4","5","4","5","5","2","1","2","2","2","1","1","1","2","1","0","0","0","0","0","0","1","0","1","1","0","1","0","0","4","2","2","2","2","","4","2","1","1","2","652595581352411136","王","446","","","","","","","","","","","","","","","","","","","","","","","","","","","","","","feedback_test","","","","","","","","","","","",""
"788","","j","psychophysics","57","356762","0.0-7.0-0.0-1.0-0.0-0.24","4","4","4","4","4","4","3","2","4","4","5","4","4","4","4","4","5","4","5","5","2","1","2","2","2","1","1","1","2","1","0","0","0","0","0","0","1","0","1","1","0","1","0","0","4","2","2","2","2","","4","2","1","1","2","652595581352411136","王","446","","","","nonmatch","","","","","","","","","","","","","","key","j","8.373364485981146","640","396","j","true","nonmatch","img/square.png","五边","方形","ALT1_1","prac_ALT1_1","","","","","","","","","","","",""
"null","<span style='color:GreenYellow; font-size: 70px;'>正确! </span>","null","html-keyboard-response","58","357263","0.0-7.0-0.0-1.0-0.0-1.24","4","4","4","4","4","4","3","2","4","4","5","4","4","4","4","4","5","4","5","5","2","1","2","2","2","1","1","1","2","1","0","0","0","0","0","0","1","0","1","1","0","1","0","0","4","2","2","2","2","","4","2","1","1","2","652595581352411136","王","446","","","","","","","","","","","","","","","","","","","","","","","","","","","","","","feedback_test","","","","","","","","","","","",""
"857","","f","psychophysics","59","359122","0.0-7.0-0.0-1.0-0.0-0.25","4","4","4","4","4","4","3","2","4","4","5","4","4","4","4","4","5","4","5","5","2","1","2","2","2","1","1","1","2","1","0","0","0","0","0","0","1","0","1","1","0","1","0","0","4","2","2","2","2","","4","2","1","1","2","652595581352411136","王","446","","","","match","","","","","","","","","","","","","","key","f","8.33243243243238","640","396","f","true","match","img/square.png","方形","方形","ALT1_1","prac_ALT1_1","","","","","","","","","","","",""
"null","<span style='color:GreenYellow; font-size: 70px;'>正确! </span>","null","html-keyboard-response","60","359623","0.0-7.0-0.0-1.0-0.0-1.25","4","4","4","4","4","4","3","2","4","4","5","4","4","4","4","4","5","4","5","5","2","1","2","2","2","1","1","1","2","1","0","0","0","0","0","0","1","0","1","1","0","1","0","0","4","2","2","2","2","","4","2","1","1","2","652595581352411136","王","446","","","","","","","","","","","","","","","","","","","","","","","","","","","","","","feedback_test","","","","","","","","","","","",""
"624","","f","psychophysics","61","361247","0.0-7.0-0.0-1.0-0.0-0.26","4","4","4","4","4","4","3","2","4","4","5","4","4","4","4","4","5","4","5","5","2","1","2","2","2","1","1","1","2","1","0","0","0","0","0","0","1","0","1","1","0","1","0","0","4","2","2","2","2","","4","2","1","1","2","652595581352411136","王","446","","","","match","","","","","","","","","","","","","","key","f","8.377835051546631","640","396","f","true","match","img/circle.png","圆形","圆形","ALT1_1","prac_ALT1_1","","","","","","","","","","","",""
"null","<span style='color:GreenYellow; font-size: 70px;'>正确! </span>","null","html-keyboard-response","62","361748","0.0-7.0-0.0-1.0-0.0-1.26","4","4","4","4","4","4","3","2","4","4","5","4","4","4","4","4","5","4","5","5","2","1","2","2","2","1","1","1","2","1","0","0","0","0","0","0","1","0","1","1","0","1","0","0","4","2","2","2","2","","4","2","1","1","2","652595581352411136","王","446","","","","","","","","","","","","","","","","","","","","","","","","","","","","","","feedback_test","","","","","","","","","","","",""
"732","","j","psychophysics","63","363481","0.0-7.0-0.0-1.0-0.0-0.27","4","4","4","4","4","4","3","2","4","4","5","4","4","4","4","4","5","4","5","5","2","1","2","2","2","1","1","1","2","1","0","0","0","0","0","0","1","0","1","1","0","1","0","0","4","2","2","2","2","","4","2","1","1","2","652595581352411136","王","446","","","","nonmatch","","","","","","","","","","","","","","key","j","8.333816425120942","640","396","j","true","nonmatch","img/trapezoid.png","圆形","梯形","ALT1_1","prac_ALT1_1","","","","","","","","","","","",""
"null","<span style='color:GreenYellow; font-size: 70px;'>正确! </span>","null","html-keyboard-response","64","363981","0.0-7.0-0.0-1.0-0.0-1.27","4","4","4","4","4","4","3","2","4","4","5","4","4","4","4","4","5","4","5","5","2","1","2","2","2","1","1","1","2","1","0","0","0","0","0","0","1","0","1","1","0","1","0","0","4","2","2","2","2","","4","2","1","1","2","652595581352411136","王","446","","","","","","","","","","","","","","","","","","","","","","","","","","","","","","feedback_test","","","","","","","","","","","",""
"698","","j","psychophysics","65","365680","0.0-7.0-0.0-1.0-0.0-0.28","4","4","4","4","4","4","3","2","4","4","5","4","4","4","4","4","5","4","5","5","2","1","2","2","2","1","1","1","2","1","0","0","0","0","0","0","1","0","1","1","0","1","0","0","4","2","2","2","2","","4","2","1","1","2","652595581352411136","王","446","","","","nonmatch","","","","","","","","","","","","","","key","j","8.32906403940881","640","396","j","true","nonmatch","img/square.png","圆形","方形","ALT1_1","prac_ALT1_1","","","","","","","","","","","",""
"null","<span style='color:GreenYellow; font-size: 70px;'>正确! </span>","null","html-keyboard-response","66","366181","0.0-7.0-0.0-1.0-0.0-1.28","4","4","4","4","4","4","3","2","4","4","5","4","4","4","4","4","5","4","5","5","2","1","2","2","2","1","1","1","2","1","0","0","0","0","0","0","1","0","1","1","0","1","0","0","4","2","2","2","2","","4","2","1","1","2","652595581352411136","王","446","","","","","","","","","","","","","","","","","","","","","","","","","","","","","","feedback_test","","","","","","","","","","","",""
"901","","f","psychophysics","67","368084","0.0-7.0-0.0-1.0-0.0-0.29","4","4","4","4","4","4","3","2","4","4","5","4","4","4","4","4","5","4","5","5","2","1","2","2","2","1","1","1","2","1","0","0","0","0","0","0","1","0","1","1","0","1","0","0","4","2","2","2","2","","4","2","1","1","2","652595581352411136","王","446","","","","match","","","","","","","","","","","","","","key","f","8.371365638766468","640","396","j","false","nonmatch","img/trapezoid.png","五边","梯形","ALT1_1","prac_ALT1_1","","","","","","","","","","","",""
"null","<span style='color:red; font-size: 70px;'>错误! </span>","null","html-keyboard-response","68","368586","0.0-7.0-0.0-1.0-0.0-1.29","4","4","4","4","4","4","3","2","4","4","5","4","4","4","4","4","5","4","5","5","2","1","2","2","2","1","1","1","2","1","0","0","0","0","0","0","1","0","1","1","0","1","0","0","4","2","2","2","2","","4","2","1","1","2","652595581352411136","王","446","","","","","","","","","","","","","","","","","","","","","","","","","","","","","","feedback_test","","","","","","","","","","","",""
"934","","f","psychophysics","69","370520","0.0-7.0-0.0-1.0-0.0-0.30","4","4","4","4","4","4","3","2","4","4","5","4","4","4","4","4","5","4","5","5","2","1","2","2","2","1","1","1","2","1","0","0","0","0","0","0","1","0","1","1","0","1","0","0","4","2","2","2","2","","4","2","1","1","2","652595581352411136","王","446","","","","match","","","","","","","","","","","","","","key","f","8.330000000000101","640","396","f","true","match","img/trapezoid.png","梯形","梯形","ALT1_1","prac_ALT1_1","","","","","","","","","","","",""
"null","<span style='color:GreenYellow; font-size: 70px;'>正确! </span>","null","html-keyboard-response","70","371021","0.0-7.0-0.0-1.0-0.0-1.30","4","4","4","4","4","4","3","2","4","4","5","4","4","4","4","4","5","4","5","5","2","1","2","2","2","1","1","1","2","1","0","0","0","0","0","0","1","0","1","1","0","1","0","0","4","2","2","2","2","","4","2","1","1","2","652595581352411136","王","446","","","","","","","","","","","","","","","","","","","","","","","","","","","","","","feedback_test","","","","","","","","","","","",""
"676","","j","psychophysics","71","372699","0.0-7.0-0.0-1.0-0.0-0.31","4","4","4","4","4","4","3","2","4","4","5","4","4","4","4","4","5","4","5","5","2","1","2","2","2","1","1","1","2","1","0","0","0","0","0","0","1","0","1","1","0","1","0","0","4","2","2","2","2","","4","2","1","1","2","652595581352411136","王","446","","","","nonmatch","","","","","","","","","","","","","","key","j","8.333000000000174","640","396","j","true","nonmatch","img/circle.png","方形","圆形","ALT1_1","prac_ALT1_1","","","","","","","","","","","",""
"null","<span style='color:GreenYellow; font-size: 70px;'>正确! </span>","null","html-keyboard-response","72","373200","0.0-7.0-0.0-1.0-0.0-1.31","4","4","4","4","4","4","3","2","4","4","5","4","4","4","4","4","5","4","5","5","2","1","2","2","2","1","1","1","2","1","0","0","0","0","0","0","1","0","1","1","0","1","0","0","4","2","2","2","2","","4","2","1","1","2","652595581352411136","王","446","","","","","","","","","","","","","","","","","","","","","","","","","","","","","","feedback_test","","","","","","","","","","","",""
"1139","","j","psychophysics","73","375341","0.0-7.0-0.0-1.0-0.0-0.32","4","4","4","4","4","4","3","2","4","4","5","4","4","4","4","4","5","4","5","5","2","1","2","2","2","1","1","1","2","1","0","0","0","0","0","0","1","0","1","1","0","1","0","0","4","2","2","2","2","","4","2","1","1","2","652595581352411136","王","446","","","","nonmatch","","","","","","","","","","","","","","key","j","8.335019455253054","640","396","j","true","nonmatch","img/square.png","梯形","方形","ALT1_1","prac_ALT1_1","","","","","","","","","","","",""
"null","<span style='color:GreenYellow; font-size: 70px;'>正确! </span>","null","html-keyboard-response","74","375842","0.0-7.0-0.0-1.0-0.0-1.32","4","4","4","4","4","4","3","2","4","4","5","4","4","4","4","4","5","4","5","5","2","1","2","2","2","1","1","1","2","1","0","0","0","0","0","0","1","0","1","1","0","1","0","0","4","2","2","2","2","","4","2","1","1","2","652595581352411136","王","446","","","","","","","","","","","","","","","","","","","","","","","","","","","","","","feedback_test","","","","","","","","","","","",""
"762","","j","psychophysics","75","377605","0.0-7.0-0.0-1.0-0.0-0.33","4","4","4","4","4","4","3","2","4","4","5","4","4","4","4","4","5","4","5","5","2","1","2","2","2","1","1","1","2","1","0","0","0","0","0","0","1","0","1","1","0","1","0","0","4","2","2","2","2","","4","2","1","1","2","652595581352411136","王","446","","","","nonmatch","","","","","","","","","","","","","","key","j","8.33588516746417","640","396","j","true","nonmatch","img/circle.png","梯形","圆形","ALT1_1","prac_ALT1_1","","","","","","","","","","","",""
"null","<span style='color:GreenYellow; font-size: 70px;'>正确! </span>","null","html-keyboard-response","76","378106","0.0-7.0-0.0-1.0-0.0-1.33","4","4","4","4","4","4","3","2","4","4","5","4","4","4","4","4","5","4","5","5","2","1","2","2","2","1","1","1","2","1","0","0","0","0","0","0","1","0","1","1","0","1","0","0","4","2","2","2","2","","4","2","1","1","2","652595581352411136","王","446","","","","","","","","","","","","","","","","","","","","","","","","","","","","","","feedback_test","","","","","","","","","","","",""
"908","","f","psychophysics","77","380015","0.0-7.0-0.0-1.0-0.0-0.34","4","4","4","4","4","4","3","2","4","4","5","4","4","4","4","4","5","4","5","5","2","1","2","2","2","1","1","1","2","1","0","0","0","0","0","0","1","0","1","1","0","1","0","0","4","2","2","2","2","","4","2","1","1","2","652595581352411136","王","446","","","","match","","","","","","","","","","","","","","key","f","8.333628318584173","640","396","f","true","match","img/pentagon.png","五边","五边","ALT1_1","prac_ALT1_1","","","","","","","","","","","",""
"null","<span style='color:GreenYellow; font-size: 70px;'>正确! </span>","null","html-keyboard-response","78","380516","0.0-7.0-0.0-1.0-0.0-1.34","4","4","4","4","4","4","3","2","4","4","5","4","4","4","4","4","5","4","5","5","2","1","2","2","2","1","1","1","2","1","0","0","0","0","0","0","1","0","1","1","0","1","0","0","4","2","2","2","2","","4","2","1","1","2","652595581352411136","王","446","","","","","","","","","","","","","","","","","","","","","","","","","","","","","","feedback_test","","","","","","","","","","","",""
"902","","j","psychophysics","79","382420","0.0-7.0-0.0-1.0-0.0-0.35","4","4","4","4","4","4","3","2","4","4","5","4","4","4","4","4","5","4","5","5","2","1","2","2","2","1","1","1","2","1","0","0","0","0","0","0","1","0","1","1","0","1","0","0","4","2","2","2","2","","4","2","1","1","2","652595581352411136","王","446","","","","nonmatch","","","","","","","","","","","","","","key","j","8.334210526315841","640","396","j","true","nonmatch","img/trapezoid.png","方形","梯形","ALT1_1","prac_ALT1_1","","","","","","","","","","","",""
"null","<span style='color:GreenYellow; font-size: 70px;'>正确! </span>","null","html-keyboard-response","80","382921","0.0-7.0-0.0-1.0-0.0-1.35","4","4","4","4","4","4","3","2","4","4","5","4","4","4","4","4","5","4","5","5","2","1","2","2","2","1","1","1","2","1","0","0","0","0","0","0","1","0","1","1","0","1","0","0","4","2","2","2","2","","4","2","1","1","2","652595581352411136","王","446","","","","","","","","","","","","","","","","","","","","","","","","","","","","","","feedback_test","","","","","","","","","","","",""
"756","","j","psychophysics","81","384679","0.0-7.0-0.0-1.0-0.0-0.36","4","4","4","4","4","4","3","2","4","4","5","4","4","4","4","4","5","4","5","5","2","1","2","2","2","1","1","1","2","1","0","0","0","0","0","0","1","0","1","1","0","1","0","0","4","2","2","2","2","","4","2","1","1","2","652595581352411136","王","446","","","","nonmatch","","","","","","","","","","","","","","key","j","8.332692307692364","640","396","j","true","nonmatch","img/pentagon.png","圆形","五边","ALT1_1","prac_ALT1_1","","","","","","","","","","","",""
"null","<span style='color:GreenYellow; font-size: 70px;'>正确! </span>","null","html-keyboard-response","82","385179","0.0-7.0-0.0-1.0-0.0-1.36","4","4","4","4","4","4","3","2","4","4","5","4","4","4","4","4","5","4","5","5","2","1","2","2","2","1","1","1","2","1","0","0","0","0","0","0","1","0","1","1","0","1","0","0","4","2","2","2","2","","4","2","1","1","2","652595581352411136","王","446","","","","","","","","","","","","","","","","","","","","","","","","","","","","","","feedback_test","","","","","","","","","","","",""
"941","","f","psychophysics","83","387121","0.0-7.0-0.0-1.0-0.0-0.37","4","4","4","4","4","4","3","2","4","4","5","4","4","4","4","4","5","4","5","5","2","1","2","2","2","1","1","1","2","1","0","0","0","0","0","0","1","0","1","1","0","1","0","0","4","2","2","2","2","","4","2","1","1","2","652595581352411136","王","446","","","","match","","","","","","","","","","","","","","key","f","8.316883116882915","640","396","f","true","match","img/square.png","方形","方形","ALT1_1","prac_ALT1_1","","","","","","","","","","","",""
"null","<span style='color:GreenYellow; font-size: 70px;'>正确! </span>","null","html-keyboard-response","84","387622","0.0-7.0-0.0-1.0-0.0-1.37","4","4","4","4","4","4","3","2","4","4","5","4","4","4","4","4","5","4","5","5","2","1","2","2","2","1","1","1","2","1","0","0","0","0","0","0","1","0","1","1","0","1","0","0","4","2","2","2","2","","4","2","1","1","2","652595581352411136","王","446","","","","","","","","","","","","","","","","","","","","","","","","","","","","","","feedback_test","","","","","","","","","","","",""
"692","","j","psychophysics","85","389315","0.0-7.0-0.0-1.0-0.0-0.38","4","4","4","4","4","4","3","2","4","4","5","4","4","4","4","4","5","4","5","5","2","1","2","2","2","1","1","1","2","1","0","0","0","0","0","0","1","0","1","1","0","1","0","0","4","2","2","2","2","","4","2","1","1","2","652595581352411136","王","446","","","","nonmatch","","","","","","","","","","","","","","key","j","8.334482758620517","640","396","j","true","nonmatch","img/circle.png","五边","圆形","ALT1_1","prac_ALT1_1","","","","","","","","","","","",""
"null","<span style='color:GreenYellow; font-size: 70px;'>正确! </span>","null","html-keyboard-response","86","389816","0.0-7.0-0.0-1.0-0.0-1.38","4","4","4","4","4","4","3","2","4","4","5","4","4","4","4","4","5","4","5","5","2","1","2","2","2","1","1","1","2","1","0","0","0","0","0","0","1","0","1","1","0","1","0","0","4","2","2","2","2","","4","2","1","1","2","652595581352411136","王","446","","","","","","","","","","","","","","","","","","","","","","","","","","","","","","feedback_test","","","","","","","","","","","",""
"765","","f","psychophysics","87","391584","0.0-7.0-0.0-1.0-0.0-0.39","4","4","4","4","4","4","3","2","4","4","5","4","4","4","4","4","5","4","5","5","2","1","2","2","2","1","1","1","2","1","0","0","0","0","0","0","1","0","1","1","0","1","0","0","4","2","2","2","2","","4","2","1","1","2","652595581352411136","王","446","","","","match","","","","","","","","","","","","","","key","f","8.332380952380896","640","396","f","true","match","img/pentagon.png","五边","五边","ALT1_1","prac_ALT1_1","","","","","","","","","","","",""
"null","<span style='color:GreenYellow; font-size: 70px;'>正确! </span>","null","html-keyboard-response","88","392085","0.0-7.0-0.0-1.0-0.0-1.39","4","4","4","4","4","4","3","2","4","4","5","4","4","4","4","4","5","4","5","5","2","1","2","2","2","1","1","1","2","1","0","0","0","0","0","0","1","0","1","1","0","1","0","0","4","2","2","2","2","","4","2","1","1","2","652595581352411136","王","446","","","","","","","","","","","","","","","","","","","","","","","","","","","","","","feedback_test","","","","","","","","","","","",""
"849","","j","psychophysics","89","393935","0.0-7.0-0.0-1.0-0.0-0.40","4","4","4","4","4","4","3","2","4","4","5","4","4","4","4","4","5","4","5","5","2","1","2","2","2","1","1","1","2","1","0","0","0","0","0","0","1","0","1","1","0","1","0","0","4","2","2","2","2","","4","2","1","1","2","652595581352411136","王","446","","","","nonmatch","","","","","","","","","","","","","","key","j","8.327272727272728","640","396","j","true","nonmatch","img/pentagon.png","梯形","五边","ALT1_1","prac_ALT1_1","","","","","","","","","","","",""
"null","<span style='color:GreenYellow; font-size: 70px;'>正确! </span>","null","html-keyboard-response","90","394436","0.0-7.0-0.0-1.0-0.0-1.40","4","4","4","4","4","4","3","2","4","4","5","4","4","4","4","4","5","4","5","5","2","1","2","2","2","1","1","1","2","1","0","0","0","0","0","0","1","0","1","1","0","1","0","0","4","2","2","2","2","","4","2","1","1","2","652595581352411136","王","446","","","","","","","","","","","","","","","","","","","","","","","","","","","","","","feedback_test","","","","","","","","","","","",""
"839","","f","psychophysics","91","396276","0.0-7.0-0.0-1.0-0.0-0.41","4","4","4","4","4","4","3","2","4","4","5","4","4","4","4","4","5","4","5","5","2","1","2","2","2","1","1","1","2","1","0","0","0","0","0","0","1","0","1","1","0","1","0","0","4","2","2","2","2","","4","2","1","1","2","652595581352411136","王","446","","","","match","","","","","","","","","","","","","","key","f","8.335000000000052","640","396","f","true","match","img/square.png","方形","方形","ALT1_1","prac_ALT1_1","","","","","","","","","","","",""
"null","<span style='color:GreenYellow; font-size: 70px;'>正确! </span>","null","html-keyboard-response","92","396777","0.0-7.0-0.0-1.0-0.0-1.41","4","4","4","4","4","4","3","2","4","4","5","4","4","4","4","4","5","4","5","5","2","1","2","2","2","1","1","1","2","1","0","0","0","0","0","0","1","0","1","1","0","1","0","0","4","2","2","2","2","","4","2","1","1","2","652595581352411136","王","446","","","","","","","","","","","","","","","","","","","","","","","","","","","","","","feedback_test","","","","","","","","","","","",""
"748","","f","psychophysics","93","398526","0.0-7.0-0.0-1.0-0.0-0.42","4","4","4","4","4","4","3","2","4","4","5","4","4","4","4","4","5","4","5","5","2","1","2","2","2","1","1","1","2","1","0","0","0","0","0","0","1","0","1","1","0","1","0","0","4","2","2","2","2","","4","2","1","1","2","652595581352411136","王","446","","","","match","","","","","","","","","","","","","","key","f","8.325603864734411","640","396","f","true","match","img/circle.png","圆形","圆形","ALT1_1","prac_ALT1_1","","","","","","","","","","","",""
"null","<span style='color:GreenYellow; font-size: 70px;'>正确! </span>","null","html-keyboard-response","94","399028","0.0-7.0-0.0-1.0-0.0-1.42","4","4","4","4","4","4","3","2","4","4","5","4","4","4","4","4","5","4","5","5","2","1","2","2","2","1","1","1","2","1","0","0","0","0","0","0","1","0","1","1","0","1","0","0","4","2","2","2","2","","4","2","1","1","2","652595581352411136","王","446","","","","","","","","","","","","","","","","","","","","","","","","","","","","","","feedback_test","","","","","","","","","","","",""
"1035","","f","psychophysics","95","401063","0.0-7.0-0.0-1.0-0.0-0.43","4","4","4","4","4","4","3","2","4","4","5","4","4","4","4","4","5","4","5","5","2","1","2","2","2","1","1","1","2","1","0","0","0","0","0","0","1","0","1","1","0","1","0","0","4","2","2","2","2","","4","2","1","1","2","652595581352411136","王","446","","","","match","","","","","","","","","","","","","","key","f","8.33456790123452","640","396","f","true","match","img/pentagon.png","五边","五边","ALT1_1","prac_ALT1_1","","","","","","","","","","","",""
"null","<span style='color:GreenYellow; font-size: 70px;'>正确! </span>","null","html-keyboard-response","96","401564","0.0-7.0-0.0-1.0-0.0-1.43","4","4","4","4","4","4","3","2","4","4","5","4","4","4","4","4","5","4","5","5","2","1","2","2","2","1","1","1","2","1","0","0","0","0","0","0","1","0","1","1","0","1","0","0","4","2","2","2","2","","4","2","1","1","2","652595581352411136","王","446","","","","","","","","","","","","","","","","","","","","","","","","","","","","","","feedback_test","","","","","","","","","","","",""
"617","","f","psychophysics","97","403181","0.0-7.0-0.0-1.0-0.0-0.44","4","4","4","4","4","4","3","2","4","4","5","4","4","4","4","4","5","4","5","5","2","1","2","2","2","1","1","1","2","1","0","0","0","0","0","0","1","0","1","1","0","1","0","0","4","2","2","2","2","","4","2","1","1","2","652595581352411136","王","446","","","","match","","","","","","","","","","","","","","key","f","8.335751295336728","640","396","f","true","match","img/trapezoid.png","梯形","梯形","ALT1_1","prac_ALT1_1","","","","","","","","","","","",""
"null","<span style='color:GreenYellow; font-size: 70px;'>正确! </span>","null","html-keyboard-response","98","403683","0.0-7.0-0.0-1.0-0.0-1.44","4","4","4","4","4","4","3","2","4","4","5","4","4","4","4","4","5","4","5","5","2","1","2","2","2","1","1","1","2","1","0","0","0","0","0","0","1","0","1","1","0","1","0","0","4","2","2","2","2","","4","2","1","1","2","652595581352411136","王","446","","","","","","","","","","","","","","","","","","","","","","","","","","","","","","feedback_test","","","","","","","","","","","",""
"869","","j","psychophysics","99","405553","0.0-7.0-0.0-1.0-0.0-0.45","4","4","4","4","4","4","3","2","4","4","5","4","4","4","4","4","5","4","5","5","2","1","2","2","2","1","1","1","2","1","0","0","0","0","0","0","1","0","1","1","0","1","0","0","4","2","2","2","2","","4","2","1","1","2","652595581352411136","王","446","","","","nonmatch","","","","","","","","","","","","","","key","j","8.333333333333334","640","396","j","true","nonmatch","img/pentagon.png","方形","五边","ALT1_1","prac_ALT1_1","","","","","","","","","","","",""
"null","<span style='color:GreenYellow; font-size: 70px;'>正确! </span>","null","html-keyboard-response","100","406054","0.0-7.0-0.0-1.0-0.0-1.45","4","4","4","4","4","4","3","2","4","4","5","4","4","4","4","4","5","4","5","5","2","1","2","2","2","1","1","1","2","1","0","0","0","0","0","0","1","0","1","1","0","1","0","0","4","2","2","2","2","","4","2","1","1","2","652595581352411136","王","446","","","","","","","","","","","","","","","","","","","","","","","","","","","","","","feedback_test","","","","","","","","","","","",""
"null","","null","psychophysics","101","408256","0.0-7.0-0.0-1.0-0.0-0.46","4","4","4","4","4","4","3","2","4","4","5","4","4","4","4","4","5","4","5","5","2","1","2","2","2","1","1","1","2","1","0","0","0","0","0","0","1","0","1","1","0","1","0","0","4","2","2","2","2","","4","2","1","1","2","652595581352411136","王","446","","","","null","","","","","","","","","","","","","","key","null","8.332954545454633","640","396","f","false","match","img/trapezoid.png","梯形","梯形","ALT1_1","prac_ALT1_1","","","","","","","","","","","",""
"null","<span class='add_' style='color:yellow; font-size: 70px;'> 太慢! </span>","null","html-keyboard-response","102","408757","0.0-7.0-0.0-1.0-0.0-1.46","4","4","4","4","4","4","3","2","4","4","5","4","4","4","4","4","5","4","5","5","2","1","2","2","2","1","1","1","2","1","0","0","0","0","0","0","1","0","1","1","0","1","0","0","4","2","2","2","2","","4","2","1","1","2","652595581352411136","王","446","","","","","","","","","","","","","","","","","","","","","","","","","","","","","","feedback_test","","","","","","","","","","","",""
"880","","f","psychophysics","103","410641","0.0-7.0-0.0-1.0-0.0-0.47","4","4","4","4","4","4","3","2","4","4","5","4","4","4","4","4","5","4","5","5","2","1","2","2","2","1","1","1","2","1","0","0","0","0","0","0","1","0","1","1","0","1","0","0","4","2","2","2","2","","4","2","1","1","2","652595581352411136","王","446","","","","match","","","","","","","","","","","","","","key","f","8.333185840707912","640","396","f","true","match","img/circle.png","圆形","圆形","ALT1_1","prac_ALT1_1","","","","","","","","","","","",""
"null","<span style='color:GreenYellow; font-size: 70px;'>正确! </span>","null","html-keyboard-response","104","411143","0.0-7.0-0.0-1.0-0.0-1.47","4","4","4","4","4","4","3","2","4","4","5","4","4","4","4","4","5","4","5","5","2","1","2","2","2","1","1","1","2","1","0","0","0","0","0","0","1","0","1","1","0","1","0","0","4","2","2","2","2","","4","2","1","1","2","652595581352411136","王","446","","","","","","","","","","","","","","","","","","","","","","","","","","","","","","feedback_test","","","","","","","","","","","",""
"20855","<style>.context{color:white; font-size: 35px; line-height:40px}</style>                            <div><p class='context'>您正确回答了90% 的试次。</p><p class='context'>您的平均反应时为872毫秒。</p><p class='context'>恭喜您完成练习。按空格键进入正式实验。</p><p class='footer' style='font-size: 35px; line-height:40px;'>请在进入正式实验之前将您的<span style='color: lightgreen;'>食指</span>放在电脑键盘的相应键位上进行按键。</p>"," ","html-keyboard-response","105","432000","0.0-7.0-0.0-2.0","4","4","4","4","4","4","3","2","4","4","5","4","4","4","4","4","5","4","5","5","2","1","2","2","2","1","1","1","2","1","0","0","0","0","0","0","1","0","1","1","0","1","0","0","4","2","2","2","2","","4","2","1","1","2","652595581352411136","王","446","","","","","","","","","","","","","","","","","","","","","","","","","","","","","","","","","","","","","","","","","",""
"3457","
    <p style='color: white; font-size: 22px'>请您将手指放在按键上，准备进入正式的匹配任务。</p>
    <p> <div style = ""color: green""><按空格键进入下一阶段的匹配任务></div></p>
    "," ","html-keyboard-response","106","435457","0.0-7.0-0.0-3.0","4","4","4","4","4","4","3","2","4","4","5","4","4","4","4","4","5","4","5","5","2","1","2","2","2","1","1","1","2","1","0","0","0","0","0","0","1","0","1","1","0","1","0","0","4","2","2","2","2","","4","2","1","1","2","652595581352411136","王","446","","","","","","","","","","","","","","","","","","","","","","","","","","","","","","","","","","","","","","","","","",""
"902","","f","psychophysics","107","437360","0.0-7.0-0.0-4.0-0.0-0.0","4","4","4","4","4","4","3","2","4","4","5","4","4","4","4","4","5","4","5","5","2","1","2","2","2","1","1","1","2","1","0","0","0","0","0","0","1","0","1","1","0","1","0","0","4","2","2","2","2","","4","2","1","1","2","652595581352411136","王","446","","","","match","","","","","","","","","","","","","","key","f","8.332888888888734","640","396","f","true","match","img/trapezoid.png","梯形","梯形","ALT1","formal_ALT1_1","","","","","","","","","","","",""
"null","<span style='color:GreenYellow; font-size: 70px;'>正确! </span>","null","html-keyboard-response","108","437861","0.0-7.0-0.0-4.0-0.0-1.0","4","4","4","4","4","4","3","2","4","4","5","4","4","4","4","4","5","4","5","5","2","1","2","2","2","1","1","1","2","1","0","0","0","0","0","0","1","0","1","1","0","1","0","0","4","2","2","2","2","","4","2","1","1","2","652595581352411136","王","446","","","","","","","","","","","","","","","","","","","","","","","","","","","","","","feedback_test","","","","","","","","","","","",""
"335","","f","psychophysics","109","439198","0.0-7.0-0.0-4.0-0.0-0.1","4","4","4","4","4","4","3","2","4","4","5","4","4","4","4","4","5","4","5","5","2","1","2","2","2","1","1","1","2","1","0","0","0","0","0","0","1","0","1","1","0","1","0","0","4","2","2","2","2","","4","2","1","1","2","652595581352411136","王","446","","","","match","","","","","","","","","","","","","","key","f","8.333750000000146","640","396","j","false","nonmatch","img/circle.png","方形","圆形","ALT1","formal_ALT1_1","","","","","","","","","","","",""
"null","<span style='color:red; font-size: 70px;'>错误! </span>","null","html-keyboard-response","110","439699","0.0-7.0-0.0-4.0-0.0-1.1","4","4","4","4","4","4","3","2","4","4","5","4","4","4","4","4","5","4","5","5","2","1","2","2","2","1","1","1","2","1","0","0","0","0","0","0","1","0","1","1","0","1","0","0","4","2","2","2","2","","4","2","1","1","2","652595581352411136","王","446","","","","","","","","","","","","","","","","","","","","","","","","","","","","","","feedback_test","","","","","","","","","","","",""
"855","","f","psychophysics","111","441554","0.0-7.0-0.0-4.0-0.0-0.2","4","4","4","4","4","4","3","2","4","4","5","4","4","4","4","4","5","4","5","5","2","1","2","2","2","1","1","1","2","1","0","0","0","0","0","0","1","0","1","1","0","1","0","0","4","2","2","2","2","","4","2","1","1","2","652595581352411136","王","446","","","","match","","","","","","","","","","","","","","key","f","8.32909090909075","640","396","f","true","match","img/square.png","方形","方形","ALT1","formal_ALT1_1","","","","","","","","","","","",""
"null","<span style='color:GreenYellow; font-size: 70px;'>正确! </span>","null","html-keyboard-response","112","442055","0.0-7.0-0.0-4.0-0.0-1.2","4","4","4","4","4","4","3","2","4","4","5","4","4","4","4","4","5","4","5","5","2","1","2","2","2","1","1","1","2","1","0","0","0","0","0","0","1","0","1","1","0","1","0","0","4","2","2","2","2","","4","2","1","1","2","652595581352411136","王","446","","","","","","","","","","","","","","","","","","","","","","","","","","","","","","feedback_test","","","","","","","","","","","",""
"686","","f","psychophysics","113","443747","0.0-7.0-0.0-4.0-0.0-0.3","4","4","4","4","4","4","3","2","4","4","5","4","4","4","4","4","5","4","5","5","2","1","2","2","2","1","1","1","2","1","0","0","0","0","0","0","1","0","1","1","0","1","0","0","4","2","2","2","2","","4","2","1","1","2","652595581352411136","王","446","","","","match","","","","","","","","","","","","","","key","f","8.33267326732679","640","396","f","true","match","img/square.png","方形","方形","ALT1","formal_ALT1_1","","","","","","","","","","","",""
"null","<span style='color:GreenYellow; font-size: 70px;'>正确! </span>","null","html-keyboard-response","114","444248","0.0-7.0-0.0-4.0-0.0-1.3","4","4","4","4","4","4","3","2","4","4","5","4","4","4","4","4","5","4","5","5","2","1","2","2","2","1","1","1","2","1","0","0","0","0","0","0","1","0","1","1","0","1","0","0","4","2","2","2","2","","4","2","1","1","2","652595581352411136","王","446","","","","","","","","","","","","","","","","","","","","","","","","","","","","","","feedback_test","","","","","","","","","","","",""
"757","","f","psychophysics","115","446007","0.0-7.0-0.0-4.0-0.0-0.4","4","4","4","4","4","4","3","2","4","4","5","4","4","4","4","4","5","4","5","5","2","1","2","2","2","1","1","1","2","1","0","0","0","0","0","0","1","0","1","1","0","1","0","0","4","2","2","2","2","","4","2","1","1","2","652595581352411136","王","446","","","","match","","","","","","","","","","","","","","key","f","8.330622009569266","640","396","f","true","match","img/circle.png","圆形","圆形","ALT1","formal_ALT1_1","","","","","","","","","","","",""
"null","<span style='color:GreenYellow; font-size: 70px;'>正确! </span>","null","html-keyboard-response","116","446508","0.0-7.0-0.0-4.0-0.0-1.4","4","4","4","4","4","4","3","2","4","4","5","4","4","4","4","4","5","4","5","5","2","1","2","2","2","1","1","1","2","1","0","0","0","0","0","0","1","0","1","1","0","1","0","0","4","2","2","2","2","","4","2","1","1","2","652595581352411136","王","446","","","","","","","","","","","","","","","","","","","","","","","","","","","","","","feedback_test","","","","","","","","","","","",""
"1116","","f","psychophysics","117","448625","0.0-7.0-0.0-4.0-0.0-0.5","4","4","4","4","4","4","3","2","4","4","5","4","4","4","4","4","5","4","5","5","2","1","2","2","2","1","1","1","2","1","0","0","0","0","0","0","1","0","1","1","0","1","0","0","4","2","2","2","2","","4","2","1","1","2","652595581352411136","王","446","","","","match","","","","","","","","","","","","","","key","f","8.334661354581673","640","396","j","false","nonmatch","img/trapezoid.png","五边","梯形","ALT1","formal_ALT1_1","","","","","","","","","","","",""
"null","<span style='color:red; font-size: 70px;'>错误! </span>","null","html-keyboard-response","118","449126","0.0-7.0-0.0-4.0-0.0-1.5","4","4","4","4","4","4","3","2","4","4","5","4","4","4","4","4","5","4","5","5","2","1","2","2","2","1","1","1","2","1","0","0","0","0","0","0","1","0","1","1","0","1","0","0","4","2","2","2","2","","4","2","1","1","2","652595581352411136","王","446","","","","","","","","","","","","","","","","","","","","","","","","","","","","","","feedback_test","","","","","","","","","","","",""
"1056","","f","psychophysics","119","451183","0.0-7.0-0.0-4.0-0.0-0.6","4","4","4","4","4","4","3","2","4","4","5","4","4","4","4","4","5","4","5","5","2","1","2","2","2","1","1","1","2","1","0","0","0","0","0","0","1","0","1","1","0","1","0","0","4","2","2","2","2","","4","2","1","1","2","652595581352411136","王","446","","","","match","","","","","","","","","","","","","","key","f","8.327755102040769","640","396","f","true","match","img/pentagon.png","五边","五边","ALT1","formal_ALT1_1","","","","","","","","","","","",""
"null","<span style='color:GreenYellow; font-size: 70px;'>正确! </span>","null","html-keyboard-response","120","451685","0.0-7.0-0.0-4.0-0.0-1.6","4","4","4","4","4","4","3","2","4","4","5","4","4","4","4","4","5","4","5","5","2","1","2","2","2","1","1","1","2","1","0","0","0","0","0","0","1","0","1","1","0","1","0","0","4","2","2","2","2","","4","2","1","1","2","652595581352411136","王","446","","","","","","","","","","","","","","","","","","","","","","","","","","","","","","feedback_test","","","","","","","","","","","",""
"870","","j","psychophysics","121","453556","0.0-7.0-0.0-4.0-0.0-0.7","4","4","4","4","4","4","3","2","4","4","5","4","4","4","4","4","5","4","5","5","2","1","2","2","2","1","1","1","2","1","0","0","0","0","0","0","1","0","1","1","0","1","0","0","4","2","2","2","2","","4","2","1","1","2","652595581352411136","王","446","","","","nonmatch","","","","","","","","","","","","","","key","j","8.333928571428519","640","396","j","true","nonmatch","img/pentagon.png","圆形","五边","ALT1","formal_ALT1_1","","","","","","","","","","","",""
"null","<span style='color:GreenYellow; font-size: 70px;'>正确! </span>","null","html-keyboard-response","122","454056","0.0-7.0-0.0-4.0-0.0-1.7","4","4","4","4","4","4","3","2","4","4","5","4","4","4","4","4","5","4","5","5","2","1","2","2","2","1","1","1","2","1","0","0","0","0","0","0","1","0","1","1","0","1","0","0","4","2","2","2","2","","4","2","1","1","2","652595581352411136","王","446","","","","","","","","","","","","","","","","","","","","","","","","","","","","","","feedback_test","","","","","","","","","","","",""
"669","","f","psychophysics","123","455730","0.0-7.0-0.0-4.0-0.0-0.8","4","4","4","4","4","4","3","2","4","4","5","4","4","4","4","4","5","4","5","5","2","1","2","2","2","1","1","1","2","1","0","0","0","0","0","0","1","0","1","1","0","1","0","0","4","2","2","2","2","","4","2","1","1","2","652595581352411136","王","446","","","","match","","","","","","","","","","","","","","key","f","8.32","640","396","f","true","match","img/trapezoid.png","梯形","梯形","ALT1","formal_ALT1_1","","","","","","","","","","","",""
"null","<span style='color:GreenYellow; font-size: 70px;'>正确! </span>","null","html-keyboard-response","124","456232","0.0-7.0-0.0-4.0-0.0-1.8","4","4","4","4","4","4","3","2","4","4","5","4","4","4","4","4","5","4","5","5","2","1","2","2","2","1","1","1","2","1","0","0","0","0","0","0","1","0","1","1","0","1","0","0","4","2","2","2","2","","4","2","1","1","2","652595581352411136","王","446","","","","","","","","","","","","","","","","","","","","","","","","","","","","","","feedback_test","","","","","","","","","","","",""
"555","","f","psychophysics","125","457788","0.0-7.0-0.0-4.0-0.0-0.9","4","4","4","4","4","4","3","2","4","4","5","4","4","4","4","4","5","4","5","5","2","1","2","2","2","1","1","1","2","1","0","0","0","0","0","0","1","0","1","1","0","1","0","0","4","2","2","2","2","","4","2","1","1","2","652595581352411136","王","446","","","","match","","","","","","","","","","","","","","key","f","8.335135135135134","640","396","j","false","nonmatch","img/square.png","圆形","方形","ALT1","formal_ALT1_1","","","","","","","","","","","",""
"null","<span style='color:red; font-size: 70px;'>错误! </span>","null","html-keyboard-response","126","458288","0.0-7.0-0.0-4.0-0.0-1.9","4","4","4","4","4","4","3","2","4","4","5","4","4","4","4","4","5","4","5","5","2","1","2","2","2","1","1","1","2","1","0","0","0","0","0","0","1","0","1","1","0","1","0","0","4","2","2","2","2","","4","2","1","1","2","652595581352411136","王","446","","","","","","","","","","","","","","","","","","","","","","","","","","","","","","feedback_test","","","","","","","","","","","",""
"1024","","j","psychophysics","127","460314","0.0-7.0-0.0-4.0-0.0-0.10","4","4","4","4","4","4","3","2","4","4","5","4","4","4","4","4","5","4","5","5","2","1","2","2","2","1","1","1","2","1","0","0","0","0","0","0","1","0","1","1","0","1","0","0","4","2","2","2","2","","4","2","1","1","2","652595581352411136","王","446","","","","nonmatch","","","","","","","","","","","","","","key","j","8.333195020746839","640","396","j","true","nonmatch","img/square.png","梯形","方形","ALT1","formal_ALT1_1","","","","","","","","","","","",""
"null","<span style='color:GreenYellow; font-size: 70px;'>正确! </span>","null","html-keyboard-response","128","460815","0.0-7.0-0.0-4.0-0.0-1.10","4","4","4","4","4","4","3","2","4","4","5","4","4","4","4","4","5","4","5","5","2","1","2","2","2","1","1","1","2","1","0","0","0","0","0","0","1","0","1","1","0","1","0","0","4","2","2","2","2","","4","2","1","1","2","652595581352411136","王","446","","","","","","","","","","","","","","","","","","","","","","","","","","","","","","feedback_test","","","","","","","","","","","",""
"809","","j","psychophysics","129","462625","0.0-7.0-0.0-4.0-0.0-0.11","4","4","4","4","4","4","3","2","4","4","5","4","4","4","4","4","5","4","5","5","2","1","2","2","2","1","1","1","2","1","0","0","0","0","0","0","1","0","1","1","0","1","0","0","4","2","2","2","2","","4","2","1","1","2","652595581352411136","王","446","","","","nonmatch","","","","","","","","","","","","","","key","j","8.333953488372039","640","396","j","true","nonmatch","img/trapezoid.png","圆形","梯形","ALT1","formal_ALT1_1","","","","","","","","","","","",""
"null","<span style='color:GreenYellow; font-size: 70px;'>正确! </span>","null","html-keyboard-response","130","463126","0.0-7.0-0.0-4.0-0.0-1.11","4","4","4","4","4","4","3","2","4","4","5","4","4","4","4","4","5","4","5","5","2","1","2","2","2","1","1","1","2","1","0","0","0","0","0","0","1","0","1","1","0","1","0","0","4","2","2","2","2","","4","2","1","1","2","652595581352411136","王","446","","","","","","","","","","","","","","","","","","","","","","","","","","","","","","feedback_test","","","","","","","","","","","",""
"838","","f","psychophysics","131","464966","0.0-7.0-0.0-4.0-0.0-0.12","4","4","4","4","4","4","3","2","4","4","5","4","4","4","4","4","5","4","5","5","2","1","2","2","2","1","1","1","2","1","0","0","0","0","0","0","1","0","1","1","0","1","0","0","4","2","2","2","2","","4","2","1","1","2","652595581352411136","王","446","","","","match","","","","","","","","","","","","","","key","f","8.334545454545614","640","396","f","true","match","img/trapezoid.png","梯形","梯形","ALT1","formal_ALT1_1","","","","","","","","","","","",""
"null","<span style='color:GreenYellow; font-size: 70px;'>正确! </span>","null","html-keyboard-response","132","465467","0.0-7.0-0.0-4.0-0.0-1.12","4","4","4","4","4","4","3","2","4","4","5","4","4","4","4","4","5","4","5","5","2","1","2","2","2","1","1","1","2","1","0","0","0","0","0","0","1","0","1","1","0","1","0","0","4","2","2","2","2","","4","2","1","1","2","652595581352411136","王","446","","","","","","","","","","","","","","","","","","","","","","","","","","","","","","feedback_test","","","","","","","","","","","",""
"678","","j","psychophysics","133","467147","0.0-7.0-0.0-4.0-0.0-0.13","4","4","4","4","4","4","3","2","4","4","5","4","4","4","4","4","5","4","5","5","2","1","2","2","2","1","1","1","2","1","0","0","0","0","0","0","1","0","1","1","0","1","0","0","4","2","2","2","2","","4","2","1","1","2","652595581352411136","王","446","","","","nonmatch","","","","","","","","","","","","","","key","j","8.335","640","396","j","true","nonmatch","img/square.png","五边","方形","ALT1","formal_ALT1_1","","","","","","","","","","","",""
"null","<span style='color:GreenYellow; font-size: 70px;'>正确! </span>","null","html-keyboard-response","134","467648","0.0-7.0-0.0-4.0-0.0-1.13","4","4","4","4","4","4","3","2","4","4","5","4","4","4","4","4","5","4","5","5","2","1","2","2","2","1","1","1","2","1","0","0","0","0","0","0","1","0","1","1","0","1","0","0","4","2","2","2","2","","4","2","1","1","2","652595581352411136","王","446","","","","","","","","","","","","","","","","","","","","","","","","","","","","","","feedback_test","","","","","","","","","","","",""
"742","","j","psychophysics","135","469391","0.0-7.0-0.0-4.0-0.0-0.14","4","4","4","4","4","4","3","2","4","4","5","4","4","4","4","4","5","4","5","5","2","1","2","2","2","1","1","1","2","1","0","0","0","0","0","0","1","0","1","1","0","1","0","0","4","2","2","2","2","","4","2","1","1","2","652595581352411136","王","446","","","","nonmatch","","","","","","","","","","","","","","key","j","8.325242718446601","640","396","j","true","nonmatch","img/circle.png","五边","圆形","ALT1","formal_ALT1_1","","","","","","","","","","","",""
"null","<span style='color:GreenYellow; font-size: 70px;'>正确! </span>","null","html-keyboard-response","136","469892","0.0-7.0-0.0-4.0-0.0-1.14","4","4","4","4","4","4","3","2","4","4","5","4","4","4","4","4","5","4","5","5","2","1","2","2","2","1","1","1","2","1","0","0","0","0","0","0","1","0","1","1","0","1","0","0","4","2","2","2","2","","4","2","1","1","2","652595581352411136","王","446","","","","","","","","","","","","","","","","","","","","","","","","","","","","","","feedback_test","","","","","","","","","","","",""
"723","","f","psychophysics","137","471616","0.0-7.0-0.0-4.0-0.0-0.15","4","4","4","4","4","4","3","2","4","4","5","4","4","4","4","4","5","4","5","5","2","1","2","2","2","1","1","1","2","1","0","0","0","0","0","0","1","0","1","1","0","1","0","0","4","2","2","2","2","","4","2","1","1","2","652595581352411136","王","446","","","","match","","","","","","","","","","","","","","key","f","8.335609756097504","640","396","f","true","match","img/pentagon.png","五边","五边","ALT1","formal_ALT1_1","","","","","","","","","","","",""
"null","<span style='color:GreenYellow; font-size: 70px;'>正确! </span>","null","html-keyboard-response","138","472117","0.0-7.0-0.0-4.0-0.0-1.15","4","4","4","4","4","4","3","2","4","4","5","4","4","4","4","4","5","4","5","5","2","1","2","2","2","1","1","1","2","1","0","0","0","0","0","0","1","0","1","1","0","1","0","0","4","2","2","2","2","","4","2","1","1","2","652595581352411136","王","446","","","","","","","","","","","","","","","","","","","","","","","","","","","","","","feedback_test","","","","","","","","","","","",""
"716","","j","psychophysics","139","473835","0.0-7.0-0.0-4.0-0.0-0.16","4","4","4","4","4","4","3","2","4","4","5","4","4","4","4","4","5","4","5","5","2","1","2","2","2","1","1","1","2","1","0","0","0","0","0","0","1","0","1","1","0","1","0","0","4","2","2","2","2","","4","2","1","1","2","652595581352411136","王","446","","","","nonmatch","","","","","","","","","","","","","","key","j","8.375490196078603","640","396","j","true","nonmatch","img/trapezoid.png","方形","梯形","ALT1","formal_ALT1_1","","","","","","","","","","","",""
"null","<span style='color:GreenYellow; font-size: 70px;'>正确! </span>","null","html-keyboard-response","140","474337","0.0-7.0-0.0-4.0-0.0-1.16","4","4","4","4","4","4","3","2","4","4","5","4","4","4","4","4","5","4","5","5","2","1","2","2","2","1","1","1","2","1","0","0","0","0","0","0","1","0","1","1","0","1","0","0","4","2","2","2","2","","4","2","1","1","2","652595581352411136","王","446","","","","","","","","","","","","","","","","","","","","","","","","","","","","","","feedback_test","","","","","","","","","","","",""
"988","","f","psychophysics","141","476325","0.0-7.0-0.0-4.0-0.0-0.17","4","4","4","4","4","4","3","2","4","4","5","4","4","4","4","4","5","4","5","5","2","1","2","2","2","1","1","1","2","1","0","0","0","0","0","0","1","0","1","1","0","1","0","0","4","2","2","2","2","","4","2","1","1","2","652595581352411136","王","446","","","","match","","","","","","","","","","","","","","key","f","8.335593220339032","640","396","f","true","match","img/square.png","方形","方形","ALT1","formal_ALT1_1","","","","","","","","","","","",""
"null","<span style='color:GreenYellow; font-size: 70px;'>正确! </span>","null","html-keyboard-response","142","476826","0.0-7.0-0.0-4.0-0.0-1.17","4","4","4","4","4","4","3","2","4","4","5","4","4","4","4","4","5","4","5","5","2","1","2","2","2","1","1","1","2","1","0","0","0","0","0","0","1","0","1","1","0","1","0","0","4","2","2","2","2","","4","2","1","1","2","652595581352411136","王","446","","","","","","","","","","","","","","","","","","","","","","","","","","","","","","feedback_test","","","","","","","","","","","",""
"693","","j","psychophysics","143","478521","0.0-7.0-0.0-4.0-0.0-0.18","4","4","4","4","4","4","3","2","4","4","5","4","4","4","4","4","5","4","5","5","2","1","2","2","2","1","1","1","2","1","0","0","0","0","0","0","1","0","1","1","0","1","0","0","4","2","2","2","2","","4","2","1","1","2","652595581352411136","王","446","","","","nonmatch","","","","","","","","","","","","","","key","j","8.332338308457654","640","396","j","true","nonmatch","img/circle.png","梯形","圆形","ALT1","formal_ALT1_1","","","","","","","","","","","",""
"null","<span style='color:GreenYellow; font-size: 70px;'>正确! </span>","null","html-keyboard-response","144","479022","0.0-7.0-0.0-4.0-0.0-1.18","4","4","4","4","4","4","3","2","4","4","5","4","4","4","4","4","5","4","5","5","2","1","2","2","2","1","1","1","2","1","0","0","0","0","0","0","1","0","1","1","0","1","0","0","4","2","2","2","2","","4","2","1","1","2","652595581352411136","王","446","","","","","","","","","","","","","","","","","","","","","","","","","","","","","","feedback_test","","","","","","","","","","","",""
"765","","j","psychophysics","145","480789","0.0-7.0-0.0-4.0-0.0-0.19","4","4","4","4","4","4","3","2","4","4","5","4","4","4","4","4","5","4","5","5","2","1","2","2","2","1","1","1","2","1","0","0","0","0","0","0","1","0","1","1","0","1","0","0","4","2","2","2","2","","4","2","1","1","2","652595581352411136","王","446","","","","nonmatch","","","","","","","","","","","","","","key","j","8.33476190476185","640","396","j","true","nonmatch","img/pentagon.png","梯形","五边","ALT1","formal_ALT1_1","","","","","","","","","","","",""
"null","<span style='color:GreenYellow; font-size: 70px;'>正确! </span>","null","html-keyboard-response","146","481290","0.0-7.0-0.0-4.0-0.0-1.19","4","4","4","4","4","4","3","2","4","4","5","4","4","4","4","4","5","4","5","5","2","1","2","2","2","1","1","1","2","1","0","0","0","0","0","0","1","0","1","1","0","1","0","0","4","2","2","2","2","","4","2","1","1","2","652595581352411136","王","446","","","","","","","","","","","","","","","","","","","","","","","","","","","","","","feedback_test","","","","","","","","","","","",""
"859","","j","psychophysics","147","483150","0.0-7.0-0.0-4.0-0.0-0.20","4","4","4","4","4","4","3","2","4","4","5","4","4","4","4","4","5","4","5","5","2","1","2","2","2","1","1","1","2","1","0","0","0","0","0","0","1","0","1","1","0","1","0","0","4","2","2","2","2","","4","2","1","1","2","652595581352411136","王","446","","","","nonmatch","","","","","","","","","","","","","","key","j","8.327601809954857","640","396","j","true","nonmatch","img/pentagon.png","方形","五边","ALT1","formal_ALT1_1","","","","","","","","","","","",""
"null","<span style='color:GreenYellow; font-size: 70px;'>正确! </span>","null","html-keyboard-response","148","483651","0.0-7.0-0.0-4.0-0.0-1.20","4","4","4","4","4","4","3","2","4","4","5","4","4","4","4","4","5","4","5","5","2","1","2","2","2","1","1","1","2","1","0","0","0","0","0","0","1","0","1","1","0","1","0","0","4","2","2","2","2","","4","2","1","1","2","652595581352411136","王","446","","","","","","","","","","","","","","","","","","","","","","","","","","","","","","feedback_test","","","","","","","","","","","",""
"606","","f","psychophysics","149","485258","0.0-7.0-0.0-4.0-0.0-0.21","4","4","4","4","4","4","3","2","4","4","5","4","4","4","4","4","5","4","5","5","2","1","2","2","2","1","1","1","2","1","0","0","0","0","0","0","1","0","1","1","0","1","0","0","4","2","2","2","2","","4","2","1","1","2","652595581352411136","王","446","","","","match","","","","","","","","","","","","","","key","f","8.326315789473684","640","396","f","true","match","img/circle.png","圆形","圆形","ALT1","formal_ALT1_1","","","","","","","","","","","",""
"null","<span style='color:GreenYellow; font-size: 70px;'>正确! </span>","null","html-keyboard-response","150","485759","0.0-7.0-0.0-4.0-0.0-1.21","4","4","4","4","4","4","3","2","4","4","5","4","4","4","4","4","5","4","5","5","2","1","2","2","2","1","1","1","2","1","0","0","0","0","0","0","1","0","1","1","0","1","0","0","4","2","2","2","2","","4","2","1","1","2","652595581352411136","王","446","","","","","","","","","","","","","","","","","","","","","","","","","","","","","","feedback_test","","","","","","","","","","","",""
"819","","f","psychophysics","151","487579","0.0-7.0-0.0-4.0-0.0-0.22","4","4","4","4","4","4","3","2","4","4","5","4","4","4","4","4","5","4","5","5","2","1","2","2","2","1","1","1","2","1","0","0","0","0","0","0","1","0","1","1","0","1","0","0","4","2","2","2","2","","4","2","1","1","2","652595581352411136","王","446","","","","match","","","","","","","","","","","","","","key","f","8.329953917050853","640","396","f","true","match","img/pentagon.png","五边","五边","ALT1","formal_ALT1_1","","","","","","","","","","","",""
"null","<span style='color:GreenYellow; font-size: 70px;'>正确! </span>","null","html-keyboard-response","152","488079","0.0-7.0-0.0-4.0-0.0-1.22","4","4","4","4","4","4","3","2","4","4","5","4","4","4","4","4","5","4","5","5","2","1","2","2","2","1","1","1","2","1","0","0","0","0","0","0","1","0","1","1","0","1","0","0","4","2","2","2","2","","4","2","1","1","2","652595581352411136","王","446","","","","","","","","","","","","","","","","","","","","","","","","","","","","","","feedback_test","","","","","","","","","","","",""
"633","","f","psychophysics","153","489713","0.0-7.0-0.0-4.0-0.0-0.23","4","4","4","4","4","4","3","2","4","4","5","4","4","4","4","4","5","4","5","5","2","1","2","2","2","1","1","1","2","1","0","0","0","0","0","0","1","0","1","1","0","1","0","0","4","2","2","2","2","","4","2","1","1","2","652595581352411136","王","446","","","","match","","","","","","","","","","","","","","key","f","8.333846153846034","640","396","f","true","match","img/circle.png","圆形","圆形","ALT1","formal_ALT1_1","","","","","","","","","","","",""
"null","<span style='color:GreenYellow; font-size: 70px;'>正确! </span>","null","html-keyboard-response","154","490214","0.0-7.0-0.0-4.0-0.0-1.23","4","4","4","4","4","4","3","2","4","4","5","4","4","4","4","4","5","4","5","5","2","1","2","2","2","1","1","1","2","1","0","0","0","0","0","0","1","0","1","1","0","1","0","0","4","2","2","2","2","","4","2","1","1","2","652595581352411136","王","446","","","","","","","","","","","","","","","","","","","","","","","","","","","","","","feedback_test","","","","","","","","","","","",""
"538","","f","psychophysics","155","491753","0.0-7.0-0.0-4.0-0.0-0.24","4","4","4","4","4","4","3","2","4","4","5","4","4","4","4","4","5","4","5","5","2","1","2","2","2","1","1","1","2","1","0","0","0","0","0","0","1","0","1","1","0","1","0","0","4","2","2","2","2","","4","2","1","1","2","652595581352411136","王","446","","","","match","","","","","","","","","","","","","","key","f","8.337158469945418","640","396","f","true","match","img/square.png","方形","方形","ALT1","formal_ALT1_1","","","","","","","","","","","",""
"null","<span style='color:GreenYellow; font-size: 70px;'>正确! </span>","null","html-keyboard-response","156","492254","0.0-7.0-0.0-4.0-0.0-1.24","4","4","4","4","4","4","3","2","4","4","5","4","4","4","4","4","5","4","5","5","2","1","2","2","2","1","1","1","2","1","0","0","0","0","0","0","1","0","1","1","0","1","0","0","4","2","2","2","2","","4","2","1","1","2","652595581352411136","王","446","","","","","","","","","","","","","","","","","","","","","","","","","","","","","","feedback_test","","","","","","","","","","","",""
"638","","f","psychophysics","157","493899","0.0-7.0-0.0-4.0-0.0-0.25","4","4","4","4","4","4","3","2","4","4","5","4","4","4","4","4","5","4","5","5","2","1","2","2","2","1","1","1","2","1","0","0","0","0","0","0","1","0","1","1","0","1","0","0","4","2","2","2","2","","4","2","1","1","2","652595581352411136","王","446","","","","match","","","","","","","","","","","","","","key","f","8.332653061224253","640","396","f","true","match","img/circle.png","圆形","圆形","ALT1","formal_ALT1_1","","","","","","","","","","","",""
"null","<span style='color:GreenYellow; font-size: 70px;'>正确! </span>","null","html-keyboard-response","158","494400","0.0-7.0-0.0-4.0-0.0-1.25","4","4","4","4","4","4","3","2","4","4","5","4","4","4","4","4","5","4","5","5","2","1","2","2","2","1","1","1","2","1","0","0","0","0","0","0","1","0","1","1","0","1","0","0","4","2","2","2","2","","4","2","1","1","2","652595581352411136","王","446","","","","","","","","","","","","","","","","","","","","","","","","","","","","","","feedback_test","","","","","","","","","","","",""
"773","","j","psychophysics","159","496175","0.0-7.0-0.0-4.0-0.0-0.26","4","4","4","4","4","4","3","2","4","4","5","4","4","4","4","4","5","4","5","5","2","1","2","2","2","1","1","1","2","1","0","0","0","0","0","0","1","0","1","1","0","1","0","0","4","2","2","2","2","","4","2","1","1","2","652595581352411136","王","446","","","","nonmatch","","","","","","","","","","","","","","key","j","8.332075471697948","640","396","j","true","nonmatch","img/circle.png","方形","圆形","ALT1","formal_ALT1_1","","","","","","","","","","","",""
"null","<span style='color:GreenYellow; font-size: 70px;'>正确! </span>","null","html-keyboard-response","160","496676","0.0-7.0-0.0-4.0-0.0-1.26","4","4","4","4","4","4","3","2","4","4","5","4","4","4","4","4","5","4","5","5","2","1","2","2","2","1","1","1","2","1","0","0","0","0","0","0","1","0","1","1","0","1","0","0","4","2","2","2","2","","4","2","1","1","2","652595581352411136","王","446","","","","","","","","","","","","","","","","","","","","","","","","","","","","","","feedback_test","","","","","","","","","","","",""
"772","","f","psychophysics","161","498449","0.0-7.0-0.0-4.0-0.0-0.27","4","4","4","4","4","4","3","2","4","4","5","4","4","4","4","4","5","4","5","5","2","1","2","2","2","1","1","1","2","1","0","0","0","0","0","0","1","0","1","1","0","1","0","0","4","2","2","2","2","","4","2","1","1","2","652595581352411136","王","446","","","","match","","","","","","","","","","","","","","key","f","8.332701421800728","640","396","f","true","match","img/square.png","方形","方形","ALT1","formal_ALT1_1","","","","","","","","","","","",""
"null","<span style='color:GreenYellow; font-size: 70px;'>正确! </span>","null","html-keyboard-response","162","498950","0.0-7.0-0.0-4.0-0.0-1.27","4","4","4","4","4","4","3","2","4","4","5","4","4","4","4","4","5","4","5","5","2","1","2","2","2","1","1","1","2","1","0","0","0","0","0","0","1","0","1","1","0","1","0","0","4","2","2","2","2","","4","2","1","1","2","652595581352411136","王","446","","","","","","","","","","","","","","","","","","","","","","","","","","","","","","feedback_test","","","","","","","","","","","",""
"773","","j","psychophysics","163","500724","0.0-7.0-0.0-4.0-0.0-0.28","4","4","4","4","4","4","3","2","4","4","5","4","4","4","4","4","5","4","5","5","2","1","2","2","2","1","1","1","2","1","0","0","0","0","0","0","1","0","1","1","0","1","0","0","4","2","2","2","2","","4","2","1","1","2","652595581352411136","王","446","","","","nonmatch","","","","","","","","","","","","","","key","j","8.33428571428577","640","396","j","true","nonmatch","img/pentagon.png","圆形","五边","ALT1","formal_ALT1_1","","","","","","","","","","","",""
"null","<span style='color:GreenYellow; font-size: 70px;'>正确! </span>","null","html-keyboard-response","164","501225","0.0-7.0-0.0-4.0-0.0-1.28","4","4","4","4","4","4","3","2","4","4","5","4","4","4","4","4","5","4","5","5","2","1","2","2","2","1","1","1","2","1","0","0","0","0","0","0","1","0","1","1","0","1","0","0","4","2","2","2","2","","4","2","1","1","2","652595581352411136","王","446","","","","","","","","","","","","","","","","","","","","","","","","","","","","","","feedback_test","","","","","","","","","","","",""
"888","","j","psychophysics","165","503114","0.0-7.0-0.0-4.0-0.0-0.29","4","4","4","4","4","4","3","2","4","4","5","4","4","4","4","4","5","4","5","5","2","1","2","2","2","1","1","1","2","1","0","0","0","0","0","0","1","0","1","1","0","1","0","0","4","2","2","2","2","","4","2","1","1","2","652595581352411136","王","446","","","","nonmatch","","","","","","","","","","","","","","key","j","8.334666666666616","640","396","j","true","nonmatch","img/trapezoid.png","方形","梯形","ALT1","formal_ALT1_1","","","","","","","","","","","",""
"null","<span style='color:GreenYellow; font-size: 70px;'>正确! </span>","null","html-keyboard-response","166","503616","0.0-7.0-0.0-4.0-0.0-1.29","4","4","4","4","4","4","3","2","4","4","5","4","4","4","4","4","5","4","5","5","2","1","2","2","2","1","1","1","2","1","0","0","0","0","0","0","1","0","1","1","0","1","0","0","4","2","2","2","2","","4","2","1","1","2","652595581352411136","王","446","","","","","","","","","","","","","","","","","","","","","","","","","","","","","","feedback_test","","","","","","","","","","","",""
"930","","f","psychophysics","167","505546","0.0-7.0-0.0-4.0-0.0-0.30","4","4","4","4","4","4","3","2","4","4","5","4","4","4","4","4","5","4","5","5","2","1","2","2","2","1","1","1","2","1","0","0","0","0","0","0","1","0","1","1","0","1","0","0","4","2","2","2","2","","4","2","1","1","2","652595581352411136","王","446","","","","match","","","","","","","","","","","","","","key","f","8.33448275862059","640","396","f","true","match","img/trapezoid.png","梯形","梯形","ALT1","formal_ALT1_1","","","","","","","","","","","",""
"null","<span style='color:GreenYellow; font-size: 70px;'>正确! </span>","null","html-keyboard-response","168","506047","0.0-7.0-0.0-4.0-0.0-1.30","4","4","4","4","4","4","3","2","4","4","5","4","4","4","4","4","5","4","5","5","2","1","2","2","2","1","1","1","2","1","0","0","0","0","0","0","1","0","1","1","0","1","0","0","4","2","2","2","2","","4","2","1","1","2","652595581352411136","王","446","","","","","","","","","","","","","","","","","","","","","","","","","","","","","","feedback_test","","","","","","","","","","","",""
"744","","j","psychophysics","169","507792","0.0-7.0-0.0-4.0-0.0-0.31","4","4","4","4","4","4","3","2","4","4","5","4","4","4","4","4","5","4","5","5","2","1","2","2","2","1","1","1","2","1","0","0","0","0","0","0","1","0","1","1","0","1","0","0","4","2","2","2","2","","4","2","1","1","2","652595581352411136","王","446","","","","nonmatch","","","","","","","","","","","","","","key","j","8.334449760765382","640","396","j","true","nonmatch","img/pentagon.png","方形","五边","ALT1","formal_ALT1_1","","","","","","","","","","","",""
"null","<span style='color:GreenYellow; font-size: 70px;'>正确! </span>","null","html-keyboard-response","170","508294","0.0-7.0-0.0-4.0-0.0-1.31","4","4","4","4","4","4","3","2","4","4","5","4","4","4","4","4","5","4","5","5","2","1","2","2","2","1","1","1","2","1","0","0","0","0","0","0","1","0","1","1","0","1","0","0","4","2","2","2","2","","4","2","1","1","2","652595581352411136","王","446","","","","","","","","","","","","","","","","","","","","","","","","","","","","","","feedback_test","","","","","","","","","","","",""
"757","","f","psychophysics","171","510051","0.0-7.0-0.0-4.0-0.0-0.32","4","4","4","4","4","4","3","2","4","4","5","4","4","4","4","4","5","4","5","5","2","1","2","2","2","1","1","1","2","1","0","0","0","0","0","0","1","0","1","1","0","1","0","0","4","2","2","2","2","","4","2","1","1","2","652595581352411136","王","446","","","","match","","","","","","","","","","","","","","key","f","8.334928229665072","640","396","f","true","match","img/pentagon.png","五边","五边","ALT1","formal_ALT1_1","","","","","","","","","","","",""
"null","<span style='color:GreenYellow; font-size: 70px;'>正确! </span>","null","html-keyboard-response","172","510552","0.0-7.0-0.0-4.0-0.0-1.32","4","4","4","4","4","4","3","2","4","4","5","4","4","4","4","4","5","4","5","5","2","1","2","2","2","1","1","1","2","1","0","0","0","0","0","0","1","0","1","1","0","1","0","0","4","2","2","2","2","","4","2","1","1","2","652595581352411136","王","446","","","","","","","","","","","","","","","","","","","","","","","","","","","","","","feedback_test","","","","","","","","","","","",""
"727","","j","psychophysics","173","512288","0.0-7.0-0.0-4.0-0.0-0.33","4","4","4","4","4","4","3","2","4","4","5","4","4","4","4","4","5","4","5","5","2","1","2","2","2","1","1","1","2","1","0","0","0","0","0","0","1","0","1","1","0","1","0","0","4","2","2","2","2","","4","2","1","1","2","652595581352411136","王","446","","","","nonmatch","","","","","","","","","","","","","","key","j","8.334299516908269","640","396","j","true","nonmatch","img/circle.png","梯形","圆形","ALT1","formal_ALT1_1","","","","","","","","","","","",""
"null","<span style='color:GreenYellow; font-size: 70px;'>正确! </span>","null","html-keyboard-response","174","512788","0.0-7.0-0.0-4.0-0.0-1.33","4","4","4","4","4","4","3","2","4","4","5","4","4","4","4","4","5","4","5","5","2","1","2","2","2","1","1","1","2","1","0","0","0","0","0","0","1","0","1","1","0","1","0","0","4","2","2","2","2","","4","2","1","1","2","652595581352411136","王","446","","","","","","","","","","","","","","","","","","","","","","","","","","","","","","feedback_test","","","","","","","","","","","",""
"965","","j","psychophysics","175","514755","0.0-7.0-0.0-4.0-0.0-0.34","4","4","4","4","4","4","3","2","4","4","5","4","4","4","4","4","5","4","5","5","2","1","2","2","2","1","1","1","2","1","0","0","0","0","0","0","1","0","1","1","0","1","0","0","4","2","2","2","2","","4","2","1","1","2","652595581352411136","王","446","","","","nonmatch","","","","","","","","","","","","","","key","j","8.333617021276694","640","396","j","true","nonmatch","img/square.png","圆形","方形","ALT1","formal_ALT1_1","","","","","","","","","","","",""
"null","<span style='color:GreenYellow; font-size: 70px;'>正确! </span>","null","html-keyboard-response","176","515256","0.0-7.0-0.0-4.0-0.0-1.34","4","4","4","4","4","4","3","2","4","4","5","4","4","4","4","4","5","4","5","5","2","1","2","2","2","1","1","1","2","1","0","0","0","0","0","0","1","0","1","1","0","1","0","0","4","2","2","2","2","","4","2","1","1","2","652595581352411136","王","446","","","","","","","","","","","","","","","","","","","","","","","","","","","","","","feedback_test","","","","","","","","","","","",""
"793","","f","psychophysics","177","517050","0.0-7.0-0.0-4.0-0.0-0.35","4","4","4","4","4","4","3","2","4","4","5","4","4","4","4","4","5","4","5","5","2","1","2","2","2","1","1","1","2","1","0","0","0","0","0","0","1","0","1","1","0","1","0","0","4","2","2","2","2","","4","2","1","1","2","652595581352411136","王","446","","","","match","","","","","","","","","","","","","","key","f","8.33349056603779","640","396","j","false","nonmatch","img/trapezoid.png","五边","梯形","ALT1","formal_ALT1_1","","","","","","","","","","","",""
"null","<span style='color:red; font-size: 70px;'>错误! </span>","null","html-keyboard-response","178","517551","0.0-7.0-0.0-4.0-0.0-1.35","4","4","4","4","4","4","3","2","4","4","5","4","4","4","4","4","5","4","5","5","2","1","2","2","2","1","1","1","2","1","0","0","0","0","0","0","1","0","1","1","0","1","0","0","4","2","2","2","2","","4","2","1","1","2","652595581352411136","王","446","","","","","","","","","","","","","","","","","","","","","","","","","","","","","","feedback_test","","","","","","","","","","","",""
"951","","f","psychophysics","179","519503","0.0-7.0-0.0-4.0-0.0-0.36","4","4","4","4","4","4","3","2","4","4","5","4","4","4","4","4","5","4","5","5","2","1","2","2","2","1","1","1","2","1","0","0","0","0","0","0","1","0","1","1","0","1","0","0","4","2","2","2","2","","4","2","1","1","2","652595581352411136","王","446","","","","match","","","","","","","","","","","","","","key","f","8.33749999999995","640","396","f","true","match","img/circle.png","圆形","圆形","ALT1","formal_ALT1_1","","","","","","","","","","","",""
"null","<span style='color:GreenYellow; font-size: 70px;'>正确! </span>","null","html-keyboard-response","180","520005","0.0-7.0-0.0-4.0-0.0-1.36","4","4","4","4","4","4","3","2","4","4","5","4","4","4","4","4","5","4","5","5","2","1","2","2","2","1","1","1","2","1","0","0","0","0","0","0","1","0","1","1","0","1","0","0","4","2","2","2","2","","4","2","1","1","2","652595581352411136","王","446","","","","","","","","","","","","","","","","","","","","","","","","","","","","","","feedback_test","","","","","","","","","","","",""
"824","","j","psychophysics","181","521834","0.0-7.0-0.0-4.0-0.0-0.37","4","4","4","4","4","4","3","2","4","4","5","4","4","4","4","4","5","4","5","5","2","1","2","2","2","1","1","1","2","1","0","0","0","0","0","0","1","0","1","1","0","1","0","0","4","2","2","2","2","","4","2","1","1","2","652595581352411136","王","446","","","","nonmatch","","","","","","","","","","","","","","key","j","8.333789954337794","640","396","j","true","nonmatch","img/square.png","梯形","方形","ALT1","formal_ALT1_1","","","","","","","","","","","",""
