"rt","stimulus","response","trial_type","trial_index","time_elapsed","internal_node_id","swb_1","swb_2","swb_3","swb_4","swb_5","LOT_1","LOT_2","LOT_3","LOT_4","LOT_5","LOT_6","IPC_1","IPC_2","IPC_3","IPC_4","IPC_5","IPC_6","IPC_7","IPC_8","MorIden_1","MorIden_2","MorIden_3","MorIden_4","MorIden_5","MorIden_6","MorIden_7","MorIden_8","MorIden_9","MorIden_10","moralSeImag_1","moralSeImag_2","moralSeImag_3","moralSeImag_4","moralSeImag_5","moralSeImag_6","moralSeImag_7","moralSeImag_8","moralSeImag_9","sde_1","sde_2","sde_3","sde_4","sde_5","sde_6","sde_7","sde_8","sde_9","sde_10","trap2","sde_11","sde_12","sde_13","sde_14","sde_15","sde_16","sde_17","sde_18","sde_19","sde_20","IM_1","IM_2","IM_3","IM_4","IM_5","IM_6","IM_7","IM_8","IM_9","IM_10","IM_11","IM_12","IM_13","IM_14","IM_15","IM_16","IM_17","IM_18","IM_19","IM_20","subj_idx","friend_name","ParticipantID","Sex","Word","Word2","value","success","timeout","failed_images","failed_audio","failed_video","user_agent","responses","item_order","radio_event_ids","radio_event_times","key_event_times","mouse_event_times","straightlining","zigzagging","honeypot","task_id","screen_id","time_stamp","response_type","key_press","avg_frame_time","center_x","center_y","person","word","valence","domain","math","correct_response","correct","status","view_history","identity","duration","Image","condition","question_order","trap2_item"
"34132","
   <p><div style='color:white; font-size: 25px'>您好，欢迎参加本次实验。</div></p>
   <p><div style='color:white; font-size: 25px'>为充分保障您的权利，请确保您已经知晓并同意《参与实验同意书》以及《数据公开知情同意书》。</div></p>
   <p><div style='color:white; font-size: 25px'>如果您未见过上述内容，请咨询实验员。</div></p>
   <p style='color:white; font-size: 25px'>如果您选择继续实验，则表示您已经清楚两份知情同意书的内容并同意。</p>
   <p><div style = ""color: pink;font-size:30px;"">请确保您记得day0的实验编号，您将在本次实验输入该编号，若您忘记，请咨询实验员后作答。</div></p>
   <p><div style = ""color:lightblue;font-size:25px;"">请您尽可能认真地作答，我们将依据您在各问卷和按键任务中的作答质量发放报酬。</div></p>
   <p> <div style = ""color: green""><按空格键至下页></div> </p>
   "," ","html-keyboard-response","0","34136","0.0-0.0","4","5","5","4","3","4","4","5","3","4","4","0","1","-1","0","0","1","1","0","4","5","4","4","4","3","3","3","5","4","5","6","4","6","5","5","6","5","8","3","6","5","5","5","4","2","5","5","5","7","5","4","6","4","5","6","4","5","6","4","4","5","3","4","5","6","3","6","5","6","6","5","5","6","3","6","5","5","4","6","775105837449613314","赵","651","Female","[""好我"",""好她"",""坏她"",""坏我""]","[""强我"",""强她"",""弱她"",""弱我""]","","","","","","","","","","","","","","","","","","","","","","","","","","","","","","","","","","","","","","",""
"","","","call-function","1","34141","0.0-1.0-0.0","4","5","5","4","3","4","4","5","3","4","4","0","1","-1","0","0","1","1","0","4","5","4","4","4","3","3","3","5","4","5","6","4","6","5","5","6","5","8","3","6","5","5","5","4","2","5","5","5","7","5","4","6","4","5","6","4","5","6","4","4","5","3","4","5","6","3","6","5","6","6","5","5","6","3","6","5","5","4","6","775105837449613314","赵","651","Female","[""好我"",""好她"",""坏她"",""坏我""]","[""强我"",""强她"",""弱她"",""弱我""]","","","","","","","","","","","","","","","","","","","","","","","","","","","","","","","","","","","","","","",""
"12871","","[{""name"":""Sex"",""value"":""1""},{""name"":""friend_name"",""value"":""赵""},{""name"":""ParticipantID"",""value"":""651""}]","survey-html-form","2","47013","0.0-1.0-1.0","4","5","5","4","3","4","4","5","3","4","4","0","1","-1","0","0","1","1","0","4","5","4","4","4","3","3","3","5","4","5","6","4","6","5","5","6","5","8","3","6","5","5","5","4","2","5","5","5","7","5","4","6","4","5","6","4","5","6","4","4","5","3","4","5","6","3","6","5","6","6","5","5","6","3","6","5","5","4","6","775105837449613314","赵","651","Female","[""好我"",""好她"",""坏她"",""坏我""]","[""强我"",""强她"",""弱她"",""弱我""]","","","","","","","","","","","","","","","","","","","","","","","","","","","","","","","","","","","","","","",""
"","","","preload","3","47385","0.0-2.0","4","5","5","4","3","4","4","5","3","4","4","0","1","-1","0","0","1","1","0","4","5","4","4","4","3","3","3","5","4","5","6","4","6","5","5","6","5","8","3","6","5","5","5","4","2","5","5","5","7","5","4","6","4","5","6","4","5","6","4","4","5","3","4","5","6","3","6","5","6","6","5","5","6","3","6","5","5","4","6","775105837449613314","赵","651","Female","[""好我"",""好她"",""坏她"",""坏我""]","[""强我"",""强她"",""弱她"",""弱我""]","","true","false","[]","[]","[]","","","","","","","","","","","","","","","","","","","","","","","","","","","","","","","","",""
"","","","fullscreen","4","51124","0.0-3.0","4","5","5","4","3","4","4","5","3","4","4","0","1","-1","0","0","1","1","0","4","5","4","4","4","3","3","3","5","4","5","6","4","6","5","5","6","5","8","3","6","5","5","5","4","2","5","5","5","7","5","4","6","4","5","6","4","5","6","4","4","5","3","4","5","6","3","6","5","6","6","5","5","6","3","6","5","5","4","6","775105837449613314","赵","651","Female","[""好我"",""好她"",""坏她"",""坏我""]","[""强我"",""强她"",""弱她"",""弱我""]","","true","","","","","{}","","","","","","","","","","","","","","","","","","","","","","","","","","","","","","","",""
"12745","","{""Q01"":""4"",""Q02"":""5"",""Q03"":""5"",""Q04"":""4"",""Q05"":""3""}","survey-template","5","63875","0.0-4.0","4","5","5","4","3","4","4","5","3","4","4","0","1","-1","0","0","1","1","0","4","5","4","4","4","3","3","3","5","4","5","6","4","6","5","5","6","5","8","3","6","5","5","5","4","2","5","5","5","7","5","4","6","4","5","6","4","5","6","4","4","5","3","4","5","6","3","6","5","6","6","5","5","6","3","6","5","5","4","6","775105837449613314","赵","651","Female","[""好我"",""好她"",""坏她"",""坏我""]","[""强我"",""强她"",""弱她"",""弱我""]","","","","","","","","{""Q01"":""4"",""Q02"":""5"",""Q03"":""5"",""Q04"":""4"",""Q05"":""3""}","[0,1,2,3,4]","[""Q01"",""Q02"",""Q03"",""Q04"",""Q05""]","[2976.5999999940395,4494,6226.4000000059605,8292,10726.09999999404]","[]","[2976.5999999940395,4494,6226.4000000059605,8292,10726.09999999404,12742.5]","0.4","0.75","0","","","","","","","","","","","","","","","","","","","","","","",""
"24171.29999998212","","{""Q01"":""4"",""Q02"":""4"",""Q03"":""5"",""Q04"":""3"",""Q05"":""4"",""Q06"":""4""}","survey-template","6","88058","0.0-5.0","4","5","5","4","3","4","4","5","3","4","4","0","1","-1","0","0","1","1","0","4","5","4","4","4","3","3","3","5","4","5","6","4","6","5","5","6","5","8","3","6","5","5","5","4","2","5","5","5","7","5","4","6","4","5","6","4","5","6","4","4","5","3","4","5","6","3","6","5","6","6","5","5","6","3","6","5","5","4","6","775105837449613314","赵","651","Female","[""好我"",""好她"",""坏她"",""坏我""]","[""强我"",""强她"",""弱她"",""弱我""]","","","","","","","","{""Q01"":""4"",""Q02"":""4"",""Q03"":""5"",""Q04"":""3"",""Q05"":""4"",""Q06"":""4""}","[0,1,2,3,4,5]","[""Q01"",""Q02"",""Q03"",""Q04"",""Q05"",""Q06""]","[2168.2999999821186,7202.4000000059605,9352.699999988079,13035.799999982119,15419,22885.59999999404]","[]","[2168.2999999821186,7202.4000000059605,9352.699999988079,13035.799999982119,15419,22885.59999999404,24170]","0.3333333333333333","0.2","0","","","","","","","","","","","","","","","","","","","","","","",""
"23357.80000001192","","{""Q01"":""0"",""Q02"":""1"",""Q03"":""-1"",""Q04"":""0"",""Q05"":""0"",""Q06"":""1"",""Q07"":""1"",""Q08"":""0""}","survey-template","7","111427","0.0-6.0","4","5","5","4","3","4","4","5","3","4","4","0","1","-1","0","0","1","1","0","4","5","4","4","4","3","3","3","5","4","5","6","4","6","5","5","6","5","8","3","6","5","5","5","4","2","5","5","5","7","5","4","6","4","5","6","4","5","6","4","4","5","3","4","5","6","3","6","5","6","6","5","5","6","3","6","5","5","4","6","775105837449613314","赵","651","Female","[""好我"",""好她"",""坏她"",""坏我""]","[""强我"",""强她"",""弱她"",""弱我""]","","","","","","","","{""Q01"":""0"",""Q02"":""1"",""Q03"":""-1"",""Q04"":""0"",""Q05"":""0"",""Q06"":""1"",""Q07"":""1"",""Q08"":""0""}","[0,1,2,3,4,5,6,7]","[""Q01"",""Q02"",""Q03"",""Q04"",""Q05"",""Q06"",""Q07"",""Q08""]","[3306,6255.4000000059605,9337.90000000596,11373.59999999404,14522.09999999404,16155.40000000596,19605.40000000596,21873.19999998808]","[]","[3306,6255.4000000059605,9337.90000000596,11373.59999999404,14522.09999999404,16155.40000000596,19605.40000000596,21873.19999998808,23355.80000001192]","0.5","0.5714285714285714","0","","","","","","","","","","","","","","","","","","","","","","",""
"55123","
    <p><div style='color:white;font-size:35px; line-height:20px;'>词汇评估任务</div></p><br>
    <p><div style='color:white;font-size:25px; line-height:20px;'>请再次回忆该亲密的朋友，你们至少2年前就认识了，并且最近2年经常见面。</div></p>
    <p><div style='color:white;font-size:25px; line-height:20px;'>在本实验中，您将会看到一些形容词。</div></p>
    <p><div style='color:yellow;font-size:25px; line-height:20px;'>您的任务是判断这些形容词是否符合对您自己或您的朋友的描述。</div></p><p style='font-size:35px'>符合按<span style=""color:lightgreen""> j 键</span>，不符合按<span style=""color:red""> f 键</span></p>","0","html-button-response","8","166559","0.0-7.0-0.0","4","5","5","4","3","4","4","5","3","4","4","0","1","-1","0","0","1","1","0","4","5","4","4","4","3","3","3","5","4","5","6","4","6","5","5","6","5","8","3","6","5","5","5","4","2","5","5","5","7","5","4","6","4","5","6","4","5","6","4","4","5","3","4","5","6","3","6","5","6","6","5","5","6","3","6","5","5","4","6","775105837449613314","赵","651","Female","[""好我"",""好她"",""坏她"",""坏我""]","[""强我"",""强她"",""弱她"",""弱我""]","","","","","","","","","","","","","","","","","SRET_EW","EW_instructions","Wed Jan 10 2024 17:02:02 GMT+0800 (中国标准时间)","","","","","","","","","","","","","","","","","","","",""
"1478","","j","psychophysics","9","169044","0.0-7.0-1.0-0.0","4","5","5","4","3","4","4","5","3","4","4","0","1","-1","0","0","1","1","0","4","5","4","4","4","3","3","3","5","4","5","6","4","6","5","5","6","5","8","3","6","5","5","5","4","2","5","5","5","7","5","4","6","4","5","6","4","5","6","4","4","5","3","4","5","6","3","6","5","6","6","5","5","6","3","6","5","5","4","6","775105837449613314","赵","651","Female","[""好我"",""好她"",""坏她"",""坏我""]","[""强我"",""强她"",""弱她"",""弱我""]","","","","","","","","yes","","","","","","","","","SRET_EW","EW_practice","","key","j","16.66599999999998","720","446","自己","严谨","Positive","ability","","","","","","","","","","",""
"1645","","f","psychophysics","10","171692","0.0-7.0-1.0-0.1","4","5","5","4","3","4","4","5","3","4","4","0","1","-1","0","0","1","1","0","4","5","4","4","4","3","3","3","5","4","5","6","4","6","5","5","6","5","8","3","6","5","5","5","4","2","5","5","5","7","5","4","6","4","5","6","4","5","6","4","4","5","3","4","5","6","3","6","5","6","6","5","5","6","3","6","5","5","4","6","775105837449613314","赵","651","Female","[""好我"",""好她"",""坏她"",""坏我""]","[""强我"",""强她"",""弱她"",""弱我""]","","","","","","","","no","","","","","","","","","SRET_EW","EW_practice","","key","f","16.666000000000018","720","446","朋友","徇私","Negative","morality","","","","","","","","","","",""
"865","","j","psychophysics","11","173559","0.0-7.0-1.0-0.2","4","5","5","4","3","4","4","5","3","4","4","0","1","-1","0","0","1","1","0","4","5","4","4","4","3","3","3","5","4","5","6","4","6","5","5","6","5","8","3","6","5","5","5","4","2","5","5","5","7","5","4","6","4","5","6","4","5","6","4","4","5","3","4","5","6","3","6","5","6","6","5","5","6","3","6","5","5","4","6","775105837449613314","赵","651","Female","[""好我"",""好她"",""坏她"",""坏我""]","[""强我"",""强她"",""弱她"",""弱我""]","","","","","","","","yes","","","","","","","","","SRET_EW","EW_practice","","key","j","16.66600000000006","720","446","朋友","忠实","Positive","morality","","","","","","","","","","",""
"1871","","f","psychophysics","12","176433","0.0-7.0-1.0-0.3","4","5","5","4","3","4","4","5","3","4","4","0","1","-1","0","0","1","1","0","4","5","4","4","4","3","3","3","5","4","5","6","4","6","5","5","6","5","8","3","6","5","5","5","4","2","5","5","5","7","5","4","6","4","5","6","4","5","6","4","4","5","3","4","5","6","3","6","5","6","6","5","5","6","3","6","5","5","4","6","775105837449613314","赵","651","Female","[""好我"",""好她"",""坏她"",""坏我""]","[""强我"",""强她"",""弱她"",""弱我""]","","","","","","","","no","","","","","","","","","SRET_EW","EW_practice","","key","f","16.670052631578937","720","446","自己","刻板","Negative","ability","","","","","","","","","","",""
"4541","
    <p><div style='color:white;font-size:35px; line-height:20px;'>请您再次阅读实验要求</div></p><br>
    <p><div style='color:white;font-size:25px; line-height:20px;'>请回忆某一个亲密的朋友，你们至少2年前就认识了，并且最近2年经常见面。</div></p>
    <p><div style='color:white;font-size:25px; line-height:20px;'>在本实验中，您将会看到一些形容词。</div></p>
    <p><div style='color:yellow;font-size:25px; line-height:20px;'>您的任务是判断这些形容词是否符合对您自己或您的朋友的描述。</div></p>
    <p><div class='footer' style='font-size:25px; line-height:20px;'>如果对本实验还有不清楚之处，请立即向实验员咨询。</p><p style='font-size:25px; line-height:20px;'>如果您明白了规则：</p><p style='font-size:22px; line-height:20px;'>请按 继续 进入正式实验</p>
    </div>
    <p style='font-size:35px'>符合按<span style=""color:lightgreen""> j 键</span>，不符合按<span style=""color:red""> f 键</span></p>","0","html-button-response","13","180977","0.0-7.0-2.0","4","5","5","4","3","4","4","5","3","4","4","0","1","-1","0","0","1","1","0","4","5","4","4","4","3","3","3","5","4","5","6","4","6","5","5","6","5","8","3","6","5","5","5","4","2","5","5","5","7","5","4","6","4","5","6","4","5","6","4","4","5","3","4","5","6","3","6","5","6","6","5","5","6","3","6","5","5","4","6","775105837449613314","赵","651","Female","[""好我"",""好她"",""坏她"",""坏我""]","[""强我"",""强她"",""弱她"",""弱我""]","","","","","","","","","","","","","","","","","SRET_EW","prac_instructions","Wed Jan 10 2024 17:02:02 GMT+0800 (中国标准时间)","","","","","","","","","","","","","","","","","","","",""
"551","","j","psychophysics","14","182531","0.0-7.0-3.0-0.0","4","5","5","4","3","4","4","5","3","4","4","0","1","-1","0","0","1","1","0","4","5","4","4","4","3","3","3","5","4","5","6","4","6","5","5","6","5","8","3","6","5","5","5","4","2","5","5","5","7","5","4","6","4","5","6","4","5","6","4","4","5","3","4","5","6","3","6","5","6","6","5","5","6","3","6","5","5","4","6","775105837449613314","赵","651","Female","[""好我"",""好她"",""坏她"",""坏我""]","[""强我"",""强她"",""弱她"",""弱我""]","","","","","","","","yes","","","","","","","","","SRET","EW_formal","","key","j","16.665999999999944","720","446","自己","坚贞","Positive","morality","","","","","","","","","","",""
"697","","j","psychophysics","15","184231","0.0-7.0-3.0-0.1","4","5","5","4","3","4","4","5","3","4","4","0","1","-1","0","0","1","1","0","4","5","4","4","4","3","3","3","5","4","5","6","4","6","5","5","6","5","8","3","6","5","5","5","4","2","5","5","5","7","5","4","6","4","5","6","4","5","6","4","4","5","3","4","5","6","3","6","5","6","6","5","5","6","3","6","5","5","4","6","775105837449613314","赵","651","Female","[""好我"",""好她"",""坏她"",""坏我""]","[""强我"",""强她"",""弱她"",""弱我""]","","","","","","","","yes","","","","","","","","","SRET","EW_formal","","key","j","16.666000000000032","720","446","朋友","务实","Positive","ability","","","","","","","","","","",""
"658","","f","psychophysics","16","185893","0.0-7.0-3.0-0.2","4","5","5","4","3","4","4","5","3","4","4","0","1","-1","0","0","1","1","0","4","5","4","4","4","3","3","3","5","4","5","6","4","6","5","5","6","5","8","3","6","5","5","5","4","2","5","5","5","7","5","4","6","4","5","6","4","5","6","4","4","5","3","4","5","6","3","6","5","6","6","5","5","6","3","6","5","5","4","6","775105837449613314","赵","651","Female","[""好我"",""好她"",""坏她"",""坏我""]","[""强我"",""强她"",""弱她"",""弱我""]","","","","","","","","no","","","","","","","","","SRET","EW_formal","","key","f","16.67173737373745","720","446","自己","说谎","Negative","morality","","","","","","","","","","",""
"698","","f","psychophysics","17","187593","0.0-7.0-3.0-0.3","4","5","5","4","3","4","4","5","3","4","4","0","1","-1","0","0","1","1","0","4","5","4","4","4","3","3","3","5","4","5","6","4","6","5","5","6","5","8","3","6","5","5","5","4","2","5","5","5","7","5","4","6","4","5","6","4","5","6","4","4","5","3","4","5","6","3","6","5","6","6","5","5","6","3","6","5","5","4","6","775105837449613314","赵","651","Female","[""好我"",""好她"",""坏她"",""坏我""]","[""强我"",""强她"",""弱她"",""弱我""]","","","","","","","","no","","","","","","","","","SRET","EW_formal","","key","f","16.666000000000032","720","446","朋友","迷糊","Negative","ability","","","","","","","","","","",""
"732","","f","psychophysics","18","189329","0.0-7.0-3.0-0.4","4","5","5","4","3","4","4","5","3","4","4","0","1","-1","0","0","1","1","0","4","5","4","4","4","3","3","3","5","4","5","6","4","6","5","5","6","5","8","3","6","5","5","5","4","2","5","5","5","7","5","4","6","4","5","6","4","5","6","4","4","5","3","4","5","6","3","6","5","6","6","5","5","6","3","6","5","5","4","6","775105837449613314","赵","651","Female","[""好我"",""好她"",""坏她"",""坏我""]","[""强我"",""强她"",""弱她"",""弱我""]","","","","","","","","no","","","","","","","","","SRET","EW_formal","","key","f","16.665999999999983","720","446","自己","无知","Negative","ability","","","","","","","","","","",""
"661","","j","psychophysics","19","190993","0.0-7.0-3.0-0.5","4","5","5","4","3","4","4","5","3","4","4","0","1","-1","0","0","1","1","0","4","5","4","4","4","3","3","3","5","4","5","6","4","6","5","5","6","5","8","3","6","5","5","5","4","2","5","5","5","7","5","4","6","4","5","6","4","5","6","4","4","5","3","4","5","6","3","6","5","6","6","5","5","6","3","6","5","5","4","6","775105837449613314","赵","651","Female","[""好我"",""好她"",""坏她"",""坏我""]","[""强我"",""强她"",""弱她"",""弱我""]","","","","","","","","yes","","","","","","","","","SRET","EW_formal","","key","j","16.666000000000086","720","446","朋友","廉正","Positive","morality","","","","","","","","","","",""
"1031","","f","psychophysics","20","193026","0.0-7.0-3.0-0.6","4","5","5","4","3","4","4","5","3","4","4","0","1","-1","0","0","1","1","0","4","5","4","4","4","3","3","3","5","4","5","6","4","6","5","5","6","5","8","3","6","5","5","5","4","2","5","5","5","7","5","4","6","4","5","6","4","5","6","4","4","5","3","4","5","6","3","6","5","6","6","5","5","6","3","6","5","5","4","6","775105837449613314","赵","651","Female","[""好我"",""好她"",""坏她"",""坏我""]","[""强我"",""强她"",""弱她"",""弱我""]","","","","","","","","no","","","","","","","","","SRET","EW_formal","","key","f","16.666000000000086","720","446","自己","守时","Positive","morality","","","","","","","","","","",""
"757","","f","psychophysics","21","194786","0.0-7.0-3.0-0.7","4","5","5","4","3","4","4","5","3","4","4","0","1","-1","0","0","1","1","0","4","5","4","4","4","3","3","3","5","4","5","6","4","6","5","5","6","5","8","3","6","5","5","5","4","2","5","5","5","7","5","4","6","4","5","6","4","5","6","4","4","5","3","4","5","6","3","6","5","6","6","5","5","6","3","6","5","5","4","6","775105837449613314","赵","651","Female","[""好我"",""好她"",""坏她"",""坏我""]","[""强我"",""强她"",""弱她"",""弱我""]","","","","","","","","no","","","","","","","","","SRET","EW_formal","","key","f","16.665999999999958","720","446","自己","贪腐","Negative","morality","","","","","","","","","","",""
"705","","j","psychophysics","22","196492","0.0-7.0-3.0-0.8","4","5","5","4","3","4","4","5","3","4","4","0","1","-1","0","0","1","1","0","4","5","4","4","4","3","3","3","5","4","5","6","4","6","5","5","6","5","8","3","6","5","5","5","4","2","5","5","5","7","5","4","6","4","5","6","4","5","6","4","4","5","3","4","5","6","3","6","5","6","6","5","5","6","3","6","5","5","4","6","775105837449613314","赵","651","Female","[""好我"",""好她"",""坏她"",""坏我""]","[""强我"",""强她"",""弱她"",""弱我""]","","","","","","","","yes","","","","","","","","","SRET","EW_formal","","key","j","16.67156862745098","720","446","自己","沉着","Positive","ability","","","","","","","","","","",""
"753","","f","psychophysics","23","198249","0.0-7.0-3.0-0.9","4","5","5","4","3","4","4","5","3","4","4","0","1","-1","0","0","1","1","0","4","5","4","4","4","3","3","3","5","4","5","6","4","6","5","5","6","5","8","3","6","5","5","5","4","2","5","5","5","7","5","4","6","4","5","6","4","5","6","4","4","5","3","4","5","6","3","6","5","6","6","5","5","6","3","6","5","5","4","6","775105837449613314","赵","651","Female","[""好我"",""好她"",""坏她"",""坏我""]","[""强我"",""强她"",""弱她"",""弱我""]","","","","","","","","no","","","","","","","","","SRET","EW_formal","","key","f","16.665999999999958","720","446","朋友","粗心","Negative","ability","","","","","","","","","","",""
"982","","f","psychophysics","24","200234","0.0-7.0-3.0-0.10","4","5","5","4","3","4","4","5","3","4","4","0","1","-1","0","0","1","1","0","4","5","4","4","4","3","3","3","5","4","5","6","4","6","5","5","6","5","8","3","6","5","5","5","4","2","5","5","5","7","5","4","6","4","5","6","4","5","6","4","4","5","3","4","5","6","3","6","5","6","6","5","5","6","3","6","5","5","4","6","775105837449613314","赵","651","Female","[""好我"",""好她"",""坏她"",""坏我""]","[""强我"",""强她"",""弱她"",""弱我""]","","","","","","","","no","","","","","","","","","SRET","EW_formal","","key","f","16.666000000000153","720","446","朋友","驽钝","Negative","ability","","","","","","","","","","",""
"1107","","j","psychophysics","25","202343","0.0-7.0-3.0-0.11","4","5","5","4","3","4","4","5","3","4","4","0","1","-1","0","0","1","1","0","4","5","4","4","4","3","3","3","5","4","5","6","4","6","5","5","6","5","8","3","6","5","5","5","4","2","5","5","5","7","5","4","6","4","5","6","4","5","6","4","4","5","3","4","5","6","3","6","5","6","6","5","5","6","3","6","5","5","4","6","775105837449613314","赵","651","Female","[""好我"",""好她"",""坏她"",""坏我""]","[""强我"",""强她"",""弱她"",""弱我""]","","","","","","","","yes","","","","","","","","","SRET","EW_formal","","key","j","16.66599999999998","720","446","自己","马虎","Negative","ability","","","","","","","","","","",""
"833","","f","psychophysics","26","204179","0.0-7.0-3.0-0.12","4","5","5","4","3","4","4","5","3","4","4","0","1","-1","0","0","1","1","0","4","5","4","4","4","3","3","3","5","4","5","6","4","6","5","5","6","5","8","3","6","5","5","5","4","2","5","5","5","7","5","4","6","4","5","6","4","5","6","4","4","5","3","4","5","6","3","6","5","6","6","5","5","6","3","6","5","5","4","6","775105837449613314","赵","651","Female","[""好我"",""好她"",""坏她"",""坏我""]","[""强我"",""强她"",""弱她"",""弱我""]","","","","","","","","no","","","","","","","","","SRET","EW_formal","","key","f","16.66600000000011","720","446","自己","低劣","Negative","morality","","","","","","","","","","",""
"778","","j","psychophysics","27","205959","0.0-7.0-3.0-0.13","4","5","5","4","3","4","4","5","3","4","4","0","1","-1","0","0","1","1","0","4","5","4","4","4","3","3","3","5","4","5","6","4","6","5","5","6","5","8","3","6","5","5","5","4","2","5","5","5","7","5","4","6","4","5","6","4","5","6","4","4","5","3","4","5","6","3","6","5","6","6","5","5","6","3","6","5","5","4","6","775105837449613314","赵","651","Female","[""好我"",""好她"",""坏她"",""坏我""]","[""强我"",""强她"",""弱她"",""弱我""]","","","","","","","","yes","","","","","","","","","SRET","EW_formal","","key","j","16.67135849056594","720","446","自己","守信","Positive","morality","","","","","","","","","","",""
"1029","","f","psychophysics","28","207991","0.0-7.0-3.0-0.14","4","5","5","4","3","4","4","5","3","4","4","0","1","-1","0","0","1","1","0","4","5","4","4","4","3","3","3","5","4","5","6","4","6","5","5","6","5","8","3","6","5","5","5","4","2","5","5","5","7","5","4","6","4","5","6","4","5","6","4","4","5","3","4","5","6","3","6","5","6","6","5","5","6","3","6","5","5","4","6","775105837449613314","赵","651","Female","[""好我"",""好她"",""坏她"",""坏我""]","[""强我"",""强她"",""弱她"",""弱我""]","","","","","","","","no","","","","","","","","","SRET","EW_formal","","key","f","16.666000000000086","720","446","自己","笨蛋","Negative","ability","","","","","","","","","","",""
"1367","","f","psychophysics","29","210360","0.0-7.0-3.0-0.15","4","5","5","4","3","4","4","5","3","4","4","0","1","-1","0","0","1","1","0","4","5","4","4","4","3","3","3","5","4","5","6","4","6","5","5","6","5","8","3","6","5","5","5","4","2","5","5","5","7","5","4","6","4","5","6","4","5","6","4","4","5","3","4","5","6","3","6","5","6","6","5","5","6","3","6","5","5","4","6","775105837449613314","赵","651","Female","[""好我"",""好她"",""坏她"",""坏我""]","[""强我"",""强她"",""弱她"",""弱我""]","","","","","","","","no","","","","","","","","","SRET","EW_formal","","key","f","16.665999999999915","720","446","朋友","高效","Positive","ability","","","","","","","","","","",""
"897","","f","psychophysics","30","212260","0.0-7.0-3.0-0.16","4","5","5","4","3","4","4","5","3","4","4","0","1","-1","0","0","1","1","0","4","5","4","4","4","3","3","3","5","4","5","6","4","6","5","5","6","5","8","3","6","5","5","5","4","2","5","5","5","7","5","4","6","4","5","6","4","5","6","4","4","5","3","4","5","6","3","6","5","6","6","5","5","6","3","6","5","5","4","6","775105837449613314","赵","651","Female","[""好我"",""好她"",""坏她"",""坏我""]","[""强我"",""强她"",""弱她"",""弱我""]","","","","","","","","no","","","","","","","","","SRET","EW_formal","","key","f","16.666000000000015","720","446","自己","拖延","Negative","ability","","","","","","","","","","",""
"775","","j","psychophysics","31","214037","0.0-7.0-3.0-0.17","4","5","5","4","3","4","4","5","3","4","4","0","1","-1","0","0","1","1","0","4","5","4","4","4","3","3","3","5","4","5","6","4","6","5","5","6","5","8","3","6","5","5","5","4","2","5","5","5","7","5","4","6","4","5","6","4","5","6","4","4","5","3","4","5","6","3","6","5","6","6","5","5","6","3","6","5","5","4","6","775105837449613314","赵","651","Female","[""好我"",""好她"",""坏她"",""坏我""]","[""强我"",""强她"",""弱她"",""弱我""]","","","","","","","","yes","","","","","","","","","SRET","EW_formal","","key","j","16.66600000000021","720","446","自己","高明","Positive","ability","","","","","","","","","","",""
"873","","f","psychophysics","32","215911","0.0-7.0-3.0-0.18","4","5","5","4","3","4","4","5","3","4","4","0","1","-1","0","0","1","1","0","4","5","4","4","4","3","3","3","5","4","5","6","4","6","5","5","6","5","8","3","6","5","5","5","4","2","5","5","5","7","5","4","6","4","5","6","4","5","6","4","4","5","3","4","5","6","3","6","5","6","6","5","5","6","3","6","5","5","4","6","775105837449613314","赵","651","Female","[""好我"",""好她"",""坏她"",""坏我""]","[""强我"",""强她"",""弱她"",""弱我""]","","","","","","","","no","","","","","","","","","SRET","EW_formal","","key","f","16.666000000000036","720","446","朋友","果决","Positive","ability","","","","","","","","","","",""
"1282","","j","psychophysics","33","218196","0.0-7.0-3.0-0.19","4","5","5","4","3","4","4","5","3","4","4","0","1","-1","0","0","1","1","0","4","5","4","4","4","3","3","3","5","4","5","6","4","6","5","5","6","5","8","3","6","5","5","5","4","2","5","5","5","7","5","4","6","4","5","6","4","5","6","4","4","5","3","4","5","6","3","6","5","6","6","5","5","6","3","6","5","5","4","6","775105837449613314","赵","651","Female","[""好我"",""好她"",""坏她"",""坏我""]","[""强我"",""强她"",""弱她"",""弱我""]","","","","","","","","yes","","","","","","","","","SRET","EW_formal","","key","j","16.67017647058824","720","446","自己","骁勇","Positive","ability","","","","","","","","","","",""
"812","","j","psychophysics","34","220011","0.0-7.0-3.0-0.20","4","5","5","4","3","4","4","5","3","4","4","0","1","-1","0","0","1","1","0","4","5","4","4","4","3","3","3","5","4","5","6","4","6","5","5","6","5","8","3","6","5","5","5","4","2","5","5","5","7","5","4","6","4","5","6","4","5","6","4","4","5","3","4","5","6","3","6","5","6","6","5","5","6","3","6","5","5","4","6","775105837449613314","赵","651","Female","[""好我"",""好她"",""坏她"",""坏我""]","[""强我"",""强她"",""弱她"",""弱我""]","","","","","","","","yes","","","","","","","","","SRET","EW_formal","","key","j","16.665999999999865","720","446","自己","文明","Positive","morality","","","","","","","","","","",""
"766","","f","psychophysics","35","221780","0.0-7.0-3.0-0.21","4","5","5","4","3","4","4","5","3","4","4","0","1","-1","0","0","1","1","0","4","5","4","4","4","3","3","3","5","4","5","6","4","6","5","5","6","5","8","3","6","5","5","5","4","2","5","5","5","7","5","4","6","4","5","6","4","5","6","4","4","5","3","4","5","6","3","6","5","6","6","5","5","6","3","6","5","5","4","6","775105837449613314","赵","651","Female","[""好我"",""好她"",""坏她"",""坏我""]","[""强我"",""强她"",""弱她"",""弱我""]","","","","","","","","no","","","","","","","","","SRET","EW_formal","","key","f","16.66600000000021","720","446","自己","下流","Negative","morality","","","","","","","","","","",""
"1095","","j","psychophysics","36","223877","0.0-7.0-3.0-0.22","4","5","5","4","3","4","4","5","3","4","4","0","1","-1","0","0","1","1","0","4","5","4","4","4","3","3","3","5","4","5","6","4","6","5","5","6","5","8","3","6","5","5","5","4","2","5","5","5","7","5","4","6","4","5","6","4","5","6","4","4","5","3","4","5","6","3","6","5","6","6","5","5","6","3","6","5","5","4","6","775105837449613314","赵","651","Female","[""好我"",""好她"",""坏她"",""坏我""]","[""强我"",""强她"",""弱她"",""弱我""]","","","","","","","","yes","","","","","","","","","SRET","EW_formal","","key","j","16.666","720","446","自己","娴熟","Positive","ability","","","","","","","","","","",""
"708","","j","psychophysics","37","225588","0.0-7.0-3.0-0.23","4","5","5","4","3","4","4","5","3","4","4","0","1","-1","0","0","1","1","0","4","5","4","4","4","3","3","3","5","4","5","6","4","6","5","5","6","5","8","3","6","5","5","5","4","2","5","5","5","7","5","4","6","4","5","6","4","5","6","4","4","5","3","4","5","6","3","6","5","6","6","5","5","6","3","6","5","5","4","6","775105837449613314","赵","651","Female","[""好我"",""好她"",""坏她"",""坏我""]","[""强我"",""强她"",""弱她"",""弱我""]","","","","","","","","yes","","","","","","","","","SRET","EW_formal","","key","j","16.666000000000032","720","446","朋友","外行","Negative","ability","","","","","","","","","","",""
"828","","f","psychophysics","38","227419","0.0-7.0-3.0-0.24","4","5","5","4","3","4","4","5","3","4","4","0","1","-1","0","0","1","1","0","4","5","4","4","4","3","3","3","5","4","5","6","4","6","5","5","6","5","8","3","6","5","5","5","4","2","5","5","5","7","5","4","6","4","5","6","4","5","6","4","4","5","3","4","5","6","3","6","5","6","6","5","5","6","3","6","5","5","4","6","775105837449613314","赵","651","Female","[""好我"",""好她"",""坏她"",""坏我""]","[""强我"",""强她"",""弱她"",""弱我""]","","","","","","","","no","","","","","","","","","SRET","EW_formal","","key","f","16.671211009174147","720","446","朋友","盲目","Negative","ability","","","","","","","","","","",""
"959","","j","psychophysics","39","229381","0.0-7.0-3.0-0.25","4","5","5","4","3","4","4","5","3","4","4","0","1","-1","0","0","1","1","0","4","5","4","4","4","3","3","3","5","4","5","6","4","6","5","5","6","5","8","3","6","5","5","5","4","2","5","5","5","7","5","4","6","4","5","6","4","5","6","4","4","5","3","4","5","6","3","6","5","6","6","5","5","6","3","6","5","5","4","6","775105837449613314","赵","651","Female","[""好我"",""好她"",""坏她"",""坏我""]","[""强我"",""强她"",""弱她"",""弱我""]","","","","","","","","yes","","","","","","","","","SRET","EW_formal","","key","j","16.666000000000174","720","446","朋友","依靠","Negative","ability","","","","","","","","","","",""
"708","","j","psychophysics","40","231092","0.0-7.0-3.0-0.26","4","5","5","4","3","4","4","5","3","4","4","0","1","-1","0","0","1","1","0","4","5","4","4","4","3","3","3","5","4","5","6","4","6","5","5","6","5","8","3","6","5","5","5","4","2","5","5","5","7","5","4","6","4","5","6","4","5","6","4","4","5","3","4","5","6","3","6","5","6","6","5","5","6","3","6","5","5","4","6","775105837449613314","赵","651","Female","[""好我"",""好她"",""坏她"",""坏我""]","[""强我"",""强她"",""弱她"",""弱我""]","","","","","","","","yes","","","","","","","","","SRET","EW_formal","","key","j","16.666000000000007","720","446","朋友","扎实","Positive","ability","","","","","","","","","","",""
"736","","f","psychophysics","41","232830","0.0-7.0-3.0-0.27","4","5","5","4","3","4","4","5","3","4","4","0","1","-1","0","0","1","1","0","4","5","4","4","4","3","3","3","5","4","5","6","4","6","5","5","6","5","8","3","6","5","5","5","4","2","5","5","5","7","5","4","6","4","5","6","4","5","6","4","4","5","3","4","5","6","3","6","5","6","6","5","5","6","3","6","5","5","4","6","775105837449613314","赵","651","Female","[""好我"",""好她"",""坏她"",""坏我""]","[""强我"",""强她"",""弱她"",""弱我""]","","","","","","","","no","","","","","","","","","SRET","EW_formal","","key","f","16.665999999999983","720","446","朋友","不仁","Negative","morality","","","","","","","","","","",""
"995","","j","psychophysics","42","234828","0.0-7.0-3.0-0.28","4","5","5","4","3","4","4","5","3","4","4","0","1","-1","0","0","1","1","0","4","5","4","4","4","3","3","3","5","4","5","6","4","6","5","5","6","5","8","3","6","5","5","5","4","2","5","5","5","7","5","4","6","4","5","6","4","5","6","4","4","5","3","4","5","6","3","6","5","6","6","5","5","6","3","6","5","5","4","6","775105837449613314","赵","651","Female","[""好我"",""好她"",""坏她"",""坏我""]","[""强我"",""强她"",""弱她"",""弱我""]","","","","","","","","yes","","","","","","","","","SRET","EW_formal","","key","j","16.66600000000013","720","446","朋友","忠勇","Positive","morality","","","","","","","","","","",""
"783","","f","psychophysics","43","236613","0.0-7.0-3.0-0.29","4","5","5","4","3","4","4","5","3","4","4","0","1","-1","0","0","1","1","0","4","5","4","4","4","3","3","3","5","4","5","6","4","6","5","5","6","5","8","3","6","5","5","5","4","2","5","5","5","7","5","4","6","4","5","6","4","5","6","4","4","5","3","4","5","6","3","6","5","6","6","5","5","6","3","6","5","5","4","6","775105837449613314","赵","651","Female","[""好我"",""好她"",""坏她"",""坏我""]","[""强我"",""强她"",""弱她"",""弱我""]","","","","","","","","no","","","","","","","","","SRET","EW_formal","","key","f","16.67135849056594","720","446","自己","虚伪","Negative","morality","","","","","","","","","","",""
"874","","f","psychophysics","44","238489","0.0-7.0-3.0-0.30","4","5","5","4","3","4","4","5","3","4","4","0","1","-1","0","0","1","1","0","4","5","4","4","4","3","3","3","5","4","5","6","4","6","5","5","6","5","8","3","6","5","5","5","4","2","5","5","5","7","5","4","6","4","5","6","4","5","6","4","4","5","3","4","5","6","3","6","5","6","6","5","5","6","3","6","5","5","4","6","775105837449613314","赵","651","Female","[""好我"",""好她"",""坏她"",""坏我""]","[""强我"",""强她"",""弱她"",""弱我""]","","","","","","","","no","","","","","","","","","SRET","EW_formal","","key","f","16.666000000000036","720","446","朋友","背叛","Negative","morality","","","","","","","","","","",""
"685","","f","psychophysics","45","240177","0.0-7.0-3.0-0.31","4","5","5","4","3","4","4","5","3","4","4","0","1","-1","0","0","1","1","0","4","5","4","4","4","3","3","3","5","4","5","6","4","6","5","5","6","5","8","3","6","5","5","5","4","2","5","5","5","7","5","4","6","4","5","6","4","5","6","4","4","5","3","4","5","6","3","6","5","6","6","5","5","6","3","6","5","5","4","6","775105837449613314","赵","651","Female","[""好我"",""好她"",""坏她"",""坏我""]","[""强我"",""强她"",""弱她"",""弱我""]","","","","","","","","no","","","","","","","","","SRET","EW_formal","","key","f","16.666000000000057","720","446","朋友","无耻","Negative","morality","","","","","","","","","","",""
"741","","j","psychophysics","46","241920","0.0-7.0-3.0-0.32","4","5","5","4","3","4","4","5","3","4","4","0","1","-1","0","0","1","1","0","4","5","4","4","4","3","3","3","5","4","5","6","4","6","5","5","6","5","8","3","6","5","5","5","4","2","5","5","5","7","5","4","6","4","5","6","4","5","6","4","4","5","3","4","5","6","3","6","5","6","6","5","5","6","3","6","5","5","4","6","775105837449613314","赵","651","Female","[""好我"",""好她"",""坏她"",""坏我""]","[""强我"",""强她"",""弱她"",""弱我""]","","","","","","","","yes","","","","","","","","","SRET","EW_formal","","key","j","16.665999999999983","720","446","朋友","宽容","Positive","morality","","","","","","","","","","",""
"855","","f","psychophysics","47","243778","0.0-7.0-3.0-0.33","4","5","5","4","3","4","4","5","3","4","4","0","1","-1","0","0","1","1","0","4","5","4","4","4","3","3","3","5","4","5","6","4","6","5","5","6","5","8","3","6","5","5","5","4","2","5","5","5","7","5","4","6","4","5","6","4","5","6","4","4","5","3","4","5","6","3","6","5","6","6","5","5","6","3","6","5","5","4","6","775105837449613314","赵","651","Female","[""好我"",""好她"",""坏她"",""坏我""]","[""强我"",""强她"",""弱她"",""弱我""]","","","","","","","","no","","","","","","","","","SRET","EW_formal","","key","f","16.66600000000006","720","446","朋友","昏庸","Negative","ability","","","","","","","","","","",""
"1275","","j","psychophysics","48","246055","0.0-7.0-3.0-0.34","4","5","5","4","3","4","4","5","3","4","4","0","1","-1","0","0","1","1","0","4","5","4","4","4","3","3","3","5","4","5","6","4","6","5","5","6","5","8","3","6","5","5","5","4","2","5","5","5","7","5","4","6","4","5","6","4","5","6","4","4","5","3","4","5","6","3","6","5","6","6","5","5","6","3","6","5","5","4","6","775105837449613314","赵","651","Female","[""好我"",""好她"",""坏她"",""坏我""]","[""强我"",""强她"",""弱她"",""弱我""]","","","","","","","","yes","","","","","","","","","SRET","EW_formal","","key","j","16.666000000000007","720","446","自己","犹豫","Negative","ability","","","","","","","","","","",""
"939","","j","psychophysics","49","247996","0.0-7.0-3.0-0.35","4","5","5","4","3","4","4","5","3","4","4","0","1","-1","0","0","1","1","0","4","5","4","4","4","3","3","3","5","4","5","6","4","6","5","5","6","5","8","3","6","5","5","5","4","2","5","5","5","7","5","4","6","4","5","6","4","5","6","4","4","5","3","4","5","6","3","6","5","6","6","5","5","6","3","6","5","5","4","6","775105837449613314","赵","651","Female","[""好我"",""好她"",""坏她"",""坏我""]","[""强我"",""强她"",""弱她"",""弱我""]","","","","","","","","yes","","","","","","","","","SRET","EW_formal","","key","j","16.670939130434746","720","446","朋友","思辨","Positive","ability","","","","","","","","","","",""
"755","","j","psychophysics","50","249752","0.0-7.0-3.0-0.36","4","5","5","4","3","4","4","5","3","4","4","0","1","-1","0","0","1","1","0","4","5","4","4","4","3","3","3","5","4","5","6","4","6","5","5","6","5","8","3","6","5","5","5","4","2","5","5","5","7","5","4","6","4","5","6","4","5","6","4","4","5","3","4","5","6","3","6","5","6","6","5","5","6","3","6","5","5","4","6","775105837449613314","赵","651","Female","[""好我"",""好她"",""坏她"",""坏我""]","[""强我"",""强她"",""弱她"",""弱我""]","","","","","","","","yes","","","","","","","","","SRET","EW_formal","","key","j","16.665999999999958","720","446","朋友","侠义","Positive","morality","","","","","","","","","","",""
"824","","f","psychophysics","51","251578","0.0-7.0-3.0-0.37","4","5","5","4","3","4","4","5","3","4","4","0","1","-1","0","0","1","1","0","4","5","4","4","4","3","3","3","5","4","5","6","4","6","5","5","6","5","8","3","6","5","5","5","4","2","5","5","5","7","5","4","6","4","5","6","4","5","6","4","4","5","3","4","5","6","3","6","5","6","6","5","5","6","3","6","5","5","4","6","775105837449613314","赵","651","Female","[""好我"",""好她"",""坏她"",""坏我""]","[""强我"",""强她"",""弱她"",""弱我""]","","","","","","","","no","","","","","","","","","SRET","EW_formal","","key","f","16.66600000000011","720","446","朋友","拜金","Negative","morality","","","","","","","","","","",""
"1434","","f","psychophysics","52","254014","0.0-7.0-3.0-0.38","4","5","5","4","3","4","4","5","3","4","4","0","1","-1","0","0","1","1","0","4","5","4","4","4","3","3","3","5","4","5","6","4","6","5","5","6","5","8","3","6","5","5","5","4","2","5","5","5","7","5","4","6","4","5","6","4","5","6","4","4","5","3","4","5","6","3","6","5","6","6","5","5","6","3","6","5","5","4","6","775105837449613314","赵","651","Female","[""好我"",""好她"",""坏她"",""坏我""]","[""强我"",""强她"",""弱她"",""弱我""]","","","","","","","","no","","","","","","","","","SRET","EW_formal","","key","f","16.666000000000047","720","446","朋友","畏难","Negative","ability","","","","","","","","","","",""
"1012","","j","psychophysics","53","256029","0.0-7.0-3.0-0.39","4","5","5","4","3","4","4","5","3","4","4","0","1","-1","0","0","1","1","0","4","5","4","4","4","3","3","3","5","4","5","6","4","6","5","5","6","5","8","3","6","5","5","5","4","2","5","5","5","7","5","4","6","4","5","6","4","5","6","4","4","5","3","4","5","6","3","6","5","6","6","5","5","6","3","6","5","5","4","6","775105837449613314","赵","651","Female","[""好我"",""好她"",""坏她"",""坏我""]","[""强我"",""强她"",""弱她"",""弱我""]","","","","","","","","yes","","","","","","","","","SRET","EW_formal","","key","j","16.666000000000107","720","446","自己","敏捷","Positive","ability","","","","","","","","","","",""
"830","","j","psychophysics","54","257862","0.0-7.0-3.0-0.40","4","5","5","4","3","4","4","5","3","4","4","0","1","-1","0","0","1","1","0","4","5","4","4","4","3","3","3","5","4","5","6","4","6","5","5","6","5","8","3","6","5","5","5","4","2","5","5","5","7","5","4","6","4","5","6","4","5","6","4","4","5","3","4","5","6","3","6","5","6","6","5","5","6","3","6","5","5","4","6","775105837449613314","赵","651","Female","[""好我"",""好她"",""坏她"",""坏我""]","[""强我"",""强她"",""弱她"",""弱我""]","","","","","","","","yes","","","","","","","","","SRET","EW_formal","","key","j","16.671211009174147","720","446","朋友","勤恳","Positive","morality","","","","","","","","","","",""
"763","","j","psychophysics","55","259627","0.0-7.0-3.0-0.41","4","5","5","4","3","4","4","5","3","4","4","0","1","-1","0","0","1","1","0","4","5","4","4","4","3","3","3","5","4","5","6","4","6","5","5","6","5","8","3","6","5","5","5","4","2","5","5","5","7","5","4","6","4","5","6","4","5","6","4","4","5","3","4","5","6","3","6","5","6","6","5","5","6","3","6","5","5","4","6","775105837449613314","赵","651","Female","[""好我"",""好她"",""坏她"",""坏我""]","[""强我"",""强她"",""弱她"",""弱我""]","","","","","","","","yes","","","","","","","","","SRET","EW_formal","","key","j","16.66600000000021","720","446","自己","勤奋","Positive","ability","","","","","","","","","","",""
"1300","","j","psychophysics","56","261929","0.0-7.0-3.0-0.42","4","5","5","4","3","4","4","5","3","4","4","0","1","-1","0","0","1","1","0","4","5","4","4","4","3","3","3","5","4","5","6","4","6","5","5","6","5","8","3","6","5","5","5","4","2","5","5","5","7","5","4","6","4","5","6","4","5","6","4","4","5","3","4","5","6","3","6","5","6","6","5","5","6","3","6","5","5","4","6","775105837449613314","赵","651","Female","[""好我"",""好她"",""坏她"",""坏我""]","[""强我"",""强她"",""弱她"",""弱我""]","","","","","","","","yes","","","","","","","","","SRET","EW_formal","","key","j","16.66599999999999","720","446","朋友","业余","Negative","ability","","","","","","","","","","",""
"829","","j","psychophysics","57","263761","0.0-7.0-3.0-0.43","4","5","5","4","3","4","4","5","3","4","4","0","1","-1","0","0","1","1","0","4","5","4","4","4","3","3","3","5","4","5","6","4","6","5","5","6","5","8","3","6","5","5","5","4","2","5","5","5","7","5","4","6","4","5","6","4","5","6","4","4","5","3","4","5","6","3","6","5","6","6","5","5","6","3","6","5","5","4","6","775105837449613314","赵","651","Female","[""好我"",""好她"",""坏她"",""坏我""]","[""强我"",""强她"",""弱她"",""弱我""]","","","","","","","","yes","","","","","","","","","SRET","EW_formal","","key","j","16.666000000000377","720","446","自己","敬业","Positive","morality","","","","","","","","","","",""
"1077","","f","psychophysics","58","265840","0.0-7.0-3.0-0.44","4","5","5","4","3","4","4","5","3","4","4","0","1","-1","0","0","1","1","0","4","5","4","4","4","3","3","3","5","4","5","6","4","6","5","5","6","5","8","3","6","5","5","5","4","2","5","5","5","7","5","4","6","4","5","6","4","5","6","4","4","5","3","4","5","6","3","6","5","6","6","5","5","6","3","6","5","5","4","6","775105837449613314","赵","651","Female","[""好我"",""好她"",""坏她"",""坏我""]","[""强我"",""强她"",""弱她"",""弱我""]","","","","","","","","no","","","","","","","","","SRET","EW_formal","","key","f","16.666000000000256","720","446","朋友","诡诈","Negative","morality","","","","","","","","","","",""
"1393","","j","psychophysics","59","268235","0.0-7.0-3.0-0.45","4","5","5","4","3","4","4","5","3","4","4","0","1","-1","0","0","1","1","0","4","5","4","4","4","3","3","3","5","4","5","6","4","6","5","5","6","5","8","3","6","5","5","5","4","2","5","5","5","7","5","4","6","4","5","6","4","5","6","4","4","5","3","4","5","6","3","6","5","6","6","5","5","6","3","6","5","5","4","6","775105837449613314","赵","651","Female","[""好我"",""好她"",""坏她"",""坏我""]","[""强我"",""强她"",""弱她"",""弱我""]","","","","","","","","yes","","","","","","","","","SRET","EW_formal","","key","j","16.670000000000098","720","446","朋友","忠诚","Positive","morality","","","","","","","","","","",""
"841","","j","psychophysics","60","270079","0.0-7.0-3.0-0.46","4","5","5","4","3","4","4","5","3","4","4","0","1","-1","0","0","1","1","0","4","5","4","4","4","3","3","3","5","4","5","6","4","6","5","5","6","5","8","3","6","5","5","5","4","2","5","5","5","7","5","4","6","4","5","6","4","5","6","4","4","5","3","4","5","6","3","6","5","6","6","5","5","6","3","6","5","5","4","6","775105837449613314","赵","651","Female","[""好我"",""好她"",""坏她"",""坏我""]","[""强我"",""强她"",""弱她"",""弱我""]","","","","","","","","yes","","","","","","","","","SRET","EW_formal","","key","j","16.665999999999556","720","446","朋友","刚正","Positive","morality","","","","","","","","","","",""
"731","","j","psychophysics","61","271812","0.0-7.0-3.0-0.47","4","5","5","4","3","4","4","5","3","4","4","0","1","-1","0","0","1","1","0","4","5","4","4","4","3","3","3","5","4","5","6","4","6","5","5","6","5","8","3","6","5","5","5","4","2","5","5","5","7","5","4","6","4","5","6","4","5","6","4","4","5","3","4","5","6","3","6","5","6","6","5","5","6","3","6","5","5","4","6","775105837449613314","赵","651","Female","[""好我"",""好她"",""坏她"",""坏我""]","[""强我"",""强她"",""弱她"",""弱我""]","","","","","","","","yes","","","","","","","","","SRET","EW_formal","","key","j","16.665999999999983","720","446","自己","智慧","Positive","ability","","","","","","","","","","",""
"647","","j","psychophysics","62","273461","0.0-7.0-3.0-0.48","4","5","5","4","3","4","4","5","3","4","4","0","1","-1","0","0","1","1","0","4","5","4","4","4","3","3","3","5","4","5","6","4","6","5","5","6","5","8","3","6","5","5","5","4","2","5","5","5","7","5","4","6","4","5","6","4","5","6","4","4","5","3","4","5","6","3","6","5","6","6","5","5","6","3","6","5","5","4","6","775105837449613314","赵","651","Female","[""好我"",""好她"",""坏她"",""坏我""]","[""强我"",""强她"",""弱她"",""弱我""]","","","","","","","","yes","","","","","","","","","SRET","EW_formal","","key","j","16.665999999999816","720","446","自己","自律","Positive","ability","","","","","","","","","","",""
"1567","","j","psychophysics","63","276029","0.0-7.0-3.0-0.49","4","5","5","4","3","4","4","5","3","4","4","0","1","-1","0","0","1","1","0","4","5","4","4","4","3","3","3","5","4","5","6","4","6","5","5","6","5","8","3","6","5","5","5","4","2","5","5","5","7","5","4","6","4","5","6","4","5","6","4","4","5","3","4","5","6","3","6","5","6","6","5","5","6","3","6","5","5","4","6","775105837449613314","赵","651","Female","[""好我"",""好她"",""坏她"",""坏我""]","[""强我"",""强她"",""弱她"",""弱我""]","","","","","","","","yes","","","","","","","","","SRET","EW_formal","","key","j","16.66600000000029","720","446","朋友","全才","Positive","ability","","","","","","","","","","",""
"698","","f","psychophysics","64","277730","0.0-7.0-3.0-0.50","4","5","5","4","3","4","4","5","3","4","4","0","1","-1","0","0","1","1","0","4","5","4","4","4","3","3","3","5","4","5","6","4","6","5","5","6","5","8","3","6","5","5","5","4","2","5","5","5","7","5","4","6","4","5","6","4","5","6","4","4","5","3","4","5","6","3","6","5","6","6","5","5","6","3","6","5","5","4","6","775105837449613314","赵","651","Female","[""好我"",""好她"",""坏她"",""坏我""]","[""强我"",""强她"",""弱她"",""弱我""]","","","","","","","","no","","","","","","","","","SRET","EW_formal","","key","f","16.67162376237655","720","446","自己","无助","Negative","ability","","","","","","","","","","",""
"931","","j","psychophysics","65","279662","0.0-7.0-3.0-0.51","4","5","5","4","3","4","4","5","3","4","4","0","1","-1","0","0","1","1","0","4","5","4","4","4","3","3","3","5","4","5","6","4","6","5","5","6","5","8","3","6","5","5","5","4","2","5","5","5","7","5","4","6","4","5","6","4","5","6","4","4","5","3","4","5","6","3","6","5","6","6","5","5","6","3","6","5","5","4","6","775105837449613314","赵","651","Female","[""好我"",""好她"",""坏她"",""坏我""]","[""强我"",""强她"",""弱她"",""弱我""]","","","","","","","","yes","","","","","","","","","SRET","EW_formal","","key","j","16.666000000000224","720","446","自己","奉献","Positive","morality","","","","","","","","","","",""
"732","","j","psychophysics","66","281396","0.0-7.0-3.0-0.52","4","5","5","4","3","4","4","5","3","4","4","0","1","-1","0","0","1","1","0","4","5","4","4","4","3","3","3","5","4","5","6","4","6","5","5","6","5","8","3","6","5","5","5","4","2","5","5","5","7","5","4","6","4","5","6","4","5","6","4","4","5","3","4","5","6","3","6","5","6","6","5","5","6","3","6","5","5","4","6","775105837449613314","赵","651","Female","[""好我"",""好她"",""坏她"",""坏我""]","[""强我"",""强她"",""弱她"",""弱我""]","","","","","","","","yes","","","","","","","","","SRET","EW_formal","","key","j","16.665999999999983","720","446","自己","屈才","Negative","ability","","","","","","","","","","",""
"990","","f","psychophysics","67","283389","0.0-7.0-3.0-0.53","4","5","5","4","3","4","4","5","3","4","4","0","1","-1","0","0","1","1","0","4","5","4","4","4","3","3","3","5","4","5","6","4","6","5","5","6","5","8","3","6","5","5","5","4","2","5","5","5","7","5","4","6","4","5","6","4","5","6","4","4","5","3","4","5","6","3","6","5","6","6","5","5","6","3","6","5","5","4","6","775105837449613314","赵","651","Female","[""好我"",""好她"",""坏她"",""坏我""]","[""强我"",""强她"",""弱她"",""弱我""]","","","","","","","","no","","","","","","","","","SRET","EW_formal","","key","f","16.665999999999904","720","446","自己","迂拙","Negative","ability","","","","","","","","","","",""
"855","","f","psychophysics","68","285258","0.0-7.0-3.0-0.54","4","5","5","4","3","4","4","5","3","4","4","0","1","-1","0","0","1","1","0","4","5","4","4","4","3","3","3","5","4","5","6","4","6","5","5","6","5","8","3","6","5","5","5","4","2","5","5","5","7","5","4","6","4","5","6","4","5","6","4","4","5","3","4","5","6","3","6","5","6","6","5","5","6","3","6","5","5","4","6","775105837449613314","赵","651","Female","[""好我"",""好她"",""坏她"",""坏我""]","[""强我"",""强她"",""弱她"",""弱我""]","","","","","","","","no","","","","","","","","","SRET","EW_formal","","key","f","16.665999999999798","720","446","朋友","无赖","Negative","morality","","","","","","","","","","",""
"1960","","j","psychophysics","69","288220","0.0-7.0-3.0-0.55","4","5","5","4","3","4","4","5","3","4","4","0","1","-1","0","0","1","1","0","4","5","4","4","4","3","3","3","5","4","5","6","4","6","5","5","6","5","8","3","6","5","5","5","4","2","5","5","5","7","5","4","6","4","5","6","4","5","6","4","4","5","3","4","5","6","3","6","5","6","6","5","5","6","3","6","5","5","4","6","775105837449613314","赵","651","Female","[""好我"",""好她"",""坏她"",""坏我""]","[""强我"",""强她"",""弱她"",""弱我""]","","","","","","","","yes","","","","","","","","","SRET","EW_formal","","key","j","16.66920903954809","720","446","朋友","果断","Positive","ability","","","","","","","","","","",""
"852","","f","psychophysics","70","290074","0.0-7.0-3.0-0.56","4","5","5","4","3","4","4","5","3","4","4","0","1","-1","0","0","1","1","0","4","5","4","4","4","3","3","3","5","4","5","6","4","6","5","5","6","5","8","3","6","5","5","5","4","2","5","5","5","7","5","4","6","4","5","6","4","5","6","4","4","5","3","4","5","6","3","6","5","6","6","5","5","6","3","6","5","5","4","6","775105837449613314","赵","651","Female","[""好我"",""好她"",""坏她"",""坏我""]","[""强我"",""强她"",""弱她"",""弱我""]","","","","","","","","no","","","","","","","","","SRET","EW_formal","","key","f","16.665999999999798","720","446","朋友","势利","Negative","morality","","","","","","","","","","",""
"663","","f","psychophysics","71","291739","0.0-7.0-3.0-0.57","4","5","5","4","3","4","4","5","3","4","4","0","1","-1","0","0","1","1","0","4","5","4","4","4","3","3","3","5","4","5","6","4","6","5","5","6","5","8","3","6","5","5","5","4","2","5","5","5","7","5","4","6","4","5","6","4","5","6","4","4","5","3","4","5","6","3","6","5","6","6","5","5","6","3","6","5","5","4","6","775105837449613314","赵","651","Female","[""好我"",""好她"",""坏她"",""坏我""]","[""强我"",""强她"",""弱她"",""弱我""]","","","","","","","","no","","","","","","","","","SRET","EW_formal","","key","f","16.665999999999816","720","446","自己","贪污","Negative","morality","","","","","","","","","","",""
"666","","f","psychophysics","72","293407","0.0-7.0-3.0-0.58","4","5","5","4","3","4","4","5","3","4","4","0","1","-1","0","0","1","1","0","4","5","4","4","4","3","3","3","5","4","5","6","4","6","5","5","6","5","8","3","6","5","5","5","4","2","5","5","5","7","5","4","6","4","5","6","4","5","6","4","4","5","3","4","5","6","3","6","5","6","6","5","5","6","3","6","5","5","4","6","775105837449613314","赵","651","Female","[""好我"",""好她"",""坏她"",""坏我""]","[""强我"",""强她"",""弱她"",""弱我""]","","","","","","","","no","","","","","","","","","SRET","EW_formal","","key","f","16.665999999999766","720","446","自己","恶劣","Negative","morality","","","","","","","","","","",""
"637","","f","psychophysics","73","295046","0.0-7.0-3.0-0.59","4","5","5","4","3","4","4","5","3","4","4","0","1","-1","0","0","1","1","0","4","5","4","4","4","3","3","3","5","4","5","6","4","6","5","5","6","5","8","3","6","5","5","5","4","2","5","5","5","7","5","4","6","4","5","6","4","5","6","4","4","5","3","4","5","6","3","6","5","6","6","5","5","6","3","6","5","5","4","6","775105837449613314","赵","651","Female","[""好我"",""好她"",""坏她"",""坏我""]","[""强我"",""强她"",""弱她"",""弱我""]","","","","","","","","no","","","","","","","","","SRET","EW_formal","","key","f","16.66599999999954","720","446","自己","卑鄙","Negative","morality","","","","","","","","","","",""
"815","","f","psychophysics","74","296864","0.0-7.0-3.0-0.60","4","5","5","4","3","4","4","5","3","4","4","0","1","-1","0","0","1","1","0","4","5","4","4","4","3","3","3","5","4","5","6","4","6","5","5","6","5","8","3","6","5","5","5","4","2","5","5","5","7","5","4","6","4","5","6","4","5","6","4","4","5","3","4","5","6","3","6","5","6","6","5","5","6","3","6","5","5","4","6","775105837449613314","赵","651","Female","[""好我"",""好她"",""坏她"",""坏我""]","[""强我"",""强她"",""弱她"",""弱我""]","","","","","","","","no","","","","","","","","","SRET","EW_formal","","key","f","16.671259259259116","720","446","自己","小人","Negative","morality","","","","","","","","","","",""
"749","","j","psychophysics","75","298616","0.0-7.0-3.0-0.61","4","5","5","4","3","4","4","5","3","4","4","0","1","-1","0","0","1","1","0","4","5","4","4","4","3","3","3","5","4","5","6","4","6","5","5","6","5","8","3","6","5","5","5","4","2","5","5","5","7","5","4","6","4","5","6","4","5","6","4","4","5","3","4","5","6","3","6","5","6","6","5","5","6","3","6","5","5","4","6","775105837449613314","赵","651","Female","[""好我"",""好她"",""坏她"",""坏我""]","[""强我"",""强她"",""弱她"",""弱我""]","","","","","","","","yes","","","","","","","","","SRET","EW_formal","","key","j","16.665999999999677","720","446","朋友","肯干","Positive","ability","","","","","","","","","","",""
"857","","f","psychophysics","76","300475","0.0-7.0-3.0-0.62","4","5","5","4","3","4","4","5","3","4","4","0","1","-1","0","0","1","1","0","4","5","4","4","4","3","3","3","5","4","5","6","4","6","5","5","6","5","8","3","6","5","5","5","4","2","5","5","5","7","5","4","6","4","5","6","4","5","6","4","4","5","3","4","5","6","3","6","5","6","6","5","5","6","3","6","5","5","4","6","775105837449613314","赵","651","Female","[""好我"",""好她"",""坏她"",""坏我""]","[""强我"",""强她"",""弱她"",""弱我""]","","","","","","","","no","","","","","","","","","SRET","EW_formal","","key","f","16.665999999999798","720","446","朋友","自私","Negative","morality","","","","","","","","","","",""
"718","","f","psychophysics","77","302195","0.0-7.0-3.0-0.63","4","5","5","4","3","4","4","5","3","4","4","0","1","-1","0","0","1","1","0","4","5","4","4","4","3","3","3","5","4","5","6","4","6","5","5","6","5","8","3","6","5","5","5","4","2","5","5","5","7","5","4","6","4","5","6","4","5","6","4","4","5","3","4","5","6","3","6","5","6","6","5","5","6","3","6","5","5","4","6","775105837449613314","赵","651","Female","[""好我"",""好她"",""坏她"",""坏我""]","[""强我"",""强她"",""弱她"",""弱我""]","","","","","","","","no","","","","","","","","","SRET","EW_formal","","key","f","16.665999999999723","720","446","朋友","奸诈","Negative","morality","","","","","","","","","","",""
"798","","j","psychophysics","78","303995","0.0-7.0-3.0-0.64","4","5","5","4","3","4","4","5","3","4","4","0","1","-1","0","0","1","1","0","4","5","4","4","4","3","3","3","5","4","5","6","4","6","5","5","6","5","8","3","6","5","5","5","4","2","5","5","5","7","5","4","6","4","5","6","4","5","6","4","4","5","3","4","5","6","3","6","5","6","6","5","5","6","3","6","5","5","4","6","775105837449613314","赵","651","Female","[""好我"",""好她"",""坏她"",""坏我""]","[""强我"",""强她"",""弱她"",""弱我""]","","","","","","","","yes","","","","","","","","","SRET","EW_formal","","key","j","16.665999999999887","720","446","自己","厚道","Positive","morality","","","","","","","","","","",""
"909","","f","psychophysics","79","305906","0.0-7.0-3.0-0.65","4","5","5","4","3","4","4","5","3","4","4","0","1","-1","0","0","1","1","0","4","5","4","4","4","3","3","3","5","4","5","6","4","6","5","5","6","5","8","3","6","5","5","5","4","2","5","5","5","7","5","4","6","4","5","6","4","5","6","4","4","5","3","4","5","6","3","6","5","6","6","5","5","6","3","6","5","5","4","6","775105837449613314","赵","651","Female","[""好我"",""好她"",""坏她"",""坏我""]","[""强我"",""强她"",""弱她"",""弱我""]","","","","","","","","no","","","","","","","","","SRET","EW_formal","","key","f","16.665999999999755","720","446","朋友","差生","Negative","ability","","","","","","","","","","",""
"611","","f","psychophysics","80","307521","0.0-7.0-3.0-0.66","4","5","5","4","3","4","4","5","3","4","4","0","1","-1","0","0","1","1","0","4","5","4","4","4","3","3","3","5","4","5","6","4","6","5","5","6","5","8","3","6","5","5","5","4","2","5","5","5","7","5","4","6","4","5","6","4","5","6","4","4","5","3","4","5","6","3","6","5","6","6","5","5","6","3","6","5","5","4","6","775105837449613314","赵","651","Female","[""好我"",""好她"",""坏她"",""坏我""]","[""强我"",""强她"",""弱她"",""弱我""]","","","","","","","","no","","","","","","","","","SRET","EW_formal","","key","f","16.67191666666622","720","446","朋友","伪善","Negative","morality","","","","","","","","","","",""
"1160","","j","psychophysics","81","309684","0.0-7.0-3.0-0.67","4","5","5","4","3","4","4","5","3","4","4","0","1","-1","0","0","1","1","0","4","5","4","4","4","3","3","3","5","4","5","6","4","6","5","5","6","5","8","3","6","5","5","5","4","2","5","5","5","7","5","4","6","4","5","6","4","5","6","4","4","5","3","4","5","6","3","6","5","6","6","5","5","6","3","6","5","5","4","6","775105837449613314","赵","651","Female","[""好我"",""好她"",""坏她"",""坏我""]","[""强我"",""强她"",""弱她"",""弱我""]","","","","","","","","yes","","","","","","","","","SRET","EW_formal","","key","j","16.665999999999922","720","446","朋友","毛糙","Negative","ability","","","","","","","","","","",""
"962","","j","psychophysics","82","311648","0.0-7.0-3.0-0.68","4","5","5","4","3","4","4","5","3","4","4","0","1","-1","0","0","1","1","0","4","5","4","4","4","3","3","3","5","4","5","6","4","6","5","5","6","5","8","3","6","5","5","5","4","2","5","5","5","7","5","4","6","4","5","6","4","5","6","4","4","5","3","4","5","6","3","6","5","6","6","5","5","6","3","6","5","5","4","6","775105837449613314","赵","651","Female","[""好我"",""好她"",""坏她"",""坏我""]","[""强我"",""强她"",""弱她"",""弱我""]","","","","","","","","yes","","","","","","","","","SRET","EW_formal","","key","j","16.665999999999677","720","446","朋友","淡泊","Positive","morality","","","","","","","","","","",""
"813","","f","psychophysics","83","313463","0.0-7.0-3.0-0.69","4","5","5","4","3","4","4","5","3","4","4","0","1","-1","0","0","1","1","0","4","5","4","4","4","3","3","3","5","4","5","6","4","6","5","5","6","5","8","3","6","5","5","5","4","2","5","5","5","7","5","4","6","4","5","6","4","5","6","4","4","5","3","4","5","6","3","6","5","6","6","5","5","6","3","6","5","5","4","6","775105837449613314","赵","651","Female","[""好我"",""好她"",""坏她"",""坏我""]","[""强我"",""强她"",""弱她"",""弱我""]","","","","","","","","no","","","","","","","","","SRET","EW_formal","","key","f","16.665999999999595","720","446","自己","才尽","Negative","ability","","","","","","","","","","",""
"687","","j","psychophysics","84","315152","0.0-7.0-3.0-0.70","4","5","5","4","3","4","4","5","3","4","4","0","1","-1","0","0","1","1","0","4","5","4","4","4","3","3","3","5","4","5","6","4","6","5","5","6","5","8","3","6","5","5","5","4","2","5","5","5","7","5","4","6","4","5","6","4","5","6","4","4","5","3","4","5","6","3","6","5","6","6","5","5","6","3","6","5","5","4","6","775105837449613314","赵","651","Female","[""好我"",""好她"",""坏她"",""坏我""]","[""强我"",""强她"",""弱她"",""弱我""]","","","","","","","","yes","","","","","","","","","SRET","EW_formal","","key","j","16.665999999999766","720","446","朋友","懂行","Positive","ability","","","","","","","","","","",""
"1483","","f","psychophysics","85","317638","0.0-7.0-3.0-0.71","4","5","5","4","3","4","4","5","3","4","4","0","1","-1","0","0","1","1","0","4","5","4","4","4","3","3","3","5","4","5","6","4","6","5","5","6","5","8","3","6","5","5","5","4","2","5","5","5","7","5","4","6","4","5","6","4","5","6","4","4","5","3","4","5","6","3","6","5","6","6","5","5","6","3","6","5","5","4","6","775105837449613314","赵","651","Female","[""好我"",""好她"",""坏她"",""坏我""]","[""强我"",""强她"",""弱她"",""弱我""]","","","","","","","","no","","","","","","","","","SRET","EW_formal","","key","f","16.66983783783783","720","446","自己","刻薄","Negative","morality","","","","","","","","","","",""
"908","","j","psychophysics","86","319548","0.0-7.0-3.0-0.72","4","5","5","4","3","4","4","5","3","4","4","0","1","-1","0","0","1","1","0","4","5","4","4","4","3","3","3","5","4","5","6","4","6","5","5","6","5","8","3","6","5","5","5","4","2","5","5","5","7","5","4","6","4","5","6","4","5","6","4","4","5","3","4","5","6","3","6","5","6","6","5","5","6","3","6","5","5","4","6","775105837449613314","赵","651","Female","[""好我"",""好她"",""坏她"",""坏我""]","[""强我"",""强她"",""弱她"",""弱我""]","","","","","","","","yes","","","","","","","","","SRET","EW_formal","","key","j","16.665999999999993","720","446","自己","高洁","Positive","morality","","","","","","","","","","",""
"704","","j","psychophysics","87","321255","0.0-7.0-3.0-0.73","4","5","5","4","3","4","4","5","3","4","4","0","1","-1","0","0","1","1","0","4","5","4","4","4","3","3","3","5","4","5","6","4","6","5","5","6","5","8","3","6","5","5","5","4","2","5","5","5","7","5","4","6","4","5","6","4","5","6","4","4","5","3","4","5","6","3","6","5","6","6","5","5","6","3","6","5","5","4","6","775105837449613314","赵","651","Female","[""好我"",""好她"",""坏她"",""坏我""]","[""强我"",""强她"",""弱她"",""弱我""]","","","","","","","","yes","","","","","","","","","SRET","EW_formal","","key","j","16.666000000000032","720","446","自己","无敌","Positive","ability","","","","","","","","","","",""
"758","","j","psychophysics","88","323015","0.0-7.0-3.0-0.74","4","5","5","4","3","4","4","5","3","4","4","0","1","-1","0","0","1","1","0","4","5","4","4","4","3","3","3","5","4","5","6","4","6","5","5","6","5","8","3","6","5","5","5","4","2","5","5","5","7","5","4","6","4","5","6","4","5","6","4","4","5","3","4","5","6","3","6","5","6","6","5","5","6","3","6","5","5","4","6","775105837449613314","赵","651","Female","[""好我"",""好她"",""坏她"",""坏我""]","[""强我"",""强她"",""弱她"",""弱我""]","","","","","","","","yes","","","","","","","","","SRET","EW_formal","","key","j","16.665999999999933","720","446","朋友","善良","Positive","morality","","","","","","","","","","",""
"746","","j","psychophysics","89","324764","0.0-7.0-3.0-0.75","4","5","5","4","3","4","4","5","3","4","4","0","1","-1","0","0","1","1","0","4","5","4","4","4","3","3","3","5","4","5","6","4","6","5","5","6","5","8","3","6","5","5","5","4","2","5","5","5","7","5","4","6","4","5","6","4","5","6","4","4","5","3","4","5","6","3","6","5","6","6","5","5","6","3","6","5","5","4","6","775105837449613314","赵","651","Female","[""好我"",""好她"",""坏她"",""坏我""]","[""强我"",""强她"",""弱她"",""弱我""]","","","","","","","","yes","","","","","","","","","SRET","EW_formal","","key","j","16.66600000000024","720","446","自己","正气","Positive","morality","","","","","","","","","","",""
"null","","null","psychophysics","90","327779","0.0-7.0-3.0-0.76","4","5","5","4","3","4","4","5","3","4","4","0","1","-1","0","0","1","1","0","4","5","4","4","4","3","3","3","5","4","5","6","4","6","5","5","6","5","8","3","6","5","5","5","4","2","5","5","5","7","5","4","6","4","5","6","4","5","6","4","4","5","3","4","5","6","3","6","5","6","6","5","5","6","3","6","5","5","4","6","775105837449613314","赵","651","Female","[""好我"",""好她"",""坏她"",""坏我""]","[""强我"",""强她"",""弱她"",""弱我""]","","","","","","","","","","","","","","","","","SRET","EW_formal","","key","null","16.66915555555574","720","446","自己","废物","Negative","ability","","","","","","","","","","",""
"878","","f","psychophysics","91","329659","0.0-7.0-3.0-0.77","4","5","5","4","3","4","4","5","3","4","4","0","1","-1","0","0","1","1","0","4","5","4","4","4","3","3","3","5","4","5","6","4","6","5","5","6","5","8","3","6","5","5","5","4","2","5","5","5","7","5","4","6","4","5","6","4","5","6","4","4","5","3","4","5","6","3","6","5","6","6","5","5","6","3","6","5","5","4","6","775105837449613314","赵","651","Female","[""好我"",""好她"",""坏她"",""坏我""]","[""强我"",""强她"",""弱她"",""弱我""]","","","","","","","","no","","","","","","","","","SRET","EW_formal","","key","f","16.666000000000036","720","446","自己","不良","Negative","morality","","","","","","","","","","",""
"1071","","j","psychophysics","92","331731","0.0-7.0-3.0-0.78","4","5","5","4","3","4","4","5","3","4","4","0","1","-1","0","0","1","1","0","4","5","4","4","4","3","3","3","5","4","5","6","4","6","5","5","6","5","8","3","6","5","5","5","4","2","5","5","5","7","5","4","6","4","5","6","4","5","6","4","4","5","3","4","5","6","3","6","5","6","6","5","5","6","3","6","5","5","4","6","775105837449613314","赵","651","Female","[""好我"",""好她"",""坏她"",""坏我""]","[""强我"",""强她"",""弱她"",""弱我""]","","","","","","","","yes","","","","","","","","","SRET","EW_formal","","key","j","16.666000000000043","720","446","朋友","善心","Positive","morality","","","","","","","","","","",""
"582","","j","psychophysics","93","333315","0.0-7.0-3.0-0.79","4","5","5","4","3","4","4","5","3","4","4","0","1","-1","0","0","1","1","0","4","5","4","4","4","3","3","3","5","4","5","6","4","6","5","5","6","5","8","3","6","5","5","5","4","2","5","5","5","7","5","4","6","4","5","6","4","5","6","4","4","5","3","4","5","6","3","6","5","6","6","5","5","6","3","6","5","5","4","6","775105837449613314","赵","651","Female","[""好我"",""好她"",""坏她"",""坏我""]","[""强我"",""强她"",""弱她"",""弱我""]","","","","","","","","yes","","","","","","","","","SRET","EW_formal","","key","j","16.665999999999915","720","446","朋友","能干","Positive","ability","","","","","","","","","","",""
"914","","j","psychophysics","94","335231","0.0-7.0-3.0-0.80","4","5","5","4","3","4","4","5","3","4","4","0","1","-1","0","0","1","1","0","4","5","4","4","4","3","3","3","5","4","5","6","4","6","5","5","6","5","8","3","6","5","5","5","4","2","5","5","5","7","5","4","6","4","5","6","4","5","6","4","4","5","3","4","5","6","3","6","5","6","6","5","5","6","3","6","5","5","4","6","775105837449613314","赵","651","Female","[""好我"",""好她"",""坏她"",""坏我""]","[""强我"",""强她"",""弱她"",""弱我""]","","","","","","","","yes","","","","","","","","","SRET","EW_formal","","key","j","16.665999999999993","720","446","自己","顶事","Positive","ability","","","","","","","","","","",""
"1032","","f","psychophysics","95","337265","0.0-7.0-3.0-0.81","4","5","5","4","3","4","4","5","3","4","4","0","1","-1","0","0","1","1","0","4","5","4","4","4","3","3","3","5","4","5","6","4","6","5","5","6","5","8","3","6","5","5","5","4","2","5","5","5","7","5","4","6","4","5","6","4","5","6","4","4","5","3","4","5","6","3","6","5","6","6","5","5","6","3","6","5","5","4","6","775105837449613314","赵","651","Female","[""好我"",""好她"",""坏她"",""坏我""]","[""强我"",""强她"",""弱她"",""弱我""]","","","","","","","","no","","","","","","","","","SRET","EW_formal","","key","f","16.670694214876352","720","446","自己","慷慨","Positive","morality","","","","","","","","","","",""
"715","","j","psychophysics","96","338982","0.0-7.0-3.0-0.82","4","5","5","4","3","4","4","5","3","4","4","0","1","-1","0","0","1","1","0","4","5","4","4","4","3","3","3","5","4","5","6","4","6","5","5","6","5","8","3","6","5","5","5","4","2","5","5","5","7","5","4","6","4","5","6","4","5","6","4","4","5","3","4","5","6","3","6","5","6","6","5","5","6","3","6","5","5","4","6","775105837449613314","赵","651","Female","[""好我"",""好她"",""坏她"",""坏我""]","[""强我"",""强她"",""弱她"",""弱我""]","","","","","","","","yes","","","","","","","","","SRET","EW_formal","","key","j","16.66600000000029","720","446","自己","仁爱","Positive","morality","","","","","","","","","","",""
"758","","j","psychophysics","97","340743","0.0-7.0-3.0-0.83","4","5","5","4","3","4","4","5","3","4","4","0","1","-1","0","0","1","1","0","4","5","4","4","4","3","3","3","5","4","5","6","4","6","5","5","6","5","8","3","6","5","5","5","4","2","5","5","5","7","5","4","6","4","5","6","4","5","6","4","4","5","3","4","5","6","3","6","5","6","6","5","5","6","3","6","5","5","4","6","775105837449613314","赵","651","Female","[""好我"",""好她"",""坏她"",""坏我""]","[""强我"",""强她"",""弱她"",""弱我""]","","","","","","","","yes","","","","","","","","","SRET","EW_formal","","key","j","16.666000000000487","720","446","朋友","独立","Positive","ability","","","","","","","","","","",""
"804","","f","psychophysics","98","342549","0.0-7.0-3.0-0.84","4","5","5","4","3","4","4","5","3","4","4","0","1","-1","0","0","1","1","0","4","5","4","4","4","3","3","3","5","4","5","6","4","6","5","5","6","5","8","3","6","5","5","5","4","2","5","5","5","7","5","4","6","4","5","6","4","5","6","4","4","5","3","4","5","6","3","6","5","6","6","5","5","6","3","6","5","5","4","6","775105837449613314","赵","651","Female","[""好我"",""好她"",""坏她"",""坏我""]","[""强我"",""强她"",""弱她"",""弱我""]","","","","","","","","no","","","","","","","","","SRET","EW_formal","","key","f","16.665999999999887","720","446","朋友","低俗","Negative","morality","","","","","","","","","","",""
"685","","j","psychophysics","99","344237","0.0-7.0-3.0-0.85","4","5","5","4","3","4","4","5","3","4","4","0","1","-1","0","0","1","1","0","4","5","4","4","4","3","3","3","5","4","5","6","4","6","5","5","6","5","8","3","6","5","5","5","4","2","5","5","5","7","5","4","6","4","5","6","4","5","6","4","4","5","3","4","5","6","3","6","5","6","6","5","5","6","3","6","5","5","4","6","775105837449613314","赵","651","Female","[""好我"",""好她"",""坏她"",""坏我""]","[""强我"",""强她"",""弱她"",""弱我""]","","","","","","","","yes","","","","","","","","","SRET","EW_formal","","key","j","16.665999999999766","720","446","自己","主见","Positive","ability","","","","","","","","","","",""
"810","","j","psychophysics","100","346048","0.0-7.0-3.0-0.86","4","5","5","4","3","4","4","5","3","4","4","0","1","-1","0","0","1","1","0","4","5","4","4","4","3","3","3","5","4","5","6","4","6","5","5","6","5","8","3","6","5","5","5","4","2","5","5","5","7","5","4","6","4","5","6","4","5","6","4","4","5","3","4","5","6","3","6","5","6","6","5","5","6","3","6","5","5","4","6","775105837449613314","赵","651","Female","[""好我"",""好她"",""坏她"",""坏我""]","[""强我"",""强她"",""弱她"",""弱我""]","","","","","","","","yes","","","","","","","","","SRET","EW_formal","","key","j","16.666000000000135","720","446","朋友","素养","Positive","morality","","","","","","","","","","",""
"1119","","j","psychophysics","101","348170","0.0-7.0-3.0-0.87","4","5","5","4","3","4","4","5","3","4","4","0","1","-1","0","0","1","1","0","4","5","4","4","4","3","3","3","5","4","5","6","4","6","5","5","6","5","8","3","6","5","5","5","4","2","5","5","5","7","5","4","6","4","5","6","4","5","6","4","4","5","3","4","5","6","3","6","5","6","6","5","5","6","3","6","5","5","4","6","775105837449613314","赵","651","Female","[""好我"",""好她"",""坏她"",""坏我""]","[""强我"",""强她"",""弱她"",""弱我""]","","","","","","","","yes","","","","","","","","","SRET","EW_formal","","key","j","16.67050793650791","720","446","自己","缓慢","Negative","ability","","","","","","","","","","",""
"21562","
    <p><div style='color:white;font-size:35px; line-height:20px;'>计算任务</div></p><br>
    <p><div style='color:red;font-size:25px; line-height:20px;'>接下来，您将看到一些四则运算题，<b>请从键盘选择 0-9 进行反应。</b></div></p>
    <p><div style='color:red;font-size:25px; line-height:20px;'>请尽可能快地进行计算，计算的速度和正确率将影响报酬的发放。</div></p>
    <p><div class='footer' style='color:white;font-size:25px; line-height:20px;'>如果对本实验还有不清楚之处，请立即向实验员咨询。</p><p style='color:white;font-size:25px; line-height:20px;'>如果您明白了规则：</p><p style='color:white;font-size:22px; line-height:20px;'>请按 继续 进入练习</p>
    </div>
    ","0","html-button-response","102","369735","0.0-7.0-4.0","4","5","5","4","3","4","4","5","3","4","4","0","1","-1","0","0","1","1","0","4","5","4","4","4","3","3","3","5","4","5","6","4","6","5","5","6","5","8","3","6","5","5","5","4","2","5","5","5","7","5","4","6","4","5","6","4","5","6","4","4","5","3","4","5","6","3","6","5","6","6","5","5","6","3","6","5","5","4","6","775105837449613314","赵","651","Female","[""好我"",""好她"",""坏她"",""坏我""]","[""强我"",""强她"",""弱她"",""弱我""]","","","","","","","","","","","","","","","","","SRET_math","math_instructions","Wed Jan 10 2024 17:02:02 GMT+0800 (中国标准时间)","","","","","","","","","","","","","","","","","","","",""
"2325","","4","psychophysics","103","372065","0.0-7.0-5.0-0.0","4","5","5","4","3","4","4","5","3","4","4","0","1","-1","0","0","1","1","0","4","5","4","4","4","3","3","3","5","4","5","6","4","6","5","5","6","5","8","3","6","5","5","5","4","2","5","5","5","7","5","4","6","4","5","6","4","5","6","4","4","5","3","4","5","6","3","6","5","6","6","5","5","6","3","6","5","5","4","6","775105837449613314","赵","651","Female","[""好我"",""好她"",""坏她"",""坏我""]","[""强我"",""强她"",""弱她"",""弱我""]","","","","","","","","4","","","","","","","","","SRET","SRET_math_calculate","","key","4","16.665999999999933","720","446","","","","","8-4= ?","4","1","","","","","","","",""
"2323","","7","psychophysics","104","374402","0.0-7.0-5.0-0.1","4","5","5","4","3","4","4","5","3","4","4","0","1","-1","0","0","1","1","0","4","5","4","4","4","3","3","3","5","4","5","6","4","6","5","5","6","5","8","3","6","5","5","5","4","2","5","5","5","7","5","4","6","4","5","6","4","5","6","4","4","5","3","4","5","6","3","6","5","6","6","5","5","6","3","6","5","5","4","6","775105837449613314","赵","651","Female","[""好我"",""好她"",""坏她"",""坏我""]","[""强我"",""强她"",""弱她"",""弱我""]","","","","","","","","7","","","","","","","","","SRET","SRET_math_calculate","","key","7","16.66599999999974","720","446","","","","","2+5= ?","7","1","","","","","","","",""
"3648","","8","psychophysics","105","378052","0.0-7.0-5.0-0.2","4","5","5","4","3","4","4","5","3","4","4","0","1","-1","0","0","1","1","0","4","5","4","4","4","3","3","3","5","4","5","6","4","6","5","5","6","5","8","3","6","5","5","5","4","2","5","5","5","7","5","4","6","4","5","6","4","5","6","4","4","5","3","4","5","6","3","6","5","6","6","5","5","6","3","6","5","5","4","6","775105837449613314","赵","651","Female","[""好我"",""好她"",""坏她"",""坏我""]","[""强我"",""强她"",""弱她"",""弱我""]","","","","","","","","8","","","","","","","","","SRET","SRET_math_calculate","","key","8","16.66600000000011","720","446","","","","","72/9= ?","8","1","","","","","","","",""
"2185","","6","psychophysics","106","380251","0.0-7.0-5.0-0.3","4","5","5","4","3","4","4","5","3","4","4","0","1","-1","0","0","1","1","0","4","5","4","4","4","3","3","3","5","4","5","6","4","6","5","5","6","5","8","3","6","5","5","5","4","2","5","5","5","7","5","4","6","4","5","6","4","5","6","4","4","5","3","4","5","6","3","6","5","6","6","5","5","6","3","6","5","5","4","6","775105837449613314","赵","651","Female","[""好我"",""好她"",""坏她"",""坏我""]","[""强我"",""强她"",""弱她"",""弱我""]","","","","","","","","6","","","","","","","","","SRET","SRET_math_calculate","","key","6","16.670335877862694","720","446","","","","","3*2= ?","6","1","","","","","","","",""
"2461","","0","psychophysics","107","382715","0.0-7.0-5.0-0.4","4","5","5","4","3","4","4","5","3","4","4","0","1","-1","0","0","1","1","0","4","5","4","4","4","3","3","3","5","4","5","6","4","6","5","5","6","5","8","3","6","5","5","5","4","2","5","5","5","7","5","4","6","4","5","6","4","5","6","4","4","5","3","4","5","6","3","6","5","6","6","5","5","6","3","6","5","5","4","6","775105837449613314","赵","651","Female","[""好我"",""好她"",""坏她"",""坏我""]","[""强我"",""强她"",""弱她"",""弱我""]","","","","","","","","0","","","","","","","","","SRET","SRET_math_calculate","","key","0","16.66600000000001","720","446","","","","","5*0= ?","0","1","","","","","","","",""
"2764","","2","psychophysics","108","385493","0.0-7.0-5.0-0.5","4","5","5","4","3","4","4","5","3","4","4","0","1","-1","0","0","1","1","0","4","5","4","4","4","3","3","3","5","4","5","6","4","6","5","5","6","5","8","3","6","5","5","5","4","2","5","5","5","7","5","4","6","4","5","6","4","5","6","4","4","5","3","4","5","6","3","6","5","6","6","5","5","6","3","6","5","5","4","6","775105837449613314","赵","651","Female","[""好我"",""好她"",""坏她"",""坏我""]","[""强我"",""强她"",""弱她"",""弱我""]","","","","","","","","2","","","","","","","","","SRET","SRET_math_calculate","","key","2","16.665999999999894","720","446","","","","","22/11= ?","2","1","","","","","","","",""
"2703","","9","psychophysics","109","388198","0.0-7.0-5.0-0.6","4","5","5","4","3","4","4","5","3","4","4","0","1","-1","0","0","1","1","0","4","5","4","4","4","3","3","3","5","4","5","6","4","6","5","5","6","5","8","3","6","5","5","5","4","2","5","5","5","7","5","4","6","4","5","6","4","5","6","4","4","5","3","4","5","6","3","6","5","6","6","5","5","6","3","6","5","5","4","6","775105837449613314","赵","651","Female","[""好我"",""好她"",""坏她"",""坏我""]","[""强我"",""强她"",""弱她"",""弱我""]","","","","","","","","9","","","","","","","","","SRET","SRET_math_calculate","","key","9","16.665999999999787","720","446","","","","","8+1= ?","9","1","","","","","","","",""
"2041","","5","psychophysics","110","390242","0.0-7.0-5.0-0.7","4","5","5","4","3","4","4","5","3","4","4","0","1","-1","0","0","1","1","0","4","5","4","4","4","3","3","3","5","4","5","6","4","6","5","5","6","5","8","3","6","5","5","5","4","2","5","5","5","7","5","4","6","4","5","6","4","5","6","4","4","5","3","4","5","6","3","6","5","6","6","5","5","6","3","6","5","5","4","6","775105837449613314","赵","651","Female","[""好我"",""好她"",""坏她"",""坏我""]","[""强我"",""强她"",""弱她"",""弱我""]","","","","","","","","5","","","","","","","","","SRET","SRET_math_calculate","","key","5","16.670694214875873","720","446","","","","","3+2= ?","5","1","","","","","","","",""
"2592","","3","psychophysics","111","392850","0.0-7.0-5.0-0.8","4","5","5","4","3","4","4","5","3","4","4","0","1","-1","0","0","1","1","0","4","5","4","4","4","3","3","3","5","4","5","6","4","6","5","5","6","5","8","3","6","5","5","5","4","2","5","5","5","7","5","4","6","4","5","6","4","5","6","4","4","5","3","4","5","6","3","6","5","6","6","5","5","6","3","6","5","5","4","6","775105837449613314","赵","651","Female","[""好我"",""好她"",""坏她"",""坏我""]","[""强我"",""强她"",""弱她"",""弱我""]","","","","","","","","3","","","","","","","","","SRET","SRET_math_calculate","","key","3","16.66600000000005","720","446","","","","","12/4= ?","3","1","","","","","","","",""
"4426","","8","psychophysics","112","397291","0.0-7.0-5.0-0.9","4","5","5","4","3","4","4","5","3","4","4","0","1","-1","0","0","1","1","0","4","5","4","4","4","3","3","3","5","4","5","6","4","6","5","5","6","5","8","3","6","5","5","5","4","2","5","5","5","7","5","4","6","4","5","6","4","5","6","4","4","5","3","4","5","6","3","6","5","6","6","5","5","6","3","6","5","5","4","6","775105837449613314","赵","651","Female","[""好我"",""好她"",""坏她"",""坏我""]","[""强我"",""强她"",""弱她"",""弱我""]","","","","","","","","8","","","","","","","","","SRET","SRET_math_calculate","","key","8","16.665999999999965","720","446","","","","","11-3= ?","8","1","","","","","","","",""
"2605","","6","psychophysics","113","399901","0.0-7.0-5.0-0.10","4","5","5","4","3","4","4","5","3","4","4","0","1","-1","0","0","1","1","0","4","5","4","4","4","3","3","3","5","4","5","6","4","6","5","5","6","5","8","3","6","5","5","5","4","2","5","5","5","7","5","4","6","4","5","6","4","5","6","4","4","5","3","4","5","6","3","6","5","6","6","5","5","6","3","6","5","5","4","6","775105837449613314","赵","651","Female","[""好我"",""好她"",""坏她"",""坏我""]","[""强我"",""强她"",""弱她"",""弱我""]","","","","","","","","6","","","","","","","","","SRET","SRET_math_calculate","","key","6","16.669641025640885","720","446","","","","","8-2= ?","6","1","","","","","","","",""
"2781","","3","psychophysics","114","402685","0.0-7.0-5.0-0.11","4","5","5","4","3","4","4","5","3","4","4","0","1","-1","0","0","1","1","0","4","5","4","4","4","3","3","3","5","4","5","6","4","6","5","5","6","5","8","3","6","5","5","5","4","2","5","5","5","7","5","4","6","4","5","6","4","5","6","4","4","5","3","4","5","6","3","6","5","6","6","5","5","6","3","6","5","5","4","6","775105837449613314","赵","651","Female","[""好我"",""好她"",""坏她"",""坏我""]","[""强我"",""强她"",""弱她"",""弱我""]","","","","","","","","3","","","","","","","","","SRET","SRET_math_calculate","","key","3","16.665999999999894","720","446","","","","","90/45= ?","2","0","","","","","","","",""
"2445","","8","psychophysics","115","405145","0.0-7.0-5.0-0.12","4","5","5","4","3","4","4","5","3","4","4","0","1","-1","0","0","1","1","0","4","5","4","4","4","3","3","3","5","4","5","6","4","6","5","5","6","5","8","3","6","5","5","5","4","2","5","5","5","7","5","4","6","4","5","6","4","5","6","4","4","5","3","4","5","6","3","6","5","6","6","5","5","6","3","6","5","5","4","6","775105837449613314","赵","651","Female","[""好我"",""好她"",""坏她"",""坏我""]","[""强我"",""强她"",""弱她"",""弱我""]","","","","","","","","8","","","","","","","","","SRET","SRET_math_calculate","","key","8","16.66600000000001","720","446","","","","","3+5= ?","8","1","","","","","","","",""
"3328","","5","psychophysics","116","408477","0.0-7.0-5.0-0.13","4","5","5","4","3","4","4","5","3","4","4","0","1","-1","0","0","1","1","0","4","5","4","4","4","3","3","3","5","4","5","6","4","6","5","5","6","5","8","3","6","5","5","5","4","2","5","5","5","7","5","4","6","4","5","6","4","5","6","4","4","5","3","4","5","6","3","6","5","6","6","5","5","6","3","6","5","5","4","6","775105837449613314","赵","651","Female","[""好我"",""好她"",""坏她"",""坏我""]","[""强我"",""强她"",""弱她"",""弱我""]","","","","","","","","5","","","","","","","","","SRET","SRET_math_calculate","","key","5","16.666000000000086","720","446","","","","","16-11= ?","5","1","","","","","","","",""
"2174","","7","psychophysics","117","410667","0.0-7.0-5.0-0.14","4","5","5","4","3","4","4","5","3","4","4","0","1","-1","0","0","1","1","0","4","5","4","4","4","3","3","3","5","4","5","6","4","6","5","5","6","5","8","3","6","5","5","5","4","2","5","5","5","7","5","4","6","4","5","6","4","5","6","4","4","5","3","4","5","6","3","6","5","6","6","5","5","6","3","6","5","5","4","6","775105837449613314","赵","651","Female","[""好我"",""好她"",""坏她"",""坏我""]","[""强我"",""强她"",""弱她"",""弱我""]","","","","","","","","7","","","","","","","","","SRET","SRET_math_calculate","","key","7","16.670335877862694","720","446","","","","","3+4= ?","7","1","","","","","","","",""
"2220","","1","psychophysics","118","412891","0.0-7.0-5.0-0.15","4","5","5","4","3","4","4","5","3","4","4","0","1","-1","0","0","1","1","0","4","5","4","4","4","3","3","3","5","4","5","6","4","6","5","5","6","5","8","3","6","5","5","5","4","2","5","5","5","7","5","4","6","4","5","6","4","5","6","4","4","5","3","4","5","6","3","6","5","6","6","5","5","6","3","6","5","5","4","6","775105837449613314","赵","651","Female","[""好我"",""好她"",""坏她"",""坏我""]","[""强我"",""强她"",""弱她"",""弱我""]","","","","","","","","1","","","","","","","","","SRET","SRET_math_calculate","","key","1","16.666000000000086","720","446","","","","","9-8= ?","1","1","","","","","","","",""
"2586","","3","psychophysics","119","415493","0.0-7.0-5.0-0.16","4","5","5","4","3","4","4","5","3","4","4","0","1","-1","0","0","1","1","0","4","5","4","4","4","3","3","3","5","4","5","6","4","6","5","5","6","5","8","3","6","5","5","5","4","2","5","5","5","7","5","4","6","4","5","6","4","5","6","4","4","5","3","4","5","6","3","6","5","6","6","5","5","6","3","6","5","5","4","6","775105837449613314","赵","651","Female","[""好我"",""好她"",""坏她"",""坏我""]","[""强我"",""强她"",""弱她"",""弱我""]","","","","","","","","3","","","","","","","","","SRET","SRET_math_calculate","","key","3","16.66599999999988","720","446","","","","","21/7=  ?","3","1","","","","","","","",""
"2642","","3","psychophysics","120","418152","0.0-7.0-5.0-0.17","4","5","5","4","3","4","4","5","3","4","4","0","1","-1","0","0","1","1","0","4","5","4","4","4","3","3","3","5","4","5","6","4","6","5","5","6","5","8","3","6","5","5","5","4","2","5","5","5","7","5","4","6","4","5","6","4","5","6","4","4","5","3","4","5","6","3","6","5","6","6","5","5","6","3","6","5","5","4","6","775105837449613314","赵","651","Female","[""好我"",""好她"",""坏她"",""坏我""]","[""强我"",""强她"",""弱她"",""弱我""]","","","","","","","","3","","","","","","","","","SRET","SRET_math_calculate","","key","3","16.66599999999982","720","446","","","","","3+0= ?","3","1","","","","","","","",""
"2230","","4","psychophysics","121","420385","0.0-7.0-5.0-0.18","4","5","5","4","3","4","4","5","3","4","4","0","1","-1","0","0","1","1","0","4","5","4","4","4","3","3","3","5","4","5","6","4","6","5","5","6","5","8","3","6","5","5","5","4","2","5","5","5","7","5","4","6","4","5","6","4","5","6","4","4","5","3","4","5","6","3","6","5","6","6","5","5","6","3","6","5","5","4","6","775105837449613314","赵","651","Female","[""好我"",""好她"",""坏她"",""坏我""]","[""强我"",""强她"",""弱她"",""弱我""]","","","","","","","","4","","","","","","","","","SRET","SRET_math_calculate","","key","4","16.67027067669179","720","446","","","","","9-5= ?","4","1","","","","","","","",""
"2832","","9","psychophysics","122","423233","0.0-7.0-5.0-0.19","4","5","5","4","3","4","4","5","3","4","4","0","1","-1","0","0","1","1","0","4","5","4","4","4","3","3","3","5","4","5","6","4","6","5","5","6","5","8","3","6","5","5","5","4","2","5","5","5","7","5","4","6","4","5","6","4","5","6","4","4","5","3","4","5","6","3","6","5","6","6","5","5","6","3","6","5","5","4","6","775105837449613314","赵","651","Female","[""好我"",""好她"",""坏她"",""坏我""]","[""强我"",""强她"",""弱她"",""弱我""]","","","","","","","","9","","","","","","","","","SRET","SRET_math_calculate","","key","9","16.666000000000178","720","446","","","","","81/9= ?","9","1","","","","","","","",""
"2184","","0","psychophysics","123","425433","0.0-7.0-5.0-0.20","4","5","5","4","3","4","4","5","3","4","4","0","1","-1","0","0","1","1","0","4","5","4","4","4","3","3","3","5","4","5","6","4","6","5","5","6","5","8","3","6","5","5","5","4","2","5","5","5","7","5","4","6","4","5","6","4","5","6","4","4","5","3","4","5","6","3","6","5","6","6","5","5","6","3","6","5","5","4","6","775105837449613314","赵","651","Female","[""好我"",""好她"",""坏她"",""坏我""]","[""强我"",""强她"",""弱她"",""弱我""]","","","","","","","","0","","","","","","","","","SRET","SRET_math_calculate","","key","0","16.666000000000327","720","446","","","","","1-1= ?","0","1","","","","","","","",""
"4417","","7","psychophysics","124","429852","0.0-7.0-5.0-0.21","4","5","5","4","3","4","4","5","3","4","4","0","1","-1","0","0","1","1","0","4","5","4","4","4","3","3","3","5","4","5","6","4","6","5","5","6","5","8","3","6","5","5","5","4","2","5","5","5","7","5","4","6","4","5","6","4","5","6","4","4","5","3","4","5","6","3","6","5","6","6","5","5","6","3","6","5","5","4","6","775105837449613314","赵","651","Female","[""好我"",""好她"",""坏她"",""坏我""]","[""强我"",""强她"",""弱她"",""弱我""]","","","","","","","","7","","","","","","","","","SRET","SRET_math_calculate","","key","7","16.668151515151486","720","446","","","","","13-6= ?","7","1","","","","","","","",""
"1942","","6","psychophysics","125","431810","0.0-7.0-5.0-0.22","4","5","5","4","3","4","4","5","3","4","4","0","1","-1","0","0","1","1","0","4","5","4","4","4","3","3","3","5","4","5","6","4","6","5","5","6","5","8","3","6","5","5","5","4","2","5","5","5","7","5","4","6","4","5","6","4","5","6","4","4","5","3","4","5","6","3","6","5","6","6","5","5","6","3","6","5","5","4","6","775105837449613314","赵","651","Female","[""好我"",""好她"",""坏她"",""坏我""]","[""强我"",""强她"",""弱她"",""弱我""]","","","","","","","","6","","","","","","","","","SRET","SRET_math_calculate","","key","6","16.665999999999947","720","446","","","","","5+1= ?","6","1","","","","","","","",""
"3442","","2","psychophysics","126","435256","0.0-7.0-5.0-0.23","4","5","5","4","3","4","4","5","3","4","4","0","1","-1","0","0","1","1","0","4","5","4","4","4","3","3","3","5","4","5","6","4","6","5","5","6","5","8","3","6","5","5","5","4","2","5","5","5","7","5","4","6","4","5","6","4","5","6","4","4","5","3","4","5","6","3","6","5","6","6","5","5","6","3","6","5","5","4","6","775105837449613314","赵","651","Female","[""好我"",""好她"",""坏她"",""坏我""]","[""强我"",""强她"",""弱她"",""弱我""]","","","","","","","","2","","","","","","","","","SRET","SRET_math_calculate","","key","2","16.665999999999983","720","446","","","","","29-27= ?","2","1","","","","","","","",""
"3289","","2","psychophysics","127","438561","0.0-7.0-5.0-0.24","4","5","5","4","3","4","4","5","3","4","4","0","1","-1","0","0","1","1","0","4","5","4","4","4","3","3","3","5","4","5","6","4","6","5","5","6","5","8","3","6","5","5","5","4","2","5","5","5","7","5","4","6","4","5","6","4","5","6","4","4","5","3","4","5","6","3","6","5","6","6","5","5","6","3","6","5","5","4","6","775105837449613314","赵","651","Female","[""好我"",""好她"",""坏她"",""坏我""]","[""强我"",""强她"",""弱她"",""弱我""]","","","","","","","","2","","","","","","","","","SRET","SRET_math_calculate","","key","2","16.66599999999995","720","446","","","","","19-17= ?","2","1","","","","","","","",""
"2045","","5","psychophysics","128","440613","0.0-7.0-5.0-0.25","4","5","5","4","3","4","4","5","3","4","4","0","1","-1","0","0","1","1","0","4","5","4","4","4","3","3","3","5","4","5","6","4","6","5","5","6","5","8","3","6","5","5","5","4","2","5","5","5","7","5","4","6","4","5","6","4","5","6","4","4","5","3","4","5","6","3","6","5","6","6","5","5","6","3","6","5","5","4","6","775105837449613314","赵","651","Female","[""好我"",""好她"",""坏她"",""坏我""]","[""强我"",""强她"",""弱她"",""弱我""]","","","","","","","","5","","","","","","","","","SRET","SRET_math_calculate","","key","5","16.670655737704976","720","446","","","","","4+1= ?","5","1","","","","","","","",""
"2304","","9","psychophysics","129","442924","0.0-7.0-5.0-0.26","4","5","5","4","3","4","4","5","3","4","4","0","1","-1","0","0","1","1","0","4","5","4","4","4","3","3","3","5","4","5","6","4","6","5","5","6","5","8","3","6","5","5","5","4","2","5","5","5","7","5","4","6","4","5","6","4","5","6","4","4","5","3","4","5","6","3","6","5","6","6","5","5","6","3","6","5","5","4","6","775105837449613314","赵","651","Female","[""好我"",""好她"",""坏她"",""坏我""]","[""强我"",""强她"",""弱她"",""弱我""]","","","","","","","","9","","","","","","","","","SRET","SRET_math_calculate","","key","9","16.66599999999997","720","446","","","","","3+6= ?","9","1","","","","","","","",""
"2296","","3","psychophysics","130","445225","0.0-7.0-5.0-0.27","4","5","5","4","3","4","4","5","3","4","4","0","1","-1","0","0","1","1","0","4","5","4","4","4","3","3","3","5","4","5","6","4","6","5","5","6","5","8","3","6","5","5","5","4","2","5","5","5","7","5","4","6","4","5","6","4","5","6","4","4","5","3","4","5","6","3","6","5","6","6","5","5","6","3","6","5","5","4","6","775105837449613314","赵","651","Female","[""好我"",""好她"",""坏她"",""坏我""]","[""强我"",""强她"",""弱她"",""弱我""]","","","","","","","","3","","","","","","","","","SRET","SRET_math_calculate","","key","3","16.665999999999777","720","446","","","","","2+1= ?","3","1","","","","","","","",""
"6633","","9","psychophysics","131","451865","0.0-7.0-5.0-0.28","4","5","5","4","3","4","4","5","3","4","4","0","1","-1","0","0","1","1","0","4","5","4","4","4","3","3","3","5","4","5","6","4","6","5","5","6","5","8","3","6","5","5","5","4","2","5","5","5","7","5","4","6","4","5","6","4","5","6","4","4","5","3","4","5","6","3","6","5","6","6","5","5","6","3","6","5","5","4","6","775105837449613314","赵","651","Female","[""好我"",""好她"",""坏她"",""坏我""]","[""强我"",""强她"",""弱她"",""弱我""]","","","","","","","","9","","","","","","","","","SRET","SRET_math_calculate","","key","9","16.667430730478518","720","446","","","","","43-34= ?","9","1","","","","","","","",""
"2431","","5","psychophysics","132","454301","0.0-7.0-5.0-0.29","4","5","5","4","3","4","4","5","3","4","4","0","1","-1","0","0","1","1","0","4","5","4","4","4","3","3","3","5","4","5","6","4","6","5","5","6","5","8","3","6","5","5","5","4","2","5","5","5","7","5","4","6","4","5","6","4","5","6","4","4","5","3","4","5","6","3","6","5","6","6","5","5","6","3","6","5","5","4","6","775105837449613314","赵","651","Female","[""好我"",""好她"",""坏她"",""坏我""]","[""强我"",""强她"",""弱她"",""弱我""]","","","","","","","","5","","","","","","","","","SRET","SRET_math_calculate","","key","5","16.666000000000047","720","446","","","","","9-4= ?","5","1","","","","","","","",""
"2446","","9","psychophysics","133","456763","0.0-7.0-5.0-0.30","4","5","5","4","3","4","4","5","3","4","4","0","1","-1","0","0","1","1","0","4","5","4","4","4","3","3","3","5","4","5","6","4","6","5","5","6","5","8","3","6","5","5","5","4","2","5","5","5","7","5","4","6","4","5","6","4","5","6","4","4","5","3","4","5","6","3","6","5","6","6","5","5","6","3","6","5","5","4","6","775105837449613314","赵","651","Female","[""好我"",""好她"",""坏她"",""坏我""]","[""强我"",""强她"",""弱她"",""弱我""]","","","","","","","","9","","","","","","","","","SRET","SRET_math_calculate","","key","9","16.66600000000001","720","446","","","","","3*3= ?","9","1","","","","","","","",""
"2572","","9","psychophysics","134","459349","0.0-7.0-5.0-0.31","4","5","5","4","3","4","4","5","3","4","4","0","1","-1","0","0","1","1","0","4","5","4","4","4","3","3","3","5","4","5","6","4","6","5","5","6","5","8","3","6","5","5","5","4","2","5","5","5","7","5","4","6","4","5","6","4","5","6","4","4","5","3","4","5","6","3","6","5","6","6","5","5","6","3","6","5","5","4","6","775105837449613314","赵","651","Female","[""好我"",""好她"",""坏她"",""坏我""]","[""强我"",""强她"",""弱她"",""弱我""]","","","","","","","","9","","","","","","","","","SRET","SRET_math_calculate","","key","9","16.666000000000086","720","446","","","","","7+2= ?","9","1","","","","","","","",""
"2519","","5","psychophysics","135","461871","0.0-7.0-5.0-0.32","4","5","5","4","3","4","4","5","3","4","4","0","1","-1","0","0","1","1","0","4","5","4","4","4","3","3","3","5","4","5","6","4","6","5","5","6","5","8","3","6","5","5","5","4","2","5","5","5","7","5","4","6","4","5","6","4","5","6","4","4","5","3","4","5","6","3","6","5","6","6","5","5","6","3","6","5","5","4","6","775105837449613314","赵","651","Female","[""好我"",""好她"",""坏她"",""坏我""]","[""强我"",""强她"",""弱她"",""弱我""]","","","","","","","","5","","","","","","","","","SRET","SRET_math_calculate","","key","5","16.669786666666624","720","446","","","","","10-5= ?","5","1","","","","","","","",""
"3474","","8","psychophysics","136","465360","0.0-7.0-5.0-0.33","4","5","5","4","3","4","4","5","3","4","4","0","1","-1","0","0","1","1","0","4","5","4","4","4","3","3","3","5","4","5","6","4","6","5","5","6","5","8","3","6","5","5","5","4","2","5","5","5","7","5","4","6","4","5","6","4","5","6","4","4","5","3","4","5","6","3","6","5","6","6","5","5","6","3","6","5","5","4","6","775105837449613314","赵","651","Female","[""好我"",""好她"",""坏她"",""坏我""]","[""强我"",""强她"",""弱她"",""弱我""]","","","","","","","","8","","","","","","","","","SRET","SRET_math_calculate","","key","8","16.665999999999958","720","446","","","","","56/7= ?","8","1","","","","","","","",""
"2074","","8","psychophysics","137","467452","0.0-7.0-5.0-0.34","4","5","5","4","3","4","4","5","3","4","4","0","1","-1","0","0","1","1","0","4","5","4","4","4","3","3","3","5","4","5","6","4","6","5","5","6","5","8","3","6","5","5","5","4","2","5","5","5","7","5","4","6","4","5","6","4","5","6","4","4","5","3","4","5","6","3","6","5","6","6","5","5","6","3","6","5","5","4","6","775105837449613314","赵","651","Female","[""好我"",""好她"",""坏她"",""坏我""]","[""强我"",""强她"",""弱她"",""弱我""]","","","","","","","","8","","","","","","","","","SRET","SRET_math_calculate","","key","8","16.666","720","446","","","","","9-1= ?","8","1","","","","","","","",""
"1963","","7","psychophysics","138","469418","0.0-7.0-5.0-0.35","4","5","5","4","3","4","4","5","3","4","4","0","1","-1","0","0","1","1","0","4","5","4","4","4","3","3","3","5","4","5","6","4","6","5","5","6","5","8","3","6","5","5","5","4","2","5","5","5","7","5","4","6","4","5","6","4","5","6","4","4","5","3","4","5","6","3","6","5","6","6","5","5","6","3","6","5","5","4","6","775105837449613314","赵","651","Female","[""好我"",""好她"",""坏她"",""坏我""]","[""强我"",""强她"",""弱她"",""弱我""]","","","","","","","","7","","","","","","","","","SRET","SRET_math_calculate","","key","7","16.666000000000174","720","446","","","","","8-1= ?","7","1","","","","","","","",""
"4253","","3","psychophysics","139","473687","0.0-7.0-5.0-0.36","4","5","5","4","3","4","4","5","3","4","4","0","1","-1","0","0","1","1","0","4","5","4","4","4","3","3","3","5","4","5","6","4","6","5","5","6","5","8","3","6","5","5","5","4","2","5","5","5","7","5","4","6","4","5","6","4","5","6","4","4","5","3","4","5","6","3","6","5","6","6","5","5","6","3","6","5","5","4","6","775105837449613314","赵","651","Female","[""好我"",""好她"",""坏她"",""坏我""]","[""强我"",""强她"",""弱她"",""弱我""]","","","","","","","","3","","","","","","","","","SRET","SRET_math_calculate","","key","3","16.668227450980567","720","446","","","","","11-8= ?","3","1","","","","","","","",""
"4878","","9","psychophysics","140","478569","0.0-7.0-5.0-0.37","4","5","5","4","3","4","4","5","3","4","4","0","1","-1","0","0","1","1","0","4","5","4","4","4","3","3","3","5","4","5","6","4","6","5","5","6","5","8","3","6","5","5","5","4","2","5","5","5","7","5","4","6","4","5","6","4","5","6","4","4","5","3","4","5","6","3","6","5","6","6","5","5","6","3","6","5","5","4","6","775105837449613314","赵","651","Female","[""好我"",""好她"",""坏她"",""坏我""]","[""强我"",""强她"",""弱她"",""弱我""]","","","","","","","","9","","","","","","","","","SRET","SRET_math_calculate","","key","9","16.66600000000003","720","446","","","","","32-23= ?","9","1","","","","","","","",""
"2293","","3","psychophysics","141","480878","0.0-7.0-5.0-0.38","4","5","5","4","3","4","4","5","3","4","4","0","1","-1","0","0","1","1","0","4","5","4","4","4","3","3","3","5","4","5","6","4","6","5","5","6","5","8","3","6","5","5","5","4","2","5","5","5","7","5","4","6","4","5","6","4","5","6","4","4","5","3","4","5","6","3","6","5","6","6","5","5","6","3","6","5","5","4","6","775105837449613314","赵","651","Female","[""好我"",""好她"",""坏她"",""坏我""]","[""强我"",""强她"",""弱她"",""弱我""]","","","","","","","","3","","","","","","","","","SRET","SRET_math_calculate","","key","3","16.670145985401867","720","446","","","","","3*1= ?","3","1","","","","","","","",""
"2187","","7","psychophysics","142","483069","0.0-7.0-5.0-0.39","4","5","5","4","3","4","4","5","3","4","4","0","1","-1","0","0","1","1","0","4","5","4","4","4","3","3","3","5","4","5","6","4","6","5","5","6","5","8","3","6","5","5","5","4","2","5","5","5","7","5","4","6","4","5","6","4","5","6","4","4","5","3","4","5","6","3","6","5","6","6","5","5","6","3","6","5","5","4","6","775105837449613314","赵","651","Female","[""好我"",""好她"",""坏她"",""坏我""]","[""强我"",""强她"",""弱她"",""弱我""]","","","","","","","","7","","","","","","","","","SRET","SRET_math_calculate","","key","7","16.665999999999883","720","446","","","","","4+3= ?","7","1","","","","","","","",""
