"rt","stimulus","response","trial_type","trial_index","time_elapsed","internal_node_id","swb_1","swb_2","swb_3","swb_4","swb_5","LOT_1","LOT_2","LOT_3","LOT_4","LOT_5","LOT_6","IPC_1","IPC_2","IPC_3","IPC_4","IPC_5","IPC_6","IPC_7","IPC_8","MorIden_1","MorIden_2","MorIden_3","MorIden_4","MorIden_5","MorIden_6","MorIden_7","MorIden_8","MorIden_9","MorIden_10","moralSeImag_1","moralSeImag_2","moralSeImag_3","moralSeImag_4","moralSeImag_5","moralSeImag_6","moralSeImag_7","moralSeImag_8","moralSeImag_9","sde_1","sde_2","sde_3","sde_4","sde_5","sde_6","sde_7","sde_8","sde_9","sde_10","trap2","sde_11","sde_12","sde_13","sde_14","sde_15","sde_16","sde_17","sde_18","sde_19","sde_20","IM_1","IM_2","IM_3","IM_4","IM_5","IM_6","IM_7","IM_8","IM_9","IM_10","IM_11","IM_12","IM_13","IM_14","IM_15","IM_16","IM_17","IM_18","IM_19","IM_20","subj_idx","friend_name","ParticipantID","Sex","Word","Word2","value","success","timeout","failed_images","failed_audio","failed_video","user_agent","responses","item_order","radio_event_ids","radio_event_times","key_event_times","mouse_event_times","straightlining","zigzagging","honeypot","task_id","screen_id","time_stamp","response_type","key_press","avg_frame_time","center_x","center_y","person","word","valence","domain","math","correct_response","correct","status","identity","view_history","duration","Image","condition","question_order","trap2_item"
"11749","
   <p><div style='color:white; font-size: 25px'>您好，欢迎参加本次实验。</div></p>
   <p><div style='color:white; font-size: 25px'>为充分保障您的权利，请确保您已经知晓并同意《参与实验同意书》以及《数据公开知情同意书》。</div></p>
   <p><div style='color:white; font-size: 25px'>如果您未见过上述内容，请咨询实验员。</div></p>
   <p style='color:white; font-size: 25px'>如果您选择继续实验，则表示您已经清楚两份知情同意书的内容并同意。</p>
   <p><div style = ""color: pink;font-size:30px;"">请确保您记得day0的实验编号，您将在本次实验输入该编号，若您忘记，请咨询实验员后作答。</div></p>
   <p><div style = ""color:lightblue;font-size:25px;"">请您尽可能认真地作答，我们将依据您在各问卷和按键任务中的作答质量发放报酬。</div></p>
   <p> <div style = ""color: green""><按空格键至下页></div> </p>
   "," ","html-keyboard-response","0","11755","0.0-0.0","4","3","4","3","3","2","3","3","4","3","4","1","-2","1","1","-1","1","1","1","4","4","5","5","4","3","4","4","4","4","7","6","7","8","7","8","7","7","7","2","5","5","3","5","3","6","2","5","4","3","5","3","6","3","5","3","5","3","6","5","2","6","2","5","2","3","3","5","5","5","3","3","5","6","3","3","2","3","2","5","793067703773569025","黄","180","Female","[""好她"",""好我"",""坏我"",""坏她""]","[""强她"",""强我"",""弱我"",""弱她""]","","","","","","","","","","","","","","","","","","","","","","","","","","","","","","","","","","","","","","",""
"","","","call-function","1","11756","0.0-1.0-0.0","4","3","4","3","3","2","3","3","4","3","4","1","-2","1","1","-1","1","1","1","4","4","5","5","4","3","4","4","4","4","7","6","7","8","7","8","7","7","7","2","5","5","3","5","3","6","2","5","4","3","5","3","6","3","5","3","5","3","6","5","2","6","2","5","2","3","3","5","5","5","3","3","5","6","3","3","2","3","2","5","793067703773569025","黄","180","Female","[""好她"",""好我"",""坏我"",""坏她""]","[""强她"",""强我"",""弱我"",""弱她""]","","","","","","","","","","","","","","","","","","","","","","","","","","","","","","","","","","","","","","",""
"22760","","[{""name"":""Sex"",""value"":""1""},{""name"":""friend_name"",""value"":""黄""},{""name"":""ParticipantID"",""value"":""180""}]","survey-html-form","2","34518","0.0-1.0-1.0","4","3","4","3","3","2","3","3","4","3","4","1","-2","1","1","-1","1","1","1","4","4","5","5","4","3","4","4","4","4","7","6","7","8","7","8","7","7","7","2","5","5","3","5","3","6","2","5","4","3","5","3","6","3","5","3","5","3","6","5","2","6","2","5","2","3","3","5","5","5","3","3","5","6","3","3","2","3","2","5","793067703773569025","黄","180","Female","[""好她"",""好我"",""坏我"",""坏她""]","[""强她"",""强我"",""弱我"",""弱她""]","","","","","","","","","","","","","","","","","","","","","","","","","","","","","","","","","","","","","","",""
"","","","preload","3","35067","0.0-2.0","4","3","4","3","3","2","3","3","4","3","4","1","-2","1","1","-1","1","1","1","4","4","5","5","4","3","4","4","4","4","7","6","7","8","7","8","7","7","7","2","5","5","3","5","3","6","2","5","4","3","5","3","6","3","5","3","5","3","6","5","2","6","2","5","2","3","3","5","5","5","3","3","5","6","3","3","2","3","2","5","793067703773569025","黄","180","Female","[""好她"",""好我"",""坏我"",""坏她""]","[""强她"",""强我"",""弱我"",""弱她""]","","true","false","[]","[]","[]","","","","","","","","","","","","","","","","","","","","","","","","","","","","","","","","",""
"","","","fullscreen","4","39764","0.0-3.0","4","3","4","3","3","2","3","3","4","3","4","1","-2","1","1","-1","1","1","1","4","4","5","5","4","3","4","4","4","4","7","6","7","8","7","8","7","7","7","2","5","5","3","5","3","6","2","5","4","3","5","3","6","3","5","3","5","3","6","5","2","6","2","5","2","3","3","5","5","5","3","3","5","6","3","3","2","3","2","5","793067703773569025","黄","180","Female","[""好她"",""好我"",""坏我"",""坏她""]","[""强她"",""强我"",""弱我"",""弱她""]","","true","","","","","{}","","","","","","","","","","","","","","","","","","","","","","","","","","","","","","","",""
"15912.19999999553","","{""Q01"":""4"",""Q02"":""3"",""Q03"":""4"",""Q04"":""3"",""Q05"":""3""}","survey-template","5","55680","0.0-4.0","4","3","4","3","3","2","3","3","4","3","4","1","-2","1","1","-1","1","1","1","4","4","5","5","4","3","4","4","4","4","7","6","7","8","7","8","7","7","7","2","5","5","3","5","3","6","2","5","4","3","5","3","6","3","5","3","5","3","6","5","2","6","2","5","2","3","3","5","5","5","3","3","5","6","3","3","2","3","2","5","793067703773569025","黄","180","Female","[""好她"",""好我"",""坏我"",""坏她""]","[""强她"",""强我"",""弱我"",""弱她""]","","","","","","","","{""Q01"":""4"",""Q02"":""3"",""Q03"":""4"",""Q04"":""3"",""Q05"":""3""}","[0,1,2,3,4]","[""Q01"",""Q02"",""Q03"",""Q04"",""Q05""]","[3158.60000000149,6534.69999999553,8710.39999999851,11790.60000000149,13998.39999999851]","[]","[3158.60000000149,6534.69999999553,8710.39999999851,11790.60000000149,13998.39999999851,15910.39999999851]","0.6","0.75","0","","","","","","","","","","","","","","","","","","","","","","",""
"26343.09999999404","","{""Q01"":""2"",""Q02"":""3"",""Q03"":""3"",""Q04"":""4"",""Q05"":""3"",""Q06"":""4""}","survey-template","6","82043","0.0-5.0","4","3","4","3","3","2","3","3","4","3","4","1","-2","1","1","-1","1","1","1","4","4","5","5","4","3","4","4","4","4","7","6","7","8","7","8","7","7","7","2","5","5","3","5","3","6","2","5","4","3","5","3","6","3","5","3","5","3","6","5","2","6","2","5","2","3","3","5","5","5","3","3","5","6","3","3","2","3","2","5","793067703773569025","黄","180","Female","[""好她"",""好我"",""坏我"",""坏她""]","[""强她"",""强我"",""弱我"",""弱她""]","","","","","","","","{""Q01"":""2"",""Q02"":""3"",""Q03"":""3"",""Q04"":""4"",""Q05"":""3"",""Q06"":""4""}","[0,1,2,3,4,5]","[""Q01"",""Q02"",""Q03"",""Q04"",""Q05"",""Q06""]","[5701.69999999553,10134.39999999851,12733.79999999702,18573.69999999553,21389.59999999404,25101.69999999553]","[]","[5701.69999999553,10134.39999999851,12733.79999999702,18573.69999999553,21389.59999999404,25101.69999999553,26341.79999999702]","0.5","0.8","0","","","","","","","","","","","","","","","","","","","","","","",""
"22018.60000000149","","{""Q01"":""1"",""Q02"":""-2"",""Q03"":""1"",""Q04"":""1"",""Q05"":""-1"",""Q06"":""1"",""Q07"":""1"",""Q08"":""1""}","survey-template","7","104068","0.0-6.0","4","3","4","3","3","2","3","3","4","3","4","1","-2","1","1","-1","1","1","1","4","4","5","5","4","3","4","4","4","4","7","6","7","8","7","8","7","7","7","2","5","5","3","5","3","6","2","5","4","3","5","3","6","3","5","3","5","3","6","5","2","6","2","5","2","3","3","5","5","5","3","3","5","6","3","3","2","3","2","5","793067703773569025","黄","180","Female","[""好她"",""好我"",""坏我"",""坏她""]","[""强她"",""强我"",""弱我"",""弱她""]","","","","","","","","{""Q01"":""1"",""Q02"":""-2"",""Q03"":""1"",""Q04"":""1"",""Q05"":""-1"",""Q06"":""1"",""Q07"":""1"",""Q08"":""1""}","[0,1,2,3,4,5,6,7]","[""Q01"",""Q02"",""Q03"",""Q04"",""Q05"",""Q06"",""Q07"",""Q08""]","[2800.7999999970198,6072.60000000149,9352.60000000149,11616.60000000149,14072.79999999702,16720.79999999702,19096.60000000149,21136.60000000149]","[]","[2800.7999999970198,6072.60000000149,9352.60000000149,11616.60000000149,14072.79999999702,16720.79999999702,19096.60000000149,21136.60000000149,22016.69999999553]","0.75","0","0","","","","","","","","","","","","","","","","","","","","","","",""
"11239","
    <p><div style='color:white;font-size:35px; line-height:20px;'>词汇评估任务</div></p><br>
    <p><div style='color:white;font-size:25px; line-height:20px;'>请再次回忆该亲密的朋友，你们至少2年前就认识了，并且最近2年经常见面。</div></p>
    <p><div style='color:white;font-size:25px; line-height:20px;'>在本实验中，您将会看到一些形容词。</div></p>
    <p><div style='color:yellow;font-size:25px; line-height:20px;'>您的任务是判断这些形容词是否符合对您自己或您的朋友的描述。</div></p><p style='font-size:35px'>符合按<span style=""color:lightgreen""> f 键</span>，不符合按<span style=""color:red""> j 键</span></p>","0","html-button-response","8","115314","0.0-7.0-0.0","4","3","4","3","3","2","3","3","4","3","4","1","-2","1","1","-1","1","1","1","4","4","5","5","4","3","4","4","4","4","7","6","7","8","7","8","7","7","7","2","5","5","3","5","3","6","2","5","4","3","5","3","6","3","5","3","5","3","6","5","2","6","2","5","2","3","3","5","5","5","3","3","5","6","3","3","2","3","2","5","793067703773569025","黄","180","Female","[""好她"",""好我"",""坏我"",""坏她""]","[""强她"",""强我"",""弱我"",""弱她""]","","","","","","","","","","","","","","","","","SRET_EW","EW_instructions","Thu Jan 11 2024 09:07:13 GMT+0800 (中国标准时间)","","","","","","","","","","","","","","","","","","","",""
"null","","null","psychophysics","9","118323","0.0-7.0-1.0-0.0","4","3","4","3","3","2","3","3","4","3","4","1","-2","1","1","-1","1","1","1","4","4","5","5","4","3","4","4","4","4","7","6","7","8","7","8","7","7","7","2","5","5","3","5","3","6","2","5","4","3","5","3","6","3","5","3","5","3","6","5","2","6","2","5","2","3","3","5","5","5","3","3","5","6","3","3","2","3","2","5","793067703773569025","黄","180","Female","[""好她"",""好我"",""坏我"",""坏她""]","[""强她"",""强我"",""弱我"",""弱她""]","","","","","","","","","","","","","","","","","SRET_EW","EW_practice","","key","null","16.663381215469613","768","428","自己","严谨","Positive","ability","","","","","","","","","","",""
"1713","","j","psychophysics","10","121041","0.0-7.0-1.0-0.1","4","3","4","3","3","2","3","3","4","3","4","1","-2","1","1","-1","1","1","1","4","4","5","5","4","3","4","4","4","4","7","6","7","8","7","8","7","7","7","2","5","5","3","5","3","6","2","5","4","3","5","3","6","3","5","3","5","3","6","5","2","6","2","5","2","3","3","5","5","5","3","3","5","6","3","3","2","3","2","5","793067703773569025","黄","180","Female","[""好她"",""好我"",""坏我"",""坏她""]","[""强她"",""强我"",""弱我"",""弱她""]","","","","","","","","no","","","","","","","","","SRET_EW","EW_practice","","key","j","16.66343827160493","768","428","自己","刻板","Negative","ability","","","","","","","","","","",""
"802","","j","psychophysics","11","122848","0.0-7.0-1.0-0.2","4","3","4","3","3","2","3","3","4","3","4","1","-2","1","1","-1","1","1","1","4","4","5","5","4","3","4","4","4","4","7","6","7","8","7","8","7","7","7","2","5","5","3","5","3","6","2","5","4","3","5","3","6","3","5","3","5","3","6","5","2","6","2","5","2","3","3","5","5","5","3","3","5","6","3","3","2","3","2","5","793067703773569025","黄","180","Female","[""好她"",""好我"",""坏我"",""坏她""]","[""强她"",""强我"",""弱我"",""弱她""]","","","","","","","","no","","","","","","","","","SRET_EW","EW_practice","","key","j","16.663626168224315","768","428","朋友","徇私","Negative","morality","","","","","","","","","","",""
"835","","f","psychophysics","12","124688","0.0-7.0-1.0-0.3","4","3","4","3","3","2","3","3","4","3","4","1","-2","1","1","-1","1","1","1","4","4","5","5","4","3","4","4","4","4","7","6","7","8","7","8","7","7","7","2","5","5","3","5","3","6","2","5","4","3","5","3","6","3","5","3","5","3","6","5","2","6","2","5","2","3","3","5","5","5","3","3","5","6","3","3","2","3","2","5","793067703773569025","黄","180","Female","[""好她"",""好我"",""坏我"",""坏她""]","[""强她"",""强我"",""弱我"",""弱她""]","","","","","","","","yes","","","","","","","","","SRET_EW","EW_practice","","key","f","16.663627272727236","768","428","朋友","忠实","Positive","morality","","","","","","","","","","",""
"8655","
    <p><div style='color:white;font-size:35px; line-height:20px;'>请您再次阅读实验要求</div></p><br>
    <p><div style='color:white;font-size:25px; line-height:20px;'>请回忆某一个亲密的朋友，你们至少2年前就认识了，并且最近2年经常见面。</div></p>
    <p><div style='color:white;font-size:25px; line-height:20px;'>在本实验中，您将会看到一些形容词。</div></p>
    <p><div style='color:yellow;font-size:25px; line-height:20px;'>您的任务是判断这些形容词是否符合对您自己或您的朋友的描述。</div></p>
    <p><div class='footer' style='font-size:25px; line-height:20px;'>如果对本实验还有不清楚之处，请立即向实验员咨询。</p><p style='font-size:25px; line-height:20px;'>如果您明白了规则：</p><p style='font-size:22px; line-height:20px;'>请按 继续 进入正式实验</p>
    </div>
    <p style='font-size:35px'>符合按<span style=""color:lightgreen""> f 键</span>，不符合按<span style=""color:red""> j 键</span></p>","0","html-button-response","13","133346","0.0-7.0-2.0","4","3","4","3","3","2","3","3","4","3","4","1","-2","1","1","-1","1","1","1","4","4","5","5","4","3","4","4","4","4","7","6","7","8","7","8","7","7","7","2","5","5","3","5","3","6","2","5","4","3","5","3","6","3","5","3","5","3","6","5","2","6","2","5","2","3","3","5","5","5","3","3","5","6","3","3","2","3","2","5","793067703773569025","黄","180","Female","[""好她"",""好我"",""坏我"",""坏她""]","[""强她"",""强我"",""弱我"",""弱她""]","","","","","","","","","","","","","","","","","SRET_EW","prac_instructions","Thu Jan 11 2024 09:07:13 GMT+0800 (中国标准时间)","","","","","","","","","","","","","","","","","","","",""
"789","","f","psychophysics","14","135143","0.0-7.0-3.0-0.0","4","3","4","3","3","2","3","3","4","3","4","1","-2","1","1","-1","1","1","1","4","4","5","5","4","3","4","4","4","4","7","6","7","8","7","8","7","7","7","2","5","5","3","5","3","6","2","5","4","3","5","3","6","3","5","3","5","3","6","5","2","6","2","5","2","3","3","5","5","5","3","3","5","6","3","3","2","3","2","5","793067703773569025","黄","180","Female","[""好她"",""好我"",""坏我"",""坏她""]","[""强她"",""强我"",""弱我"",""弱她""]","","","","","","","","yes","","","","","","","","","SRET","EW_formal","","key","f","16.81913084112174","768","428","朋友","务实","Positive","ability","","","","","","","","","","",""
"841","","j","psychophysics","15","136991","0.0-7.0-3.0-0.1","4","3","4","3","3","2","3","3","4","3","4","1","-2","1","1","-1","1","1","1","4","4","5","5","4","3","4","4","4","4","7","6","7","8","7","8","7","7","7","2","5","5","3","5","3","6","2","5","4","3","5","3","6","3","5","3","5","3","6","5","2","6","2","5","2","3","3","5","5","5","3","3","5","6","3","3","2","3","2","5","793067703773569025","黄","180","Female","[""好她"",""好我"",""坏我"",""坏她""]","[""强她"",""强我"",""弱我"",""弱她""]","","","","","","","","no","","","","","","","","","SRET","EW_formal","","key","j","16.663918181818072","768","428","自己","说谎","Negative","morality","","","","","","","","","","",""
"1067","","f","psychophysics","16","139060","0.0-7.0-3.0-0.2","4","3","4","3","3","2","3","3","4","3","4","1","-2","1","1","-1","1","1","1","4","4","5","5","4","3","4","4","4","4","7","6","7","8","7","8","7","7","7","2","5","5","3","5","3","6","2","5","4","3","5","3","6","3","5","3","5","3","6","5","2","6","2","5","2","3","3","5","5","5","3","3","5","6","3","3","2","3","2","5","793067703773569025","黄","180","Female","[""好她"",""好我"",""坏我"",""坏她""]","[""强她"",""强我"",""弱我"",""弱她""]","","","","","","","","yes","","","","","","","","","SRET","EW_formal","","key","f","16.663373983739845","768","428","朋友","迷糊","Negative","ability","","","","","","","","","","",""
"953","","j","psychophysics","17","141019","0.0-7.0-3.0-0.3","4","3","4","3","3","2","3","3","4","3","4","1","-2","1","1","-1","1","1","1","4","4","5","5","4","3","4","4","4","4","7","6","7","8","7","8","7","7","7","2","5","5","3","5","3","6","2","5","4","3","5","3","6","3","5","3","5","3","6","5","2","6","2","5","2","3","3","5","5","5","3","3","5","6","3","3","2","3","2","5","793067703773569025","黄","180","Female","[""好她"",""好我"",""坏我"",""坏她""]","[""强她"",""强我"",""弱我"",""弱她""]","","","","","","","","no","","","","","","","","","SRET","EW_formal","","key","j","16.664017094017115","768","428","自己","坚贞","Positive","morality","","","","","","","","","","",""
"1129","","j","psychophysics","18","143151","0.0-7.0-3.0-0.4","4","3","4","3","3","2","3","3","4","3","4","1","-2","1","1","-1","1","1","1","4","4","5","5","4","3","4","4","4","4","7","6","7","8","7","8","7","7","7","2","5","5","3","5","3","6","2","5","4","3","5","3","6","3","5","3","5","3","6","5","2","6","2","5","2","3","3","5","5","5","3","3","5","6","3","3","2","3","2","5","793067703773569025","黄","180","Female","[""好她"",""好我"",""坏我"",""坏她""]","[""强她"",""强我"",""弱我"",""弱她""]","","","","","","","","no","","","","","","","","","SRET","EW_formal","","key","j","16.66386614173241","768","428","朋友","窝囊","Negative","ability","","","","","","","","","","",""
"1138","","f","psychophysics","19","145293","0.0-7.0-3.0-0.5","4","3","4","3","3","2","3","3","4","3","4","1","-2","1","1","-1","1","1","1","4","4","5","5","4","3","4","4","4","4","7","6","7","8","7","8","7","7","7","2","5","5","3","5","3","6","2","5","4","3","5","3","6","3","5","3","5","3","6","5","2","6","2","5","2","3","3","5","5","5","3","3","5","6","3","3","2","3","2","5","793067703773569025","黄","180","Female","[""好她"",""好我"",""坏我"",""坏她""]","[""强她"",""强我"",""弱我"",""弱她""]","","","","","","","","yes","","","","","","","","","SRET","EW_formal","","key","f","16.6644173228346","768","428","自己","稳健","Positive","ability","","","","","","","","","","",""
"1064","","f","psychophysics","20","147363","0.0-7.0-3.0-0.6","4","3","4","3","3","2","3","3","4","3","4","1","-2","1","1","-1","1","1","1","4","4","5","5","4","3","4","4","4","4","7","6","7","8","7","8","7","7","7","2","5","5","3","5","3","6","2","5","4","3","5","3","6","3","5","3","5","3","6","5","2","6","2","5","2","3","3","5","5","5","3","3","5","6","3","3","2","3","2","5","793067703773569025","黄","180","Female","[""好她"",""好我"",""坏我"",""坏她""]","[""强她"",""强我"",""弱我"",""弱她""]","","","","","","","","yes","","","","","","","","","SRET","EW_formal","","key","f","16.663991869918718","768","428","自己","逞强","Negative","ability","","","","","","","","","","",""
"1320","","j","psychophysics","21","149686","0.0-7.0-3.0-0.7","4","3","4","3","3","2","3","3","4","3","4","1","-2","1","1","-1","1","1","1","4","4","5","5","4","3","4","4","4","4","7","6","7","8","7","8","7","7","7","2","5","5","3","5","3","6","2","5","4","3","5","3","6","3","5","3","5","3","6","5","2","6","2","5","2","3","3","5","5","5","3","3","5","6","3","3","2","3","2","5","793067703773569025","黄","180","Female","[""好她"",""好我"",""坏我"",""坏她""]","[""强她"",""强我"",""弱我"",""弱她""]","","","","","","","","no","","","","","","","","","SRET","EW_formal","","key","j","16.663366906474916","768","428","自己","低劣","Negative","morality","","","","","","","","","","",""
"1159","","j","psychophysics","22","151849","0.0-7.0-3.0-0.8","4","3","4","3","3","2","3","3","4","3","4","1","-2","1","1","-1","1","1","1","4","4","5","5","4","3","4","4","4","4","7","6","7","8","7","8","7","7","7","2","5","5","3","5","3","6","2","5","4","3","5","3","6","3","5","3","5","3","6","5","2","6","2","5","2","3","3","5","5","5","3","3","5","6","3","3","2","3","2","5","793067703773569025","黄","180","Female","[""好她"",""好我"",""坏我"",""坏她""]","[""强她"",""强我"",""弱我"",""弱她""]","","","","","","","","no","","","","","","","","","SRET","EW_formal","","key","j","16.66435658914721","768","428","朋友","虚假","Negative","morality","","","","","","","","","","",""
"938","","f","psychophysics","23","153791","0.0-7.0-3.0-0.9","4","3","4","3","3","2","3","3","4","3","4","1","-2","1","1","-1","1","1","1","4","4","5","5","4","3","4","4","4","4","7","6","7","8","7","8","7","7","7","2","5","5","3","5","3","6","2","5","4","3","5","3","6","3","5","3","5","3","6","5","2","6","2","5","2","3","3","5","5","5","3","3","5","6","3","3","2","3","2","5","793067703773569025","黄","180","Female","[""好她"",""好我"",""坏我"",""坏她""]","[""强她"",""强我"",""弱我"",""弱她""]","","","","","","","","yes","","","","","","","","","SRET","EW_formal","","key","f","16.664643478260942","768","428","朋友","懂行","Positive","ability","","","","","","","","","","",""
"793","","j","psychophysics","24","155590","0.0-7.0-3.0-0.10","4","3","4","3","3","2","3","3","4","3","4","1","-2","1","1","-1","1","1","1","4","4","5","5","4","3","4","4","4","4","7","6","7","8","7","8","7","7","7","2","5","5","3","5","3","6","2","5","4","3","5","3","6","3","5","3","5","3","6","5","2","6","2","5","2","3","3","5","5","5","3","3","5","6","3","3","2","3","2","5","793067703773569025","黄","180","Female","[""好她"",""好我"",""坏我"",""坏她""]","[""强她"",""强我"",""弱我"",""弱她""]","","","","","","","","no","","","","","","","","","SRET","EW_formal","","key","j","16.662299065420374","768","428","朋友","歹毒","Negative","morality","","","","","","","","","","",""
"958","","f","psychophysics","25","157550","0.0-7.0-3.0-0.11","4","3","4","3","3","2","3","3","4","3","4","1","-2","1","1","-1","1","1","1","4","4","5","5","4","3","4","4","4","4","7","6","7","8","7","8","7","7","7","2","5","5","3","5","3","6","2","5","4","3","5","3","6","3","5","3","5","3","6","5","2","6","2","5","2","3","3","5","5","5","3","3","5","6","3","3","2","3","2","5","793067703773569025","黄","180","Female","[""好她"",""好我"",""坏我"",""坏她""]","[""强她"",""强我"",""弱我"",""弱她""]","","","","","","","","yes","","","","","","","","","SRET","EW_formal","","key","f","16.66523931623918","768","428","朋友","娴熟","Positive","ability","","","","","","","","","","",""
"705","","j","psychophysics","26","159260","0.0-7.0-3.0-0.12","4","3","4","3","3","2","3","3","4","3","4","1","-2","1","1","-1","1","1","1","4","4","5","5","4","3","4","4","4","4","7","6","7","8","7","8","7","7","7","2","5","5","3","5","3","6","2","5","4","3","5","3","6","3","5","3","5","3","6","5","2","6","2","5","2","3","3","5","5","5","3","3","5","6","3","3","2","3","2","5","793067703773569025","黄","180","Female","[""好她"",""好我"",""坏我"",""坏她""]","[""强她"",""强我"",""弱我"",""弱她""]","","","","","","","","no","","","","","","","","","SRET","EW_formal","","key","j","16.664752475247663","768","428","朋友","贪腐","Negative","morality","","","","","","","","","","",""
"862","","j","psychophysics","27","161128","0.0-7.0-3.0-0.13","4","3","4","3","3","2","3","3","4","3","4","1","-2","1","1","-1","1","1","1","4","4","5","5","4","3","4","4","4","4","7","6","7","8","7","8","7","7","7","2","5","5","3","5","3","6","2","5","4","3","5","3","6","3","5","3","5","3","6","5","2","6","2","5","2","3","3","5","5","5","3","3","5","6","3","3","2","3","2","5","793067703773569025","黄","180","Female","[""好她"",""好我"",""坏我"",""坏她""]","[""强她"",""强我"",""弱我"",""弱她""]","","","","","","","","no","","","","","","","","","SRET","EW_formal","","key","j","16.664081081081243","768","428","朋友","废物","Negative","ability","","","","","","","","","","",""
"755","","f","psychophysics","28","162886","0.0-7.0-3.0-0.14","4","3","4","3","3","2","3","3","4","3","4","1","-2","1","1","-1","1","1","1","4","4","5","5","4","3","4","4","4","4","7","6","7","8","7","8","7","7","7","2","5","5","3","5","3","6","2","5","4","3","5","3","6","3","5","3","5","3","6","5","2","6","2","5","2","3","3","5","5","5","3","3","5","6","3","3","2","3","2","5","793067703773569025","黄","180","Female","[""好她"",""好我"",""坏我"",""坏她""]","[""强她"",""强我"",""弱我"",""弱她""]","","","","","","","","yes","","","","","","","","","SRET","EW_formal","","key","f","16.662028571428355","768","428","朋友","顶事","Positive","ability","","","","","","","","","","",""
"667","","f","psychophysics","29","164558","0.0-7.0-3.0-0.15","4","3","4","3","3","2","3","3","4","3","4","1","-2","1","1","-1","1","1","1","4","4","5","5","4","3","4","4","4","4","7","6","7","8","7","8","7","7","7","2","5","5","3","5","3","6","2","5","4","3","5","3","6","3","5","3","5","3","6","5","2","6","2","5","2","3","3","5","5","5","3","3","5","6","3","3","2","3","2","5","793067703773569025","黄","180","Female","[""好她"",""好我"",""坏我"",""坏她""]","[""强她"",""强我"",""弱我"",""弱她""]","","","","","","","","yes","","","","","","","","","SRET","EW_formal","","key","f","16.66412121212143","768","428","朋友","忠诚","Positive","morality","","","","","","","","","","",""
"774","","f","psychophysics","30","166337","0.0-7.0-3.0-0.16","4","3","4","3","3","2","3","3","4","3","4","1","-2","1","1","-1","1","1","1","4","4","5","5","4","3","4","4","4","4","7","6","7","8","7","8","7","7","7","2","5","5","3","5","3","6","2","5","4","3","5","3","6","3","5","3","5","3","6","5","2","6","2","5","2","3","3","5","5","5","3","3","5","6","3","3","2","3","2","5","793067703773569025","黄","180","Female","[""好她"",""好我"",""坏我"",""坏她""]","[""强她"",""强我"",""弱我"",""弱她""]","","","","","","","","yes","","","","","","","","","SRET","EW_formal","","key","f","16.66397169811315","768","428","朋友","善心","Positive","morality","","","","","","","","","","",""
"667","","f","psychophysics","31","168008","0.0-7.0-3.0-0.17","4","3","4","3","3","2","3","3","4","3","4","1","-2","1","1","-1","1","1","1","4","4","5","5","4","3","4","4","4","4","7","6","7","8","7","8","7","7","7","2","5","5","3","5","3","6","2","5","4","3","5","3","6","3","5","3","5","3","6","5","2","6","2","5","2","3","3","5","5","5","3","3","5","6","3","3","2","3","2","5","793067703773569025","黄","180","Female","[""好她"",""好我"",""坏我"",""坏她""]","[""强她"",""强我"",""弱我"",""弱她""]","","","","","","","","yes","","","","","","","","","SRET","EW_formal","","key","f","16.664363636363607","768","428","朋友","周到","Positive","ability","","","","","","","","","","",""
"710","","j","psychophysics","32","169723","0.0-7.0-3.0-0.18","4","3","4","3","3","2","3","3","4","3","4","1","-2","1","1","-1","1","1","1","4","4","5","5","4","3","4","4","4","4","7","6","7","8","7","8","7","7","7","2","5","5","3","5","3","6","2","5","4","3","5","3","6","3","5","3","5","3","6","5","2","6","2","5","2","3","3","5","5","5","3","3","5","6","3","3","2","3","2","5","793067703773569025","黄","180","Female","[""好她"",""好我"",""坏我"",""坏她""]","[""强她"",""强我"",""弱我"",""弱她""]","","","","","","","","no","","","","","","","","","SRET","EW_formal","","key","j","16.664441176470454","768","428","朋友","恶劣","Negative","morality","","","","","","","","","","",""
"780","","f","psychophysics","33","171509","0.0-7.0-3.0-0.19","4","3","4","3","3","2","3","3","4","3","4","1","-2","1","1","-1","1","1","1","4","4","5","5","4","3","4","4","4","4","7","6","7","8","7","8","7","7","7","2","5","5","3","5","3","6","2","5","4","3","5","3","6","3","5","3","5","3","6","5","2","6","2","5","2","3","3","5","5","5","3","3","5","6","3","3","2","3","2","5","793067703773569025","黄","180","Female","[""好她"",""好我"",""坏我"",""坏她""]","[""强她"",""强我"",""弱我"",""弱她""]","","","","","","","","yes","","","","","","","","","SRET","EW_formal","","key","f","16.66483018867933","768","428","朋友","奉献","Positive","morality","","","","","","","","","","",""
"732","","f","psychophysics","34","173244","0.0-7.0-3.0-0.20","4","3","4","3","3","2","3","3","4","3","4","1","-2","1","1","-1","1","1","1","4","4","5","5","4","3","4","4","4","4","7","6","7","8","7","8","7","7","7","2","5","5","3","5","3","6","2","5","4","3","5","3","6","3","5","3","5","3","6","5","2","6","2","5","2","3","3","5","5","5","3","3","5","6","3","3","2","3","2","5","793067703773569025","黄","180","Female","[""好她"",""好我"",""坏我"",""坏她""]","[""强她"",""强我"",""弱我"",""弱她""]","","","","","","","","yes","","","","","","","","","SRET","EW_formal","","key","f","16.664144230769196","768","428","自己","好心","Positive","morality","","","","","","","","","","",""
"1190","","j","psychophysics","35","175439","0.0-7.0-3.0-0.21","4","3","4","3","3","2","3","3","4","3","4","1","-2","1","1","-1","1","1","1","4","4","5","5","4","3","4","4","4","4","7","6","7","8","7","8","7","7","7","2","5","5","3","5","3","6","2","5","4","3","5","3","6","3","5","3","5","3","6","5","2","6","2","5","2","3","3","5","5","5","3","3","5","6","3","3","2","3","2","5","793067703773569025","黄","180","Female","[""好她"",""好我"",""坏我"",""坏她""]","[""强她"",""强我"",""弱我"",""弱她""]","","","","","","","","no","","","","","","","","","SRET","EW_formal","","key","j","16.663976923077","768","428","朋友","学霸","Positive","ability","","","","","","","","","","",""
"880","","f","psychophysics","36","177324","0.0-7.0-3.0-0.22","4","3","4","3","3","2","3","3","4","3","4","1","-2","1","1","-1","1","1","1","4","4","5","5","4","3","4","4","4","4","7","6","7","8","7","8","7","7","7","2","5","5","3","5","3","6","2","5","4","3","5","3","6","3","5","3","5","3","6","5","2","6","2","5","2","3","3","5","5","5","3","3","5","6","3","3","2","3","2","5","793067703773569025","黄","180","Female","[""好她"",""好我"",""坏我"",""坏她""]","[""强她"",""强我"",""弱我"",""弱她""]","","","","","","","","yes","","","","","","","","","SRET","EW_formal","","key","f","16.664035714285742","768","428","朋友","正气","Positive","morality","","","","","","","","","","",""
"854","","j","psychophysics","37","179181","0.0-7.0-3.0-0.23","4","3","4","3","3","2","3","3","4","3","4","1","-2","1","1","-1","1","1","1","4","4","5","5","4","3","4","4","4","4","7","6","7","8","7","8","7","7","7","2","5","5","3","5","3","6","2","5","4","3","5","3","6","3","5","3","5","3","6","5","2","6","2","5","2","3","3","5","5","5","3","3","5","6","3","3","2","3","2","5","793067703773569025","黄","180","Female","[""好她"",""好我"",""坏我"",""坏她""]","[""强她"",""强我"",""弱我"",""弱她""]","","","","","","","","no","","","","","","","","","SRET","EW_formal","","key","j","16.663819819819896","768","428","朋友","怠惰","Negative","ability","","","","","","","","","","",""
"859","","f","psychophysics","38","181043","0.0-7.0-3.0-0.24","4","3","4","3","3","2","3","3","4","3","4","1","-2","1","1","-1","1","1","1","4","4","5","5","4","3","4","4","4","4","7","6","7","8","7","8","7","7","7","2","5","5","3","5","3","6","2","5","4","3","5","3","6","3","5","3","5","3","6","5","2","6","2","5","2","3","3","5","5","5","3","3","5","6","3","3","2","3","2","5","793067703773569025","黄","180","Female","[""好她"",""好我"",""坏我"",""坏她""]","[""强她"",""强我"",""弱我"",""弱她""]","","","","","","","","yes","","","","","","","","","SRET","EW_formal","","key","f","16.662693693693768","768","428","朋友","爱国","Positive","morality","","","","","","","","","","",""
"782","","f","psychophysics","39","182827","0.0-7.0-3.0-0.25","4","3","4","3","3","2","3","3","4","3","4","1","-2","1","1","-1","1","1","1","4","4","5","5","4","3","4","4","4","4","7","6","7","8","7","8","7","7","7","2","5","5","3","5","3","6","2","5","4","3","5","3","6","3","5","3","5","3","6","5","2","6","2","5","2","3","3","5","5","5","3","3","5","6","3","3","2","3","2","5","793067703773569025","黄","180","Female","[""好她"",""好我"",""坏我"",""坏她""]","[""强她"",""强我"",""弱我"",""弱她""]","","","","","","","","yes","","","","","","","","","SRET","EW_formal","","key","f","16.662971428571367","768","428","自己","果断","Positive","ability","","","","","","","","","","",""
"688","","j","psychophysics","40","184518","0.0-7.0-3.0-0.26","4","3","4","3","3","2","3","3","4","3","4","1","-2","1","1","-1","1","1","1","4","4","5","5","4","3","4","4","4","4","7","6","7","8","7","8","7","7","7","2","5","5","3","5","3","6","2","5","4","3","5","3","6","3","5","3","5","3","6","5","2","6","2","5","2","3","3","5","5","5","3","3","5","6","3","3","2","3","2","5","793067703773569025","黄","180","Female","[""好她"",""好我"",""坏我"",""坏她""]","[""强她"",""强我"",""弱我"",""弱她""]","","","","","","","","no","","","","","","","","","SRET","EW_formal","","key","j","16.664930693069266","768","428","自己","腐败","Negative","morality","","","","","","","","","","",""
"1040","","f","psychophysics","41","186566","0.0-7.0-3.0-0.27","4","3","4","3","3","2","3","3","4","3","4","1","-2","1","1","-1","1","1","1","4","4","5","5","4","3","4","4","4","4","7","6","7","8","7","8","7","7","7","2","5","5","3","5","3","6","2","5","4","3","5","3","6","3","5","3","5","3","6","5","2","6","2","5","2","3","3","5","5","5","3","3","5","6","3","3","2","3","2","5","793067703773569025","黄","180","Female","[""好她"",""好我"",""坏我"",""坏她""]","[""强她"",""强我"",""弱我"",""弱她""]","","","","","","","","yes","","","","","","","","","SRET","EW_formal","","key","f","16.664024590163923","768","428","自己","差生","Negative","ability","","","","","","","","","","",""
"1142","","f","psychophysics","42","188711","0.0-7.0-3.0-0.28","4","3","4","3","3","2","3","3","4","3","4","1","-2","1","1","-1","1","1","1","4","4","5","5","4","3","4","4","4","4","7","6","7","8","7","8","7","7","7","2","5","5","3","5","3","6","2","5","4","3","5","3","6","3","5","3","5","3","6","5","2","6","2","5","2","3","3","5","5","5","3","3","5","6","3","3","2","3","2","5","793067703773569025","黄","180","Female","[""好她"",""好我"",""坏我"",""坏她""]","[""强她"",""强我"",""弱我"",""弱她""]","","","","","","","","yes","","","","","","","","","SRET","EW_formal","","key","f","16.66310156250006","768","428","自己","君子","Positive","morality","","","","","","","","","","",""
"789","","f","psychophysics","43","190504","0.0-7.0-3.0-0.29","4","3","4","3","3","2","3","3","4","3","4","1","-2","1","1","-1","1","1","1","4","4","5","5","4","3","4","4","4","4","7","6","7","8","7","8","7","7","7","2","5","5","3","5","3","6","2","5","4","3","5","3","6","3","5","3","5","3","6","5","2","6","2","5","2","3","3","5","5","5","3","3","5","6","3","3","2","3","2","5","793067703773569025","黄","180","Female","[""好她"",""好我"",""坏我"",""坏她""]","[""强她"",""强我"",""弱我"",""弱她""]","","","","","","","","yes","","","","","","","","","SRET","EW_formal","","key","f","16.664820754717166","768","428","朋友","坦荡","Positive","morality","","","","","","","","","","",""
"961","","j","psychophysics","44","192469","0.0-7.0-3.0-0.30","4","3","4","3","3","2","3","3","4","3","4","1","-2","1","1","-1","1","1","1","4","4","5","5","4","3","4","4","4","4","7","6","7","8","7","8","7","7","7","2","5","5","3","5","3","6","2","5","4","3","5","3","6","3","5","3","5","3","6","5","2","6","2","5","2","3","3","5","5","5","3","3","5","6","3","3","2","3","2","5","793067703773569025","黄","180","Female","[""好她"",""好我"",""坏我"",""坏她""]","[""强她"",""强我"",""弱我"",""弱她""]","","","","","","","","no","","","","","","","","","SRET","EW_formal","","key","j","16.66248717948717","768","428","朋友","狡诈","Negative","morality","","","","","","","","","","",""
"741","","j","psychophysics","45","194212","0.0-7.0-3.0-0.31","4","3","4","3","3","2","3","3","4","3","4","1","-2","1","1","-1","1","1","1","4","4","5","5","4","3","4","4","4","4","7","6","7","8","7","8","7","7","7","2","5","5","3","5","3","6","2","5","4","3","5","3","6","3","5","3","5","3","6","5","2","6","2","5","2","3","3","5","5","5","3","3","5","6","3","3","2","3","2","5","793067703773569025","黄","180","Female","[""好她"",""好我"",""坏我"",""坏她""]","[""强她"",""强我"",""弱我"",""弱她""]","","","","","","","","no","","","","","","","","","SRET","EW_formal","","key","j","16.663721153846172","768","428","朋友","邪恶","Negative","morality","","","","","","","","","","",""
"807","","j","psychophysics","46","196022","0.0-7.0-3.0-0.32","4","3","4","3","3","2","3","3","4","3","4","1","-2","1","1","-1","1","1","1","4","4","5","5","4","3","4","4","4","4","7","6","7","8","7","8","7","7","7","2","5","5","3","5","3","6","2","5","4","3","5","3","6","3","5","3","5","3","6","5","2","6","2","5","2","3","3","5","5","5","3","3","5","6","3","3","2","3","2","5","793067703773569025","黄","180","Female","[""好她"",""好我"",""坏我"",""坏她""]","[""强她"",""强我"",""弱我"",""弱她""]","","","","","","","","no","","","","","","","","","SRET","EW_formal","","key","j","16.664361111111013","768","428","朋友","不良","Negative","morality","","","","","","","","","","",""
"867","","f","psychophysics","47","197892","0.0-7.0-3.0-0.33","4","3","4","3","3","2","3","3","4","3","4","1","-2","1","1","-1","1","1","1","4","4","5","5","4","3","4","4","4","4","7","6","7","8","7","8","7","7","7","2","5","5","3","5","3","6","2","5","4","3","5","3","6","3","5","3","5","3","6","5","2","6","2","5","2","3","3","5","5","5","3","3","5","6","3","3","2","3","2","5","793067703773569025","黄","180","Female","[""好她"",""好我"",""坏我"",""坏她""]","[""强她"",""强我"",""弱我"",""弱她""]","","","","","","","","yes","","","","","","","","","SRET","EW_formal","","key","f","16.66339639639655","768","428","自己","逞能","Negative","ability","","","","","","","","","","",""
"861","","j","psychophysics","48","199755","0.0-7.0-3.0-0.34","4","3","4","3","3","2","3","3","4","3","4","1","-2","1","1","-1","1","1","1","4","4","5","5","4","3","4","4","4","4","7","6","7","8","7","8","7","7","7","2","5","5","3","5","3","6","2","5","4","3","5","3","6","3","5","3","5","3","6","5","2","6","2","5","2","3","3","5","5","5","3","3","5","6","3","3","2","3","2","5","793067703773569025","黄","180","Female","[""好她"",""好我"",""坏我"",""坏她""]","[""强她"",""强我"",""弱我"",""弱她""]","","","","","","","","no","","","","","","","","","SRET","EW_formal","","key","j","16.665063063063194","768","428","自己","卑鄙","Negative","morality","","","","","","","","","","",""
"963","","f","psychophysics","49","201722","0.0-7.0-3.0-0.35","4","3","4","3","3","2","3","3","4","3","4","1","-2","1","1","-1","1","1","1","4","4","5","5","4","3","4","4","4","4","7","6","7","8","7","8","7","7","7","2","5","5","3","5","3","6","2","5","4","3","5","3","6","3","5","3","5","3","6","5","2","6","2","5","2","3","3","5","5","5","3","3","5","6","3","3","2","3","2","5","793067703773569025","黄","180","Female","[""好她"",""好我"",""坏我"",""坏她""]","[""强她"",""强我"",""弱我"",""弱她""]","","","","","","","","yes","","","","","","","","","SRET","EW_formal","","key","f","16.66383760683756","768","428","自己","细心","Positive","ability","","","","","","","","","","",""
"749","","f","psychophysics","50","203474","0.0-7.0-3.0-0.36","4","3","4","3","3","2","3","3","4","3","4","1","-2","1","1","-1","1","1","1","4","4","5","5","4","3","4","4","4","4","7","6","7","8","7","8","7","7","7","2","5","5","3","5","3","6","2","5","4","3","5","3","6","3","5","3","5","3","6","5","2","6","2","5","2","3","3","5","5","5","3","3","5","6","3","3","2","3","2","5","793067703773569025","黄","180","Female","[""好她"",""好我"",""坏我"",""坏她""]","[""强她"",""强我"",""弱我"",""弱她""]","","","","","","","","yes","","","","","","","","","SRET","EW_formal","","key","f","16.663903846153865","768","428","自己","骁勇","Positive","ability","","","","","","","","","","",""
"729","","j","psychophysics","51","205206","0.0-7.0-3.0-0.37","4","3","4","3","3","2","3","3","4","3","4","1","-2","1","1","-1","1","1","1","4","4","5","5","4","3","4","4","4","4","7","6","7","8","7","8","7","7","7","2","5","5","3","5","3","6","2","5","4","3","5","3","6","3","5","3","5","3","6","5","2","6","2","5","2","3","3","5","5","5","3","3","5","6","3","3","2","3","2","5","793067703773569025","黄","180","Female","[""好她"",""好我"",""坏我"",""坏她""]","[""强她"",""强我"",""弱我"",""弱她""]","","","","","","","","no","","","","","","","","","SRET","EW_formal","","key","j","16.66642718446595","768","428","自己","刻薄","Negative","morality","","","","","","","","","","",""
"713","","f","psychophysics","52","206923","0.0-7.0-3.0-0.38","4","3","4","3","3","2","3","3","4","3","4","1","-2","1","1","-1","1","1","1","4","4","5","5","4","3","4","4","4","4","7","6","7","8","7","8","7","7","7","2","5","5","3","5","3","6","2","5","4","3","5","3","6","3","5","3","5","3","6","5","2","6","2","5","2","3","3","5","5","5","3","3","5","6","3","3","2","3","2","5","793067703773569025","黄","180","Female","[""好她"",""好我"",""坏我"",""坏她""]","[""强她"",""强我"",""弱我"",""弱她""]","","","","","","","","yes","","","","","","","","","SRET","EW_formal","","key","f","16.830475247525012","768","428","自己","诚信","Positive","morality","","","","","","","","","","",""
"610","","f","psychophysics","53","208537","0.0-7.0-3.0-0.39","4","3","4","3","3","2","3","3","4","3","4","1","-2","1","1","-1","1","1","1","4","4","5","5","4","3","4","4","4","4","7","6","7","8","7","8","7","7","7","2","5","5","3","5","3","6","2","5","4","3","5","3","6","3","5","3","5","3","6","5","2","6","2","5","2","3","3","5","5","5","3","3","5","6","3","3","2","3","2","5","793067703773569025","黄","180","Female","[""好她"",""好我"",""坏我"",""坏她""]","[""强她"",""强我"",""弱我"",""弱她""]","","","","","","","","yes","","","","","","","","","SRET","EW_formal","","key","f","16.66498958333341","768","428","自己","热心","Positive","morality","","","","","","","","","","",""
"666","","j","psychophysics","54","210206","0.0-7.0-3.0-0.40","4","3","4","3","3","2","3","3","4","3","4","1","-2","1","1","-1","1","1","1","4","4","5","5","4","3","4","4","4","4","7","6","7","8","7","8","7","7","7","2","5","5","3","5","3","6","2","5","4","3","5","3","6","3","5","3","5","3","6","5","2","6","2","5","2","3","3","5","5","5","3","3","5","6","3","3","2","3","2","5","793067703773569025","黄","180","Female","[""好她"",""好我"",""坏我"",""坏她""]","[""强她"",""强我"",""弱我"",""弱她""]","","","","","","","","no","","","","","","","","","SRET","EW_formal","","key","j","16.663414141414286","768","428","自己","无赖","Negative","morality","","","","","","","","","","",""
"676","","f","psychophysics","55","211886","0.0-7.0-3.0-0.41","4","3","4","3","3","2","3","3","4","3","4","1","-2","1","1","-1","1","1","1","4","4","5","5","4","3","4","4","4","4","7","6","7","8","7","8","7","7","7","2","5","5","3","5","3","6","2","5","4","3","5","3","6","3","5","3","5","3","6","5","2","6","2","5","2","3","3","5","5","5","3","3","5","6","3","3","2","3","2","5","793067703773569025","黄","180","Female","[""好她"",""好我"",""坏我"",""坏她""]","[""强她"",""强我"",""弱我"",""弱她""]","","","","","","","","yes","","","","","","","","","SRET","EW_formal","","key","f","16.664839999999966","768","428","朋友","有力","Positive","ability","","","","","","","","","","",""
"766","","f","psychophysics","56","213654","0.0-7.0-3.0-0.42","4","3","4","3","3","2","3","3","4","3","4","1","-2","1","1","-1","1","1","1","4","4","5","5","4","3","4","4","4","4","7","6","7","8","7","8","7","7","7","2","5","5","3","5","3","6","2","5","4","3","5","3","6","3","5","3","5","3","6","5","2","6","2","5","2","3","3","5","5","5","3","3","5","6","3","3","2","3","2","5","793067703773569025","黄","180","Female","[""好她"",""好我"",""坏我"",""坏她""]","[""强她"",""强我"",""弱我"",""弱她""]","","","","","","","","yes","","","","","","","","","SRET","EW_formal","","key","f","16.66336190476182","768","428","自己","坚持","Positive","ability","","","","","","","","","","",""
"701","","j","psychophysics","57","215358","0.0-7.0-3.0-0.43","4","3","4","3","3","2","3","3","4","3","4","1","-2","1","1","-1","1","1","1","4","4","5","5","4","3","4","4","4","4","7","6","7","8","7","8","7","7","7","2","5","5","3","5","3","6","2","5","4","3","5","3","6","3","5","3","5","3","6","5","2","6","2","5","2","3","3","5","5","5","3","3","5","6","3","3","2","3","2","5","793067703773569025","黄","180","Female","[""好她"",""好我"",""坏我"",""坏她""]","[""强她"",""强我"",""弱我"",""弱她""]","","","","","","","","no","","","","","","","","","SRET","EW_formal","","key","j","16.664099009900923","768","428","自己","盲目","Negative","ability","","","","","","","","","","",""
"717","","f","psychophysics","58","217078","0.0-7.0-3.0-0.44","4","3","4","3","3","2","3","3","4","3","4","1","-2","1","1","-1","1","1","1","4","4","5","5","4","3","4","4","4","4","7","6","7","8","7","8","7","7","7","2","5","5","3","5","3","6","2","5","4","3","5","3","6","3","5","3","5","3","6","5","2","6","2","5","2","3","3","5","5","5","3","3","5","6","3","3","2","3","2","5","793067703773569025","黄","180","Female","[""好她"",""好我"",""坏我"",""坏她""]","[""强她"",""强我"",""弱我"",""弱她""]","","","","","","","","yes","","","","","","","","","SRET","EW_formal","","key","f","16.66414705882341","768","428","朋友","上进","Positive","ability","","","","","","","","","","",""
"623","","f","psychophysics","59","218706","0.0-7.0-3.0-0.45","4","3","4","3","3","2","3","3","4","3","4","1","-2","1","1","-1","1","1","1","4","4","5","5","4","3","4","4","4","4","7","6","7","8","7","8","7","7","7","2","5","5","3","5","3","6","2","5","4","3","5","3","6","3","5","3","5","3","6","5","2","6","2","5","2","3","3","5","5","5","3","3","5","6","3","3","2","3","2","5","793067703773569025","黄","180","Female","[""好她"",""好我"",""坏我"",""坏她""]","[""强她"",""强我"",""弱我"",""弱她""]","","","","","","","","yes","","","","","","","","","SRET","EW_formal","","key","f","16.66413402061858","768","428","自己","清廉","Positive","morality","","","","","","","","","","",""
"991","","j","psychophysics","60","220700","0.0-7.0-3.0-0.46","4","3","4","3","3","2","3","3","4","3","4","1","-2","1","1","-1","1","1","1","4","4","5","5","4","3","4","4","4","4","7","6","7","8","7","8","7","7","7","2","5","5","3","5","3","6","2","5","4","3","5","3","6","3","5","3","5","3","6","5","2","6","2","5","2","3","3","5","5","5","3","3","5","6","3","3","2","3","2","5","793067703773569025","黄","180","Female","[""好她"",""好我"",""坏我"",""坏她""]","[""强她"",""强我"",""弱我"",""弱她""]","","","","","","","","no","","","","","","","","","SRET","EW_formal","","key","j","16.663672268907675","768","428","朋友","笨蛋","Negative","ability","","","","","","","","","","",""
"964","","j","psychophysics","61","222668","0.0-7.0-3.0-0.47","4","3","4","3","3","2","3","3","4","3","4","1","-2","1","1","-1","1","1","1","4","4","5","5","4","3","4","4","4","4","7","6","7","8","7","8","7","7","7","2","5","5","3","5","3","6","2","5","4","3","5","3","6","3","5","3","5","3","6","5","2","6","2","5","2","3","3","5","5","5","3","3","5","6","3","3","2","3","2","5","793067703773569025","黄","180","Female","[""好她"",""好我"",""坏我"",""坏她""]","[""强她"",""强我"",""弱我"",""弱她""]","","","","","","","","no","","","","","","","","","SRET","EW_formal","","key","j","16.664410256410047","768","428","自己","侠义","Positive","morality","","","","","","","","","","",""
"771","","f","psychophysics","62","224442","0.0-7.0-3.0-0.48","4","3","4","3","3","2","3","3","4","3","4","1","-2","1","1","-1","1","1","1","4","4","5","5","4","3","4","4","4","4","7","6","7","8","7","8","7","7","7","2","5","5","3","5","3","6","2","5","4","3","5","3","6","3","5","3","5","3","6","5","2","6","2","5","2","3","3","5","5","5","3","3","5","6","3","3","2","3","2","5","793067703773569025","黄","180","Female","[""好她"",""好我"",""坏我"",""坏她""]","[""强她"",""强我"",""弱我"",""弱她""]","","","","","","","","yes","","","","","","","","","SRET","EW_formal","","key","f","16.663342857142975","768","428","自己","肯干","Positive","ability","","","","","","","","","","",""
"1295","","j","psychophysics","63","226741","0.0-7.0-3.0-0.49","4","3","4","3","3","2","3","3","4","3","4","1","-2","1","1","-1","1","1","1","4","4","5","5","4","3","4","4","4","4","7","6","7","8","7","8","7","7","7","2","5","5","3","5","3","6","2","5","4","3","5","3","6","3","5","3","5","3","6","5","2","6","2","5","2","3","3","5","5","5","3","3","5","6","3","3","2","3","2","5","793067703773569025","黄","180","Female","[""好她"",""好我"",""坏我"",""坏她""]","[""强她"",""强我"",""弱我"",""弱她""]","","","","","","","","no","","","","","","","","","SRET","EW_formal","","key","j","16.664080291970958","768","428","朋友","拖延","Negative","ability","","","","","","","","","","",""
"1080","","f","psychophysics","64","228824","0.0-7.0-3.0-0.50","4","3","4","3","3","2","3","3","4","3","4","1","-2","1","1","-1","1","1","1","4","4","5","5","4","3","4","4","4","4","7","6","7","8","7","8","7","7","7","2","5","5","3","5","3","6","2","5","4","3","5","3","6","3","5","3","5","3","6","5","2","6","2","5","2","3","3","5","5","5","3","3","5","6","3","3","2","3","2","5","793067703773569025","黄","180","Female","[""好她"",""好我"",""坏我"",""坏她""]","[""强她"",""强我"",""弱我"",""弱她""]","","","","","","","","yes","","","","","","","","","SRET","EW_formal","","key","f","16.66421774193558","768","428","朋友","迟钝","Negative","ability","","","","","","","","","","",""
"1227","","f","psychophysics","65","231055","0.0-7.0-3.0-0.51","4","3","4","3","3","2","3","3","4","3","4","1","-2","1","1","-1","1","1","1","4","4","5","5","4","3","4","4","4","4","7","6","7","8","7","8","7","7","7","2","5","5","3","5","3","6","2","5","4","3","5","3","6","3","5","3","5","3","6","5","2","6","2","5","2","3","3","5","5","5","3","3","5","6","3","3","2","3","2","5","793067703773569025","黄","180","Female","[""好她"",""好我"",""坏我"",""坏她""]","[""强她"",""强我"",""弱我"",""弱她""]","","","","","","","","yes","","","","","","","","","SRET","EW_formal","","key","f","16.662616541353362","768","428","朋友","短视","Negative","ability","","","","","","","","","","",""
"625","","j","psychophysics","66","232684","0.0-7.0-3.0-0.52","4","3","4","3","3","2","3","3","4","3","4","1","-2","1","1","-1","1","1","1","4","4","5","5","4","3","4","4","4","4","7","6","7","8","7","8","7","7","7","2","5","5","3","5","3","6","2","5","4","3","5","3","6","3","5","3","5","3","6","5","2","6","2","5","2","3","3","5","5","5","3","3","5","6","3","3","2","3","2","5","793067703773569025","黄","180","Female","[""好她"",""好我"",""坏我"",""坏她""]","[""强她"",""强我"",""弱我"",""弱她""]","","","","","","","","no","","","","","","","","","SRET","EW_formal","","key","j","16.66487628865997","768","428","自己","奸险","Negative","morality","","","","","","","","","","",""
"901","","j","psychophysics","67","234588","0.0-7.0-3.0-0.53","4","3","4","3","3","2","3","3","4","3","4","1","-2","1","1","-1","1","1","1","4","4","5","5","4","3","4","4","4","4","7","6","7","8","7","8","7","7","7","2","5","5","3","5","3","6","2","5","4","3","5","3","6","3","5","3","5","3","6","5","2","6","2","5","2","3","3","5","5","5","3","3","5","6","3","3","2","3","2","5","793067703773569025","黄","180","Female","[""好她"",""好我"",""坏我"",""坏她""]","[""强她"",""强我"",""弱我"",""弱她""]","","","","","","","","no","","","","","","","","","SRET","EW_formal","","key","j","16.66429203539825","768","428","朋友","愚蠢","Negative","ability","","","","","","","","","","",""
"1457","","j","psychophysics","68","237048","0.0-7.0-3.0-0.54","4","3","4","3","3","2","3","3","4","3","4","1","-2","1","1","-1","1","1","1","4","4","5","5","4","3","4","4","4","4","7","6","7","8","7","8","7","7","7","2","5","5","3","5","3","6","2","5","4","3","5","3","6","3","5","3","5","3","6","5","2","6","2","5","2","3","3","5","5","5","3","3","5","6","3","3","2","3","2","5","793067703773569025","黄","180","Female","[""好她"",""好我"",""坏我"",""坏她""]","[""强她"",""强我"",""弱我"",""弱她""]","","","","","","","","no","","","","","","","","","SRET","EW_formal","","key","j","16.66408163265303","768","428","朋友","思辨","Positive","ability","","","","","","","","","","",""
"1095","","j","psychophysics","69","239147","0.0-7.0-3.0-0.55","4","3","4","3","3","2","3","3","4","3","4","1","-2","1","1","-1","1","1","1","4","4","5","5","4","3","4","4","4","4","7","6","7","8","7","8","7","7","7","2","5","5","3","5","3","6","2","5","4","3","5","3","6","3","5","3","5","3","6","5","2","6","2","5","2","3","3","5","5","5","3","3","5","6","3","3","2","3","2","5","793067703773569025","黄","180","Female","[""好她"",""好我"",""坏我"",""坏她""]","[""强她"",""强我"",""弱我"",""弱她""]","","","","","","","","no","","","","","","","","","SRET","EW_formal","","key","j","16.663992000000086","768","428","朋友","无敌","Positive","ability","","","","","","","","","","",""
"916","","f","psychophysics","70","241067","0.0-7.0-3.0-0.56","4","3","4","3","3","2","3","3","4","3","4","1","-2","1","1","-1","1","1","1","4","4","5","5","4","3","4","4","4","4","7","6","7","8","7","8","7","7","7","2","5","5","3","5","3","6","2","5","4","3","5","3","6","3","5","3","5","3","6","5","2","6","2","5","2","3","3","5","5","5","3","3","5","6","3","3","2","3","2","5","793067703773569025","黄","180","Female","[""好她"",""好我"",""坏我"",""坏她""]","[""强她"",""强我"",""弱我"",""弱她""]","","","","","","","","yes","","","","","","","","","SRET","EW_formal","","key","f","16.666350877193047","768","428","自己","敏捷","Positive","ability","","","","","","","","","","",""
"599","","f","psychophysics","71","242668","0.0-7.0-3.0-0.57","4","3","4","3","3","2","3","3","4","3","4","1","-2","1","1","-1","1","1","1","4","4","5","5","4","3","4","4","4","4","7","6","7","8","7","8","7","7","7","2","5","5","3","5","3","6","2","5","4","3","5","3","6","3","5","3","5","3","6","5","2","6","2","5","2","3","3","5","5","5","3","3","5","6","3","3","2","3","2","5","793067703773569025","黄","180","Female","[""好她"",""好我"",""坏我"",""坏她""]","[""强她"",""强我"",""弱我"",""弱她""]","","","","","","","","yes","","","","","","","","","SRET","EW_formal","","key","f","16.663536842105188","768","428","自己","善良","Positive","morality","","","","","","","","","","",""
"708","","f","psychophysics","72","244380","0.0-7.0-3.0-0.58","4","3","4","3","3","2","3","3","4","3","4","1","-2","1","1","-1","1","1","1","4","4","5","5","4","3","4","4","4","4","7","6","7","8","7","8","7","7","7","2","5","5","3","5","3","6","2","5","4","3","5","3","6","3","5","3","5","3","6","5","2","6","2","5","2","3","3","5","5","5","3","3","5","6","3","3","2","3","2","5","793067703773569025","黄","180","Female","[""好她"",""好我"",""坏我"",""坏她""]","[""强她"",""强我"",""弱我"",""弱她""]","","","","","","","","yes","","","","","","","","","SRET","EW_formal","","key","f","16.66335294117658","768","428","朋友","敬业","Positive","morality","","","","","","","","","","",""
"781","","f","psychophysics","73","246164","0.0-7.0-3.0-0.59","4","3","4","3","3","2","3","3","4","3","4","1","-2","1","1","-1","1","1","1","4","4","5","5","4","3","4","4","4","4","7","6","7","8","7","8","7","7","7","2","5","5","3","5","3","6","2","5","4","3","5","3","6","3","5","3","5","3","6","5","2","6","2","5","2","3","3","5","5","5","3","3","5","6","3","3","2","3","2","5","793067703773569025","黄","180","Female","[""好她"",""好我"",""坏我"",""坏她""]","[""强她"",""强我"",""弱我"",""弱她""]","","","","","","","","yes","","","","","","","","","SRET","EW_formal","","key","f","16.664905660377457","768","428","朋友","谦逊","Positive","morality","","","","","","","","","","",""
"643","","j","psychophysics","74","247809","0.0-7.0-3.0-0.60","4","3","4","3","3","2","3","3","4","3","4","1","-2","1","1","-1","1","1","1","4","4","5","5","4","3","4","4","4","4","7","6","7","8","7","8","7","7","7","2","5","5","3","5","3","6","2","5","4","3","5","3","6","3","5","3","5","3","6","5","2","6","2","5","2","3","3","5","5","5","3","3","5","6","3","3","2","3","2","5","793067703773569025","黄","180","Female","[""好她"",""好我"",""坏我"",""坏她""]","[""强她"",""强我"",""弱我"",""弱她""]","","","","","","","","no","","","","","","","","","SRET","EW_formal","","key","j","16.66428865979368","768","428","自己","蛇蝎","Negative","morality","","","","","","","","","","",""
"640","","j","psychophysics","75","249452","0.0-7.0-3.0-0.61","4","3","4","3","3","2","3","3","4","3","4","1","-2","1","1","-1","1","1","1","4","4","5","5","4","3","4","4","4","4","7","6","7","8","7","8","7","7","7","2","5","5","3","5","3","6","2","5","4","3","5","3","6","3","5","3","5","3","6","5","2","6","2","5","2","3","3","5","5","5","3","3","5","6","3","3","2","3","2","5","793067703773569025","黄","180","Female","[""好她"",""好我"",""坏我"",""坏她""]","[""强她"",""强我"",""弱我"",""弱她""]","","","","","","","","no","","","","","","","","","SRET","EW_formal","","key","j","16.835989690721505","768","428","自己","无耻","Negative","morality","","","","","","","","","","",""
"745","","j","psychophysics","76","251200","0.0-7.0-3.0-0.62","4","3","4","3","3","2","3","3","4","3","4","1","-2","1","1","-1","1","1","1","4","4","5","5","4","3","4","4","4","4","7","6","7","8","7","8","7","7","7","2","5","5","3","5","3","6","2","5","4","3","5","3","6","3","5","3","5","3","6","5","2","6","2","5","2","3","3","5","5","5","3","3","5","6","3","3","2","3","2","5","793067703773569025","黄","180","Female","[""好她"",""好我"",""坏我"",""坏她""]","[""强她"",""强我"",""弱我"",""弱她""]","","","","","","","","no","","","","","","","","","SRET","EW_formal","","key","j","16.66445192307695","768","428","自己","无能","Negative","ability","","","","","","","","","","",""
"796","","f","psychophysics","77","253000","0.0-7.0-3.0-0.63","4","3","4","3","3","2","3","3","4","3","4","1","-2","1","1","-1","1","1","1","4","4","5","5","4","3","4","4","4","4","7","6","7","8","7","8","7","7","7","2","5","5","3","5","3","6","2","5","4","3","5","3","6","3","5","3","5","3","6","5","2","6","2","5","2","3","3","5","5","5","3","3","5","6","3","3","2","3","2","5","793067703773569025","黄","180","Female","[""好她"",""好我"",""坏我"",""坏她""]","[""强她"",""强我"",""弱我"",""弱她""]","","","","","","","","yes","","","","","","","","","SRET","EW_formal","","key","f","16.66476635514023","768","428","朋友","高尚","Positive","morality","","","","","","","","","","",""
"1208","","j","psychophysics","78","255211","0.0-7.0-3.0-0.64","4","3","4","3","3","2","3","3","4","3","4","1","-2","1","1","-1","1","1","1","4","4","5","5","4","3","4","4","4","4","7","6","7","8","7","8","7","7","7","2","5","5","3","5","3","6","2","5","4","3","5","3","6","3","5","3","5","3","6","5","2","6","2","5","2","3","3","5","5","5","3","3","5","6","3","3","2","3","2","5","793067703773569025","黄","180","Female","[""好她"",""好我"",""坏我"",""坏她""]","[""强她"",""强我"",""弱我"",""弱她""]","","","","","","","","no","","","","","","","","","SRET","EW_formal","","key","j","16.664553030302958","768","428","自己","屈才","Negative","ability","","","","","","","","","","",""
"1082","","f","psychophysics","79","257298","0.0-7.0-3.0-0.65","4","3","4","3","3","2","3","3","4","3","4","1","-2","1","1","-1","1","1","1","4","4","5","5","4","3","4","4","4","4","7","6","7","8","7","8","7","7","7","2","5","5","3","5","3","6","2","5","4","3","5","3","6","3","5","3","5","3","6","5","2","6","2","5","2","3","3","5","5","5","3","3","5","6","3","3","2","3","2","5","793067703773569025","黄","180","Female","[""好她"",""好我"",""坏我"",""坏她""]","[""强她"",""强我"",""弱我"",""弱她""]","","","","","","","","yes","","","","","","","","","SRET","EW_formal","","key","f","16.66475000000003","768","428","朋友","犹豫","Negative","ability","","","","","","","","","","",""
"577","","j","psychophysics","80","258878","0.0-7.0-3.0-0.66","4","3","4","3","3","2","3","3","4","3","4","1","-2","1","1","-1","1","1","1","4","4","5","5","4","3","4","4","4","4","7","6","7","8","7","8","7","7","7","2","5","5","3","5","3","6","2","5","4","3","5","3","6","3","5","3","5","3","6","5","2","6","2","5","2","3","3","5","5","5","3","3","5","6","3","3","2","3","2","5","793067703773569025","黄","180","Female","[""好她"",""好我"",""坏我"",""坏她""]","[""强她"",""强我"",""弱我"",""弱她""]","","","","","","","","no","","","","","","","","","SRET","EW_formal","","key","j","16.664712765957525","768","428","自己","昏庸","Negative","ability","","","","","","","","","","",""
"717","","j","psychophysics","81","260598","0.0-7.0-3.0-0.67","4","3","4","3","3","2","3","3","4","3","4","1","-2","1","1","-1","1","1","1","4","4","5","5","4","3","4","4","4","4","7","6","7","8","7","8","7","7","7","2","5","5","3","5","3","6","2","5","4","3","5","3","6","3","5","3","5","3","6","5","2","6","2","5","2","3","3","5","5","5","3","3","5","6","3","3","2","3","2","5","793067703773569025","黄","180","Female","[""好她"",""好我"",""坏我"",""坏她""]","[""强她"",""强我"",""弱我"",""弱她""]","","","","","","","","no","","","","","","","","","SRET","EW_formal","","key","j","16.66411764705902","768","428","朋友","浅薄","Negative","ability","","","","","","","","","","",""
"737","","f","psychophysics","82","262338","0.0-7.0-3.0-0.68","4","3","4","3","3","2","3","3","4","3","4","1","-2","1","1","-1","1","1","1","4","4","5","5","4","3","4","4","4","4","7","6","7","8","7","8","7","7","7","2","5","5","3","5","3","6","2","5","4","3","5","3","6","3","5","3","5","3","6","5","2","6","2","5","2","3","3","5","5","5","3","3","5","6","3","3","2","3","2","5","793067703773569025","黄","180","Female","[""好她"",""好我"",""坏我"",""坏她""]","[""强她"",""强我"",""弱我"",""弱她""]","","","","","","","","yes","","","","","","","","","SRET","EW_formal","","key","f","16.66419417475739","768","428","自己","自律","Positive","ability","","","","","","","","","","",""
"704","","j","psychophysics","83","264046","0.0-7.0-3.0-0.69","4","3","4","3","3","2","3","3","4","3","4","1","-2","1","1","-1","1","1","1","4","4","5","5","4","3","4","4","4","4","7","6","7","8","7","8","7","7","7","2","5","5","3","5","3","6","2","5","4","3","5","3","6","3","5","3","5","3","6","5","2","6","2","5","2","3","3","5","5","5","3","3","5","6","3","3","2","3","2","5","793067703773569025","黄","180","Female","[""好她"",""好我"",""坏我"",""坏她""]","[""强她"",""强我"",""弱我"",""弱她""]","","","","","","","","no","","","","","","","","","SRET","EW_formal","","key","j","16.665156862745288","768","428","朋友","自私","Negative","morality","","","","","","","","","","",""
"661","","f","psychophysics","84","265710","0.0-7.0-3.0-0.70","4","3","4","3","3","2","3","3","4","3","4","1","-2","1","1","-1","1","1","1","4","4","5","5","4","3","4","4","4","4","7","6","7","8","7","8","7","7","7","2","5","5","3","5","3","6","2","5","4","3","5","3","6","3","5","3","5","3","6","5","2","6","2","5","2","3","3","5","5","5","3","3","5","6","3","3","2","3","2","5","793067703773569025","黄","180","Female","[""好她"",""好我"",""坏我"",""坏她""]","[""强她"",""强我"",""弱我"",""弱她""]","","","","","","","","yes","","","","","","","","","SRET","EW_formal","","key","f","16.66440404040417","768","428","自己","孝顺","Positive","morality","","","","","","","","","","",""
"578","","f","psychophysics","85","267292","0.0-7.0-3.0-0.71","4","3","4","3","3","2","3","3","4","3","4","1","-2","1","1","-1","1","1","1","4","4","5","5","4","3","4","4","4","4","7","6","7","8","7","8","7","7","7","2","5","5","3","5","3","6","2","5","4","3","5","3","6","3","5","3","5","3","6","5","2","6","2","5","2","3","3","5","5","5","3","3","5","6","3","3","2","3","2","5","793067703773569025","黄","180","Female","[""好她"",""好我"",""坏我"",""坏她""]","[""强她"",""强我"",""弱我"",""弱她""]","","","","","","","","yes","","","","","","","","","SRET","EW_formal","","key","f","16.66439361702106","768","428","朋友","廉正","Positive","morality","","","","","","","","","","",""
"664","","j","psychophysics","86","268958","0.0-7.0-3.0-0.72","4","3","4","3","3","2","3","3","4","3","4","1","-2","1","1","-1","1","1","1","4","4","5","5","4","3","4","4","4","4","7","6","7","8","7","8","7","7","7","2","5","5","3","5","3","6","2","5","4","3","5","3","6","3","5","3","5","3","6","5","2","6","2","5","2","3","3","5","5","5","3","3","5","6","3","3","2","3","2","5","793067703773569025","黄","180","Female","[""好她"",""好我"",""坏我"",""坏她""]","[""强她"",""强我"",""弱我"",""弱她""]","","","","","","","","no","","","","","","","","","SRET","EW_formal","","key","j","16.665010101009617","768","428","自己","诡诈","Negative","morality","","","","","","","","","","",""
"678","","f","psychophysics","87","270641","0.0-7.0-3.0-0.73","4","3","4","3","3","2","3","3","4","3","4","1","-2","1","1","-1","1","1","1","4","4","5","5","4","3","4","4","4","4","7","6","7","8","7","8","7","7","7","2","5","5","3","5","3","6","2","5","4","3","5","3","6","3","5","3","5","3","6","5","2","6","2","5","2","3","3","5","5","5","3","3","5","6","3","3","2","3","2","5","793067703773569025","黄","180","Female","[""好她"",""好我"",""坏我"",""坏她""]","[""强她"",""强我"",""弱我"",""弱她""]","","","","","","","","yes","","","","","","","","","SRET","EW_formal","","key","f","16.66505999999994","768","428","自己","新手","Negative","ability","","","","","","","","","","",""
"1180","","f","psychophysics","88","272824","0.0-7.0-3.0-0.74","4","3","4","3","3","2","3","3","4","3","4","1","-2","1","1","-1","1","1","1","4","4","5","5","4","3","4","4","4","4","7","6","7","8","7","8","7","7","7","2","5","5","3","5","3","6","2","5","4","3","5","3","6","3","5","3","5","3","6","5","2","6","2","5","2","3","3","5","5","5","3","3","5","6","3","3","2","3","2","5","793067703773569025","黄","180","Female","[""好她"",""好我"",""坏我"",""坏她""]","[""强她"",""强我"",""弱我"",""弱她""]","","","","","","","","yes","","","","","","","","","SRET","EW_formal","","key","f","16.663876923076952","768","428","自己","粗心","Negative","ability","","","","","","","","","","",""
"599","","f","psychophysics","89","274426","0.0-7.0-3.0-0.75","4","3","4","3","3","2","3","3","4","3","4","1","-2","1","1","-1","1","1","1","4","4","5","5","4","3","4","4","4","4","7","6","7","8","7","8","7","7","7","2","5","5","3","5","3","6","2","5","4","3","5","3","6","3","5","3","5","3","6","5","2","6","2","5","2","3","3","5","5","5","3","3","5","6","3","3","2","3","2","5","793067703773569025","黄","180","Female","[""好她"",""好我"",""坏我"",""坏她""]","[""强她"",""强我"",""弱我"",""弱她""]","","","","","","","","yes","","","","","","","","","SRET","EW_formal","","key","f","16.665094736842192","768","428","朋友","智慧","Positive","ability","","","","","","","","","","",""
"912","","f","psychophysics","90","276341","0.0-7.0-3.0-0.76","4","3","4","3","3","2","3","3","4","3","4","1","-2","1","1","-1","1","1","1","4","4","5","5","4","3","4","4","4","4","7","6","7","8","7","8","7","7","7","2","5","5","3","5","3","6","2","5","4","3","5","3","6","3","5","3","5","3","6","5","2","6","2","5","2","3","3","5","5","5","3","3","5","6","3","3","2","3","2","5","793067703773569025","黄","180","Female","[""好她"",""好我"",""坏我"",""坏她""]","[""强她"",""强我"",""弱我"",""弱她""]","","","","","","","","yes","","","","","","","","","SRET","EW_formal","","key","f","16.664157894737162","768","428","自己","仗义","Positive","morality","","","","","","","","","","",""
"763","","j","psychophysics","91","278106","0.0-7.0-3.0-0.77","4","3","4","3","3","2","3","3","4","3","4","1","-2","1","1","-1","1","1","1","4","4","5","5","4","3","4","4","4","4","7","6","7","8","7","8","7","7","7","2","5","5","3","5","3","6","2","5","4","3","5","3","6","3","5","3","5","3","6","5","2","6","2","5","2","3","3","5","5","5","3","3","5","6","3","3","2","3","2","5","793067703773569025","黄","180","Female","[""好她"",""好我"",""坏我"",""坏她""]","[""强她"",""强我"",""弱我"",""弱她""]","","","","","","","","no","","","","","","","","","SRET","EW_formal","","key","j","16.665266666666692","768","428","朋友","势利","Negative","morality","","","","","","","","","","",""
"703","","j","psychophysics","92","279813","0.0-7.0-3.0-0.78","4","3","4","3","3","2","3","3","4","3","4","1","-2","1","1","-1","1","1","1","4","4","5","5","4","3","4","4","4","4","7","6","7","8","7","8","7","7","7","2","5","5","3","5","3","6","2","5","4","3","5","3","6","3","5","3","5","3","6","5","2","6","2","5","2","3","3","5","5","5","3","3","5","6","3","3","2","3","2","5","793067703773569025","黄","180","Female","[""好她"",""好我"",""坏我"",""坏她""]","[""强她"",""强我"",""弱我"",""弱她""]","","","","","","","","no","","","","","","","","","SRET","EW_formal","","key","j","16.663564356435252","768","428","朋友","虚伪","Negative","morality","","","","","","","","","","",""
"804","","f","psychophysics","93","281619","0.0-7.0-3.0-0.79","4","3","4","3","3","2","3","3","4","3","4","1","-2","1","1","-1","1","1","1","4","4","5","5","4","3","4","4","4","4","7","6","7","8","7","8","7","7","7","2","5","5","3","5","3","6","2","5","4","3","5","3","6","3","5","3","5","3","6","5","2","6","2","5","2","3","3","5","5","5","3","3","5","6","3","3","2","3","2","5","793067703773569025","黄","180","Female","[""好她"",""好我"",""坏我"",""坏她""]","[""强她"",""强我"",""弱我"",""弱她""]","","","","","","","","yes","","","","","","","","","SRET","EW_formal","","key","f","16.665467289719235","768","428","自己","利落","Positive","ability","","","","","","","","","","",""
"576","","f","psychophysics","94","283199","0.0-7.0-3.0-0.80","4","3","4","3","3","2","3","3","4","3","4","1","-2","1","1","-1","1","1","1","4","4","5","5","4","3","4","4","4","4","7","6","7","8","7","8","7","7","7","2","5","5","3","5","3","6","2","5","4","3","5","3","6","3","5","3","5","3","6","5","2","6","2","5","2","3","3","5","5","5","3","3","5","6","3","3","2","3","2","5","793067703773569025","黄","180","Female","[""好她"",""好我"",""坏我"",""坏她""]","[""强她"",""强我"",""弱我"",""弱她""]","","","","","","","","yes","","","","","","","","","SRET","EW_formal","","key","f","16.663808510638155","768","428","自己","守时","Positive","morality","","","","","","","","","","",""
"711","","f","psychophysics","95","284914","0.0-7.0-3.0-0.81","4","3","4","3","3","2","3","3","4","3","4","1","-2","1","1","-1","1","1","1","4","4","5","5","4","3","4","4","4","4","7","6","7","8","7","8","7","7","7","2","5","5","3","5","3","6","2","5","4","3","5","3","6","3","5","3","5","3","6","5","2","6","2","5","2","3","3","5","5","5","3","3","5","6","3","3","2","3","2","5","793067703773569025","黄","180","Female","[""好她"",""好我"",""坏我"",""坏她""]","[""强她"",""强我"",""弱我"",""弱她""]","","","","","","","","yes","","","","","","","","","SRET","EW_formal","","key","f","16.664127450980196","768","428","自己","刻苦","Positive","ability","","","","","","","","","","",""
"1064","","f","psychophysics","96","286982","0.0-7.0-3.0-0.82","4","3","4","3","3","2","3","3","4","3","4","1","-2","1","1","-1","1","1","1","4","4","5","5","4","3","4","4","4","4","7","6","7","8","7","8","7","7","7","2","5","5","3","5","3","6","2","5","4","3","5","3","6","3","5","3","5","3","6","5","2","6","2","5","2","3","3","5","5","5","3","3","5","6","3","3","2","3","2","5","793067703773569025","黄","180","Female","[""好她"",""好我"",""坏我"",""坏她""]","[""强她"",""强我"",""弱我"",""弱她""]","","","","","","","","yes","","","","","","","","","SRET","EW_formal","","key","f","16.66400813008138","768","428","自己","拖拉","Negative","ability","","","","","","","","","","",""
"584","","j","psychophysics","97","288571","0.0-7.0-3.0-0.83","4","3","4","3","3","2","3","3","4","3","4","1","-2","1","1","-1","1","1","1","4","4","5","5","4","3","4","4","4","4","7","6","7","8","7","8","7","7","7","2","5","5","3","5","3","6","2","5","4","3","5","3","6","3","5","3","5","3","6","5","2","6","2","5","2","3","3","5","5","5","3","3","5","6","3","3","2","3","2","5","793067703773569025","黄","180","Female","[""好她"",""好我"",""坏我"",""坏她""]","[""强她"",""强我"",""弱我"",""弱她""]","","","","","","","","no","","","","","","","","","SRET","EW_formal","","key","j","16.664347368420568","768","428","自己","阴毒","Negative","morality","","","","","","","","","","",""
"1200","","f","psychophysics","98","290774","0.0-7.0-3.0-0.84","4","3","4","3","3","2","3","3","4","3","4","1","-2","1","1","-1","1","1","1","4","4","5","5","4","3","4","4","4","4","7","6","7","8","7","8","7","7","7","2","5","5","3","5","3","6","2","5","4","3","5","3","6","3","5","3","5","3","6","5","2","6","2","5","2","3","3","5","5","5","3","3","5","6","3","3","2","3","2","5","793067703773569025","黄","180","Female","[""好她"",""好我"",""坏我"",""坏她""]","[""强她"",""强我"",""弱我"",""弱她""]","","","","","","","","yes","","","","","","","","","SRET","EW_formal","","key","f","16.664335877862527","768","428","朋友","素养","Positive","morality","","","","","","","","","","",""
"1035","","f","psychophysics","99","292813","0.0-7.0-3.0-0.85","4","3","4","3","3","2","3","3","4","3","4","1","-2","1","1","-1","1","1","1","4","4","5","5","4","3","4","4","4","4","7","6","7","8","7","8","7","7","7","2","5","5","3","5","3","6","2","5","4","3","5","3","6","3","5","3","5","3","6","5","2","6","2","5","2","3","3","5","5","5","3","3","5","6","3","3","2","3","2","5","793067703773569025","黄","180","Female","[""好她"",""好我"",""坏我"",""坏她""]","[""强她"",""强我"",""弱我"",""弱她""]","","","","","","","","yes","","","","","","","","","SRET","EW_formal","","key","f","16.66338842975222","768","428","自己","缓慢","Negative","ability","","","","","","","","","","",""
"624","","j","psychophysics","100","294438","0.0-7.0-3.0-0.86","4","3","4","3","3","2","3","3","4","3","4","1","-2","1","1","-1","1","1","1","4","4","5","5","4","3","4","4","4","4","7","6","7","8","7","8","7","7","7","2","5","5","3","5","3","6","2","5","4","3","5","3","6","3","5","3","5","3","6","5","2","6","2","5","2","3","3","5","5","5","3","3","5","6","3","3","2","3","2","5","793067703773569025","黄","180","Female","[""好她"",""好我"",""坏我"",""坏她""]","[""强她"",""强我"",""弱我"",""弱她""]","","","","","","","","no","","","","","","","","","SRET","EW_formal","","key","j","16.665546391752773","768","428","朋友","低俗","Negative","morality","","","","","","","","","","",""
"570","","f","psychophysics","101","296019","0.0-7.0-3.0-0.87","4","3","4","3","3","2","3","3","4","3","4","1","-2","1","1","-1","1","1","1","4","4","5","5","4","3","4","4","4","4","7","6","7","8","7","8","7","7","7","2","5","5","3","5","3","6","2","5","4","3","5","3","6","3","5","3","5","3","6","5","2","6","2","5","2","3","3","5","5","5","3","3","5","6","3","3","2","3","2","5","793067703773569025","黄","180","Female","[""好她"",""好我"",""坏我"",""坏她""]","[""强她"",""强我"",""弱我"",""弱她""]","","","","","","","","yes","","","","","","","","","SRET","EW_formal","","key","f","16.66481914893635","768","428","自己","主见","Positive","ability","","","","","","","","","","",""
"47845","
    <p><div style='color:white;font-size:35px; line-height:20px;'>计算任务</div></p><br>
    <p><div style='color:red;font-size:25px; line-height:20px;'>接下来，您将看到一些四则运算题，<b>请从键盘选择 0-9 进行反应。</b></div></p>
    <p><div style='color:red;font-size:25px; line-height:20px;'>请尽可能快地进行计算，计算的速度和正确率将影响报酬的发放。</div></p>
    <p><div class='footer' style='color:white;font-size:25px; line-height:20px;'>如果对本实验还有不清楚之处，请立即向实验员咨询。</p><p style='color:white;font-size:25px; line-height:20px;'>如果您明白了规则：</p><p style='color:white;font-size:22px; line-height:20px;'>请按 继续 进入练习</p>
    </div>
    ","0","html-button-response","102","343867","0.0-7.0-4.0","4","3","4","3","3","2","3","3","4","3","4","1","-2","1","1","-1","1","1","1","4","4","5","5","4","3","4","4","4","4","7","6","7","8","7","8","7","7","7","2","5","5","3","5","3","6","2","5","4","3","5","3","6","3","5","3","5","3","6","5","2","6","2","5","2","3","3","5","5","5","3","3","5","6","3","3","2","3","2","5","793067703773569025","黄","180","Female","[""好她"",""好我"",""坏我"",""坏她""]","[""强她"",""强我"",""弱我"",""弱她""]","","","","","","","","","","","","","","","","","SRET_math","math_instructions","Thu Jan 11 2024 09:07:13 GMT+0800 (中国标准时间)","","","","","","","","","","","","","","","","","","","",""
"2746","","7","psychophysics","103","346618","0.0-7.0-5.0-0.0","4","3","4","3","3","2","3","3","4","3","4","1","-2","1","1","-1","1","1","1","4","4","5","5","4","3","4","4","4","4","7","6","7","8","7","8","7","7","7","2","5","5","3","5","3","6","2","5","4","3","5","3","6","3","5","3","5","3","6","5","2","6","2","5","2","3","3","5","5","5","3","3","5","6","3","3","2","3","2","5","793067703773569025","黄","180","Female","[""好她"",""好我"",""坏我"",""坏她""]","[""强她"",""强我"",""弱我"",""弱她""]","","","","","","","","7","","","","","","","","","SRET","SRET_math_calculate","","key","7","16.66349696969705","768","428","","","","","7*1=  ?","7","1","","","","","","","",""
"2029","","7","psychophysics","104","348654","0.0-7.0-5.0-0.1","4","3","4","3","3","2","3","3","4","3","4","1","-2","1","1","-1","1","1","1","4","4","5","5","4","3","4","4","4","4","7","6","7","8","7","8","7","7","7","2","5","5","3","5","3","6","2","5","4","3","5","3","6","3","5","3","5","3","6","5","2","6","2","5","2","3","3","5","5","5","3","3","5","6","3","3","2","3","2","5","793067703773569025","黄","180","Female","[""好她"",""好我"",""坏我"",""坏她""]","[""强她"",""强我"",""弱我"",""弱她""]","","","","","","","","7","","","","","","","","","SRET","SRET_math_calculate","","key","7","16.664256198347108","768","428","","","","","9-2= ?","7","1","","","","","","","",""
"2389","","8","psychophysics","105","351054","0.0-7.0-5.0-0.2","4","3","4","3","3","2","3","3","4","3","4","1","-2","1","1","-1","1","1","1","4","4","5","5","4","3","4","4","4","4","7","6","7","8","7","8","7","7","7","2","5","5","3","5","3","6","2","5","4","3","5","3","6","3","5","3","5","3","6","5","2","6","2","5","2","3","3","5","5","5","3","3","5","6","3","3","2","3","2","5","793067703773569025","黄","180","Female","[""好她"",""好我"",""坏我"",""坏她""]","[""强她"",""强我"",""弱我"",""弱她""]","","","","","","","","8","","","","","","","","","SRET","SRET_math_calculate","","key","8","16.664013986014176","768","428","","","","","11-3= ?","8","1","","","","","","","",""
"1995","","8","psychophysics","106","353059","0.0-7.0-5.0-0.3","4","3","4","3","3","2","3","3","4","3","4","1","-2","1","1","-1","1","1","1","4","4","5","5","4","3","4","4","4","4","7","6","7","8","7","8","7","7","7","2","5","5","3","5","3","6","2","5","4","3","5","3","6","3","5","3","5","3","6","5","2","6","2","5","2","3","3","5","5","5","3","3","5","6","3","3","2","3","2","5","793067703773569025","黄","180","Female","[""好她"",""好我"",""坏我"",""坏她""]","[""强她"",""强我"",""弱我"",""弱她""]","","","","","","","","8","","","","","","","","","SRET","SRET_math_calculate","","key","8","16.664833333333565","768","428","","","","","2*4= ?","8","1","","","","","","","",""
"1892","","9","psychophysics","107","354956","0.0-7.0-5.0-0.4","4","3","4","3","3","2","3","3","4","3","4","1","-2","1","1","-1","1","1","1","4","4","5","5","4","3","4","4","4","4","7","6","7","8","7","8","7","7","7","2","5","5","3","5","3","6","2","5","4","3","5","3","6","3","5","3","5","3","6","5","2","6","2","5","2","3","3","5","5","5","3","3","5","6","3","3","2","3","2","5","793067703773569025","黄","180","Female","[""好她"",""好我"",""坏我"",""坏她""]","[""强她"",""强我"",""弱我"",""弱她""]","","","","","","","","9","","","","","","","","","SRET","SRET_math_calculate","","key","9","16.66404424778771","768","428","","","","","5+4= ?","9","1","","","","","","","",""
"1908","","8","psychophysics","108","356870","0.0-7.0-5.0-0.5","4","3","4","3","3","2","3","3","4","3","4","1","-2","1","1","-1","1","1","1","4","4","5","5","4","3","4","4","4","4","7","6","7","8","7","8","7","7","7","2","5","5","3","5","3","6","2","5","4","3","5","3","6","3","5","3","5","3","6","5","2","6","2","5","2","3","3","5","5","5","3","3","5","6","3","3","2","3","2","5","793067703773569025","黄","180","Female","[""好她"",""好我"",""坏我"",""坏她""]","[""强她"",""强我"",""弱我"",""弱她""]","","","","","","","","8","","","","","","","","","SRET","SRET_math_calculate","","key","8","16.664681415929174","768","428","","","","","1+7= ?","8","1","","","","","","","",""
"2006","","8","psychophysics","109","358886","0.0-7.0-5.0-0.6","4","3","4","3","3","2","3","3","4","3","4","1","-2","1","1","-1","1","1","1","4","4","5","5","4","3","4","4","4","4","7","6","7","8","7","8","7","7","7","2","5","5","3","5","3","6","2","5","4","3","5","3","6","3","5","3","5","3","6","5","2","6","2","5","2","3","3","5","5","5","3","3","5","6","3","3","2","3","2","5","793067703773569025","黄","180","Female","[""好她"",""好我"",""坏我"",""坏她""]","[""强她"",""强我"",""弱我"",""弱她""]","","","","","","","","8","","","","","","","","","SRET","SRET_math_calculate","","key","8","16.664400000000022","768","428","","","","","4*2= ?","8","1","","","","","","","",""
"3091","","2","psychophysics","110","361986","0.0-7.0-5.0-0.7","4","3","4","3","3","2","3","3","4","3","4","1","-2","1","1","-1","1","1","1","4","4","5","5","4","3","4","4","4","4","7","6","7","8","7","8","7","7","7","2","5","5","3","5","3","6","2","5","4","3","5","3","6","3","5","3","5","3","6","5","2","6","2","5","2","3","3","5","5","5","3","3","5","6","3","3","2","3","2","5","793067703773569025","黄","180","Female","[""好她"",""好我"",""坏我"",""坏她""]","[""强她"",""强我"",""弱我"",""弱她""]","","","","","","","","2","","","","","","","","","SRET","SRET_math_calculate","","key","2","16.66349189189181","768","428","","","","","90/45= ?","2","1","","","","","","","",""
"2121","","3","psychophysics","111","364121","0.0-7.0-5.0-0.8","4","3","4","3","3","2","3","3","4","3","4","1","-2","1","1","-1","1","1","1","4","4","5","5","4","3","4","4","4","4","7","6","7","8","7","8","7","7","7","2","5","5","3","5","3","6","2","5","4","3","5","3","6","3","5","3","5","3","6","5","2","6","2","5","2","3","3","5","5","5","3","3","5","6","3","3","2","3","2","5","793067703773569025","黄","180","Female","[""好她"",""好我"",""坏我"",""坏她""]","[""强她"",""强我"",""弱我"",""弱她""]","","","","","","","","3","","","","","","","","","SRET","SRET_math_calculate","","key","3","16.663312499999847","768","428","","","","","8-5= ?","3","1","","","","","","","",""
"2117","","7","psychophysics","112","366245","0.0-7.0-5.0-0.9","4","3","4","3","3","2","3","3","4","3","4","1","-2","1","1","-1","1","1","1","4","4","5","5","4","3","4","4","4","4","7","6","7","8","7","8","7","7","7","2","5","5","3","5","3","6","2","5","4","3","5","3","6","3","5","3","5","3","6","5","2","6","2","5","2","3","3","5","5","5","3","3","5","6","3","3","2","3","2","5","793067703773569025","黄","180","Female","[""好她"",""好我"",""坏我"",""坏她""]","[""强她"",""强我"",""弱我"",""弱她""]","","","","","","","","7","","","","","","","","","SRET","SRET_math_calculate","","key","7","16.664468253968238","768","428","","","","","1+6= ?","7","1","","","","","","","",""
"1805","","5","psychophysics","113","368055","0.0-7.0-5.0-0.10","4","3","4","3","3","2","3","3","4","3","4","1","-2","1","1","-1","1","1","1","4","4","5","5","4","3","4","4","4","4","7","6","7","8","7","8","7","7","7","2","5","5","3","5","3","6","2","5","4","3","5","3","6","3","5","3","5","3","6","5","2","6","2","5","2","3","3","5","5","5","3","3","5","6","3","3","2","3","2","5","793067703773569025","黄","180","Female","[""好她"",""好我"",""坏我"",""坏她""]","[""强她"",""强我"",""弱我"",""弱她""]","","","","","","","","5","","","","","","","","","SRET","SRET_math_calculate","","key","5","16.66466666666653","768","428","","","","","3+2= ?","5","1","","","","","","","",""
"2144","","0","psychophysics","114","370204","0.0-7.0-5.0-0.11","4","3","4","3","3","2","3","3","4","3","4","1","-2","1","1","-1","1","1","1","4","4","5","5","4","3","4","4","4","4","7","6","7","8","7","8","7","7","7","2","5","5","3","5","3","6","2","5","4","3","5","3","6","3","5","3","5","3","6","5","2","6","2","5","2","3","3","5","5","5","3","3","5","6","3","3","2","3","2","5","793067703773569025","黄","180","Female","[""好她"",""好我"",""坏我"",""坏她""]","[""强她"",""强我"",""弱我"",""弱她""]","","","","","","","","0","","","","","","","","","SRET","SRET_math_calculate","","key","0","16.664031250000335","768","428","","","","","6*0= ?","0","1","","","","","","","",""
"2235","","2","psychophysics","115","372445","0.0-7.0-5.0-0.12","4","3","4","3","3","2","3","3","4","3","4","1","-2","1","1","-1","1","1","1","4","4","5","5","4","3","4","4","4","4","7","6","7","8","7","8","7","7","7","2","5","5","3","5","3","6","2","5","4","3","5","3","6","3","5","3","5","3","6","5","2","6","2","5","2","3","3","5","5","5","3","3","5","6","3","3","2","3","2","5","793067703773569025","黄","180","Female","[""好她"",""好我"",""坏我"",""坏她""]","[""强她"",""强我"",""弱我"",""弱她""]","","","","","","","","2","","","","","","","","","SRET","SRET_math_calculate","","key","2","16.663285714285745","768","428","","","","","12/6= ?","2","1","","","","","","","",""
"3536","","7","psychophysics","116","375982","0.0-7.0-5.0-0.13","4","3","4","3","3","2","3","3","4","3","4","1","-2","1","1","-1","1","1","1","4","4","5","5","4","3","4","4","4","4","7","6","7","8","7","8","7","7","7","2","5","5","3","5","3","6","2","5","4","3","5","3","6","3","5","3","5","3","6","5","2","6","2","5","2","3","3","5","5","5","3","3","5","6","3","3","2","3","2","5","793067703773569025","黄","180","Female","[""好她"",""好我"",""坏我"",""坏她""]","[""强她"",""强我"",""弱我"",""弱她""]","","","","","","","","7","","","","","","","","","SRET","SRET_math_calculate","","key","7","16.664469194312698","768","428","","","","","11-4= ?","7","1","","","","","","","",""
"1908","","8","psychophysics","117","377904","0.0-7.0-5.0-0.14","4","3","4","3","3","2","3","3","4","3","4","1","-2","1","1","-1","1","1","1","4","4","5","5","4","3","4","4","4","4","7","6","7","8","7","8","7","7","7","2","5","5","3","5","3","6","2","5","4","3","5","3","6","3","5","3","5","3","6","5","2","6","2","5","2","3","3","5","5","5","3","3","5","6","3","3","2","3","2","5","793067703773569025","黄","180","Female","[""好她"",""好我"",""坏我"",""坏她""]","[""强她"",""强我"",""弱我"",""弱她""]","","","","","","","","8","","","","","","","","","SRET","SRET_math_calculate","","key","8","16.66436521739132","768","428","","","","","9-1= ?","8","1","","","","","","","",""
"2253","","3","psychophysics","118","380162","0.0-7.0-5.0-0.15","4","3","4","3","3","2","3","3","4","3","4","1","-2","1","1","-1","1","1","1","4","4","5","5","4","3","4","4","4","4","7","6","7","8","7","8","7","7","7","2","5","5","3","5","3","6","2","5","4","3","5","3","6","3","5","3","5","3","6","5","2","6","2","5","2","3","3","5","5","5","3","3","5","6","3","3","2","3","2","5","793067703773569025","黄","180","Female","[""好她"",""好我"",""坏我"",""坏她""]","[""强她"",""强我"",""弱我"",""弱她""]","","","","","","","","3","","","","","","","","","SRET","SRET_math_calculate","","key","3","16.664589552238755","768","428","","","","","9/3= ?","3","1","","","","","","","",""
"2110","","6","psychophysics","119","382276","0.0-7.0-5.0-0.16","4","3","4","3","3","2","3","3","4","3","4","1","-2","1","1","-1","1","1","1","4","4","5","5","4","3","4","4","4","4","7","6","7","8","7","8","7","7","7","2","5","5","3","5","3","6","2","5","4","3","5","3","6","3","5","3","5","3","6","5","2","6","2","5","2","3","3","5","5","5","3","3","5","6","3","3","2","3","2","5","793067703773569025","黄","180","Female","[""好她"",""好我"",""坏我"",""坏她""]","[""强她"",""强我"",""弱我"",""弱她""]","","","","","","","","6","","","","","","","","","SRET","SRET_math_calculate","","key","6","16.66399999999992","768","428","","","","","9-3= ?","6","1","","","","","","","",""
"1850","","9","psychophysics","120","384134","0.0-7.0-5.0-0.17","4","3","4","3","3","2","3","3","4","3","4","1","-2","1","1","-1","1","1","1","4","4","5","5","4","3","4","4","4","4","7","6","7","8","7","8","7","7","7","2","5","5","3","5","3","6","2","5","4","3","5","3","6","3","5","3","5","3","6","5","2","6","2","5","2","3","3","5","5","5","3","3","5","6","3","3","2","3","2","5","793067703773569025","黄","180","Female","[""好她"",""好我"",""坏我"",""坏她""]","[""强她"",""强我"",""弱我"",""弱她""]","","","","","","","","9","","","","","","","","","SRET","SRET_math_calculate","","key","9","16.663576576576634","768","428","","","","","8+1= ?","9","1","","","","","","","",""
"2325","","5","psychophysics","121","386465","0.0-7.0-5.0-0.18","4","3","4","3","3","2","3","3","4","3","4","1","-2","1","1","-1","1","1","1","4","4","5","5","4","3","4","4","4","4","7","6","7","8","7","8","7","7","7","2","5","5","3","5","3","6","2","5","4","3","5","3","6","3","5","3","5","3","6","5","2","6","2","5","2","3","3","5","5","5","3","3","5","6","3","3","2","3","2","5","793067703773569025","黄","180","Female","[""好她"",""好我"",""坏我"",""坏她""]","[""强她"",""强我"",""弱我"",""弱她""]","","","","","","","","5","","","","","","","","","SRET","SRET_math_calculate","","key","5","16.664818840579677","768","428","","","","","17-12= ? ","5","1","","","","","","","",""
"2725","","8","psychophysics","122","389200","0.0-7.0-5.0-0.19","4","3","4","3","3","2","3","3","4","3","4","1","-2","1","1","-1","1","1","1","4","4","5","5","4","3","4","4","4","4","7","6","7","8","7","8","7","7","7","2","5","5","3","5","3","6","2","5","4","3","5","3","6","3","5","3","5","3","6","5","2","6","2","5","2","3","3","5","5","5","3","3","5","6","3","3","2","3","2","5","793067703773569025","黄","180","Female","[""好她"",""好我"",""坏我"",""坏她""]","[""强她"",""强我"",""弱我"",""弱她""]","","","","","","","","8","","","","","","","","","SRET","SRET_math_calculate","","key","8","16.66428048780476","768","428","","","","","13-5= ?","8","1","","","","","","","",""
"2293","","0","psychophysics","123","391499","0.0-7.0-5.0-0.20","4","3","4","3","3","2","3","3","4","3","4","1","-2","1","1","-1","1","1","1","4","4","5","5","4","3","4","4","4","4","7","6","7","8","7","8","7","7","7","2","5","5","3","5","3","6","2","5","4","3","5","3","6","3","5","3","5","3","6","5","2","6","2","5","2","3","3","5","5","5","3","3","5","6","3","3","2","3","2","5","793067703773569025","黄","180","Female","[""好她"",""好我"",""坏我"",""坏她""]","[""强她"",""强我"",""弱我"",""弱她""]","","","","","","","","0","","","","","","","","","SRET","SRET_math_calculate","","key","0","16.66405109489034","768","428","","","","","7*0= ?","0","1","","","","","","","",""
"1918","","6","psychophysics","124","393421","0.0-7.0-5.0-0.21","4","3","4","3","3","2","3","3","4","3","4","1","-2","1","1","-1","1","1","1","4","4","5","5","4","3","4","4","4","4","7","6","7","8","7","8","7","7","7","2","5","5","3","5","3","6","2","5","4","3","5","3","6","3","5","3","5","3","6","5","2","6","2","5","2","3","3","5","5","5","3","3","5","6","3","3","2","3","2","5","793067703773569025","黄","180","Female","[""好她"",""好我"",""坏我"",""坏她""]","[""强她"",""强我"",""弱我"",""弱她""]","","","","","","","","6","","","","","","","","","SRET","SRET_math_calculate","","key","6","16.663254385965207","768","428","","","","","2*3= ?","6","1","","","","","","","",""
"2062","","3","psychophysics","125","395484","0.0-7.0-5.0-0.22","4","3","4","3","3","2","3","3","4","3","4","1","-2","1","1","-1","1","1","1","4","4","5","5","4","3","4","4","4","4","7","6","7","8","7","8","7","7","7","2","5","5","3","5","3","6","2","5","4","3","5","3","6","3","5","3","5","3","6","5","2","6","2","5","2","3","3","5","5","5","3","3","5","6","3","3","2","3","2","5","793067703773569025","黄","180","Female","[""好她"",""好我"",""坏我"",""坏她""]","[""强她"",""强我"",""弱我"",""弱她""]","","","","","","","","3","","","","","","","","","SRET","SRET_math_calculate","","key","3","16.66333333333354","768","428","","","","","2+1= ?","3","1","","","","","","","",""
"2091","","3","psychophysics","126","397578","0.0-7.0-5.0-0.23","4","3","4","3","3","2","3","3","4","3","4","1","-2","1","1","-1","1","1","1","4","4","5","5","4","3","4","4","4","4","7","6","7","8","7","8","7","7","7","2","5","5","3","5","3","6","2","5","4","3","5","3","6","3","5","3","5","3","6","5","2","6","2","5","2","3","3","5","5","5","3","3","5","6","3","3","2","3","2","5","793067703773569025","黄","180","Female","[""好她"",""好我"",""坏我"",""坏她""]","[""强她"",""强我"",""弱我"",""弱她""]","","","","","","","","3","","","","","","","","","SRET","SRET_math_calculate","","key","3","16.66408870967749","768","428","","","","","9-6= ?","3","1","","","","","","","",""
"2170","","4","psychophysics","127","399761","0.0-7.0-5.0-0.24","4","3","4","3","3","2","3","3","4","3","4","1","-2","1","1","-1","1","1","1","4","4","5","5","4","3","4","4","4","4","7","6","7","8","7","8","7","7","7","2","5","5","3","5","3","6","2","5","4","3","5","3","6","3","5","3","5","3","6","5","2","6","2","5","2","3","3","5","5","5","3","3","5","6","3","3","2","3","2","5","793067703773569025","黄","180","Female","[""好她"",""好我"",""坏我"",""坏她""]","[""强她"",""强我"",""弱我"",""弱她""]","","","","","","","","4","","","","","","","","","SRET","SRET_math_calculate","","key","4","16.663230769231003","768","428","","","","","20/5= ?","4","1","","","","","","","",""
"2167","","1","psychophysics","128","401934","0.0-7.0-5.0-0.25","4","3","4","3","3","2","3","3","4","3","4","1","-2","1","1","-1","1","1","1","4","4","5","5","4","3","4","4","4","4","7","6","7","8","7","8","7","7","7","2","5","5","3","5","3","6","2","5","4","3","5","3","6","3","5","3","5","3","6","5","2","6","2","5","2","3","3","5","5","5","3","3","5","6","3","3","2","3","2","5","793067703773569025","黄","180","Female","[""好她"",""好我"",""坏我"",""坏她""]","[""强她"",""强我"",""弱我"",""弱她""]","","","","","","","","1","","","","","","","","","SRET","SRET_math_calculate","","key","1","16.664638461538843","768","428","","","","","9-8= ?","1","1","","","","","","","",""
"3483","","3","psychophysics","129","405422","0.0-7.0-5.0-0.26","4","3","4","3","3","2","3","3","4","3","4","1","-2","1","1","-1","1","1","1","4","4","5","5","4","3","4","4","4","4","7","6","7","8","7","8","7","7","7","2","5","5","3","5","3","6","2","5","4","3","5","3","6","3","5","3","5","3","6","5","2","6","2","5","2","3","3","5","5","5","3","3","5","6","3","3","2","3","2","5","793067703773569025","黄","180","Female","[""好她"",""好我"",""坏我"",""坏她""]","[""强她"",""强我"",""弱我"",""弱她""]","","","","","","","","3","","","","","","","","","SRET","SRET_math_calculate","","key","3","16.664322115384632","768","428","","","","","11-8= ?","3","1","","","","","","","",""
"3196","","9","psychophysics","130","408626","0.0-7.0-5.0-0.27","4","3","4","3","3","2","3","3","4","3","4","1","-2","1","1","-1","1","1","1","4","4","5","5","4","3","4","4","4","4","7","6","7","8","7","8","7","7","7","2","5","5","3","5","3","6","2","5","4","3","5","3","6","3","5","3","5","3","6","5","2","6","2","5","2","3","3","5","5","5","3","3","5","6","3","3","2","3","2","5","793067703773569025","黄","180","Female","[""好她"",""好我"",""坏我"",""坏她""]","[""强她"",""强我"",""弱我"",""弱她""]","","","","","","","","9","","","","","","","","","SRET","SRET_math_calculate","","key","9","16.66375392670158","768","428","","","","","43-34= ?","9","1","","","","","","","",""
"2430","","5","psychophysics","131","411066","0.0-7.0-5.0-0.28","4","3","4","3","3","2","3","3","4","3","4","1","-2","1","1","-1","1","1","1","4","4","5","5","4","3","4","4","4","4","7","6","7","8","7","8","7","7","7","2","5","5","3","5","3","6","2","5","4","3","5","3","6","3","5","3","5","3","6","5","2","6","2","5","2","3","3","5","5","5","3","3","5","6","3","3","2","3","2","5","793067703773569025","黄","180","Female","[""好她"",""好我"",""坏我"",""坏她""]","[""强她"",""强我"",""弱我"",""弱她""]","","","","","","","","5","","","","","","","","","SRET","SRET_math_calculate","","key","5","16.664130136986223","768","428","","","","","14-9= ?","5","1","","","","","","","",""
"2062","","6","psychophysics","132","413130","0.0-7.0-5.0-0.29","4","3","4","3","3","2","3","3","4","3","4","1","-2","1","1","-1","1","1","1","4","4","5","5","4","3","4","4","4","4","7","6","7","8","7","8","7","7","7","2","5","5","3","5","3","6","2","5","4","3","5","3","6","3","5","3","5","3","6","5","2","6","2","5","2","3","3","5","5","5","3","3","5","6","3","3","2","3","2","5","793067703773569025","黄","180","Female","[""好她"",""好我"",""坏我"",""坏她""]","[""强她"",""强我"",""弱我"",""弱她""]","","","","","","","","6","","","","","","","","","SRET","SRET_math_calculate","","key","6","16.6637317073168","768","428","","","","","8-2= ?","6","1","","","","","","","",""
"1833","","9","psychophysics","133","414968","0.0-7.0-5.0-0.30","4","3","4","3","3","2","3","3","4","3","4","1","-2","1","1","-1","1","1","1","4","4","5","5","4","3","4","4","4","4","7","6","7","8","7","8","7","7","7","2","5","5","3","5","3","6","2","5","4","3","5","3","6","3","5","3","5","3","6","5","2","6","2","5","2","3","3","5","5","5","3","3","5","6","3","3","2","3","2","5","793067703773569025","黄","180","Female","[""好她"",""好我"",""坏我"",""坏她""]","[""强她"",""强我"",""弱我"",""弱她""]","","","","","","","","9","","","","","","","","","SRET","SRET_math_calculate","","key","9","16.664339449541288","768","428","","","","","1*9= ?","9","1","","","","","","","",""
"2640","","5","psychophysics","134","417614","0.0-7.0-5.0-0.31","4","3","4","3","3","2","3","3","4","3","4","1","-2","1","1","-1","1","1","1","4","4","5","5","4","3","4","4","4","4","7","6","7","8","7","8","7","7","7","2","5","5","3","5","3","6","2","5","4","3","5","3","6","3","5","3","5","3","6","5","2","6","2","5","2","3","3","5","5","5","3","3","5","6","3","3","2","3","2","5","793067703773569025","黄","180","Female","[""好她"",""好我"",""坏我"",""坏她""]","[""强她"",""强我"",""弱我"",""弱她""]","","","","","","","","5","","","","","","","","","SRET","SRET_math_calculate","","key","5","16.664303797468488","768","428","","","","","12-7= ?","5","1","","","","","","","",""
"2294","","9","psychophysics","135","419914","0.0-7.0-5.0-0.32","4","3","4","3","3","2","3","3","4","3","4","1","-2","1","1","-1","1","1","1","4","4","5","5","4","3","4","4","4","4","7","6","7","8","7","8","7","7","7","2","5","5","3","5","3","6","2","5","4","3","5","3","6","3","5","3","5","3","6","5","2","6","2","5","2","3","3","5","5","5","3","3","5","6","3","3","2","3","2","5","793067703773569025","黄","180","Female","[""好她"",""好我"",""坏我"",""坏她""]","[""强她"",""强我"",""弱我"",""弱她""]","","","","","","","","9","","","","","","","","","SRET","SRET_math_calculate","","key","9","16.66405839416076","768","428","","","","","32-23= ?","9","1","","","","","","","",""
"2009","","3","psychophysics","136","421928","0.0-7.0-5.0-0.33","4","3","4","3","3","2","3","3","4","3","4","1","-2","1","1","-1","1","1","1","4","4","5","5","4","3","4","4","4","4","7","6","7","8","7","8","7","7","7","2","5","5","3","5","3","6","2","5","4","3","5","3","6","3","5","3","5","3","6","5","2","6","2","5","2","3","3","5","5","5","3","3","5","6","3","3","2","3","2","5","793067703773569025","黄","180","Female","[""好她"",""好我"",""坏我"",""坏她""]","[""强她"",""强我"",""弱我"",""弱她""]","","","","","","","","3","","","","","","","","","SRET","SRET_math_calculate","","key","3","16.664274999999908","768","428","","","","","8-6= ?","2","0","","","","","","","",""
"1943","","2","psychophysics","137","423875","0.0-7.0-5.0-0.34","4","3","4","3","3","2","3","3","4","3","4","1","-2","1","1","-1","1","1","1","4","4","5","5","4","3","4","4","4","4","7","6","7","8","7","8","7","7","7","2","5","5","3","5","3","6","2","5","4","3","5","3","6","3","5","3","5","3","6","5","2","6","2","5","2","3","3","5","5","5","3","3","5","6","3","3","2","3","2","5","793067703773569025","黄","180","Female","[""好她"",""好我"",""坏我"",""坏她""]","[""强她"",""强我"",""弱我"",""弱她""]","","","","","","","","2","","","","","","","","","SRET","SRET_math_calculate","","key","2","16.662318965517475","768","428","","","","","5-3= ?","2","1","","","","","","","",""
"2023","","3","psychophysics","138","425904","0.0-7.0-5.0-0.35","4","3","4","3","3","2","3","3","4","3","4","1","-2","1","1","-1","1","1","1","4","4","5","5","4","3","4","4","4","4","7","6","7","8","7","8","7","7","7","2","5","5","3","5","3","6","2","5","4","3","5","3","6","3","5","3","5","3","6","5","2","6","2","5","2","3","3","5","5","5","3","3","5","6","3","3","2","3","2","5","793067703773569025","黄","180","Female","[""好她"",""好我"",""坏我"",""坏她""]","[""强她"",""强我"",""弱我"",""弱她""]","","","","","","","","3","","","","","","","","","SRET","SRET_math_calculate","","key","3","16.66383333333312","768","428","","","","","3+0= ?","3","1","","","","","","","",""
"2029","","8","psychophysics","139","427940","0.0-7.0-5.0-0.36","4","3","4","3","3","2","3","3","4","3","4","1","-2","1","1","-1","1","1","1","4","4","5","5","4","3","4","4","4","4","7","6","7","8","7","8","7","7","7","2","5","5","3","5","3","6","2","5","4","3","5","3","6","3","5","3","5","3","6","5","2","6","2","5","2","3","3","5","5","5","3","3","5","6","3","3","2","3","2","5","793067703773569025","黄","180","Female","[""好她"",""好我"",""坏我"",""坏她""]","[""强她"",""强我"",""弱我"",""弱她""]","","","","","","","","8","","","","","","","","","SRET","SRET_math_calculate","","key","8","16.664041322313945","768","428","","","","","3+5= ?","8","1","","","","","","","",""
"1948","","7","psychophysics","140","429898","0.0-7.0-5.0-0.37","4","3","4","3","3","2","3","3","4","3","4","1","-2","1","1","-1","1","1","1","4","4","5","5","4","3","4","4","4","4","7","6","7","8","7","8","7","7","7","2","5","5","3","5","3","6","2","5","4","3","5","3","6","3","5","3","5","3","6","5","2","6","2","5","2","3","3","5","5","5","3","3","5","6","3","3","2","3","2","5","793067703773569025","黄","180","Female","[""好她"",""好我"",""坏我"",""坏她""]","[""强她"",""强我"",""弱我"",""弱她""]","","","","","","","","7","","","","","","","","","SRET","SRET_math_calculate","","key","7","16.663803418803738","768","428","","","","","6+1= ?","7","1","","","","","","","",""
"1858","","9","psychophysics","141","431760","0.0-7.0-5.0-0.38","4","3","4","3","3","2","3","3","4","3","4","1","-2","1","1","-1","1","1","1","4","4","5","5","4","3","4","4","4","4","7","6","7","8","7","8","7","7","7","2","5","5","3","5","3","6","2","5","4","3","5","3","6","3","5","3","5","3","6","5","2","6","2","5","2","3","3","5","5","5","3","3","5","6","3","3","2","3","2","5","793067703773569025","黄","180","Female","[""好她"",""好我"",""坏我"",""坏她""]","[""强她"",""强我"",""弱我"",""弱她""]","","","","","","","","9","","","","","","","","","SRET","SRET_math_calculate","","key","9","16.66523423423437","768","428","","","","","6+3= ?","9","1","","","","","","","",""
"2046","","9","psychophysics","142","433811","0.0-7.0-5.0-0.39","4","3","4","3","3","2","3","3","4","3","4","1","-2","1","1","-1","1","1","1","4","4","5","5","4","3","4","4","4","4","7","6","7","8","7","8","7","7","7","2","5","5","3","5","3","6","2","5","4","3","5","3","6","3","5","3","5","3","6","5","2","6","2","5","2","3","3","5","5","5","3","3","5","6","3","3","2","3","2","5","793067703773569025","黄","180","Female","[""好她"",""好我"",""坏我"",""坏她""]","[""强她"",""强我"",""弱我"",""弱她""]","","","","","","","","9","","","","","","","","","SRET","SRET_math_calculate","","key","9","16.66476229508169","768","428","","","","","18/2= ?","9","1","","","","","","","",""
