"rt","stimulus","response","trial_type","trial_index","time_elapsed","internal_node_id","swb_1","swb_2","swb_3","swb_4","swb_5","LOT_1","LOT_2","LOT_3","LOT_4","LOT_5","LOT_6","IPC_1","IPC_2","IPC_3","IPC_4","IPC_5","IPC_6","IPC_7","IPC_8","MorIden_1","MorIden_2","MorIden_3","MorIden_4","MorIden_5","MorIden_6","MorIden_7","MorIden_8","MorIden_9","MorIden_10","moralSeImag_1","moralSeImag_2","moralSeImag_3","moralSeImag_4","moralSeImag_5","moralSeImag_6","moralSeImag_7","moralSeImag_8","moralSeImag_9","sde_1","sde_2","sde_3","sde_4","sde_5","sde_6","sde_7","sde_8","sde_9","sde_10","trap2","sde_11","sde_12","sde_13","sde_14","sde_15","sde_16","sde_17","sde_18","sde_19","sde_20","IM_1","IM_2","IM_3","IM_4","IM_5","IM_6","IM_7","IM_8","IM_9","IM_10","IM_11","IM_12","IM_13","IM_14","IM_15","IM_16","IM_17","IM_18","IM_19","IM_20","subj_idx","friend_name","ParticipantID","Sex","Word","Word2","value","success","timeout","failed_images","failed_audio","failed_video","user_agent","responses","item_order","radio_event_ids","radio_event_times","key_event_times","mouse_event_times","straightlining","zigzagging","honeypot","task_id","screen_id","time_stamp","response_type","key_press","avg_frame_time","center_x","center_y","person","word","valence","domain","math","correct_response","correct","status","view_history","identity","duration","Image","condition","question_order","trap2_item"
"7163","
   <p><div style='color:white; font-size: 25px'>您好，欢迎参加本次实验。</div></p>
   <p><div style='color:white; font-size: 25px'>为充分保障您的权利，请确保您已经知晓并同意《参与实验同意书》以及《数据公开知情同意书》。</div></p>
   <p><div style='color:white; font-size: 25px'>如果您未见过上述内容，请咨询实验员。</div></p>
   <p style='color:white; font-size: 25px'>如果您选择继续实验，则表示您已经清楚两份知情同意书的内容并同意。</p>
   <p><div style = ""color: pink;font-size:30px;"">请确保您记得day0的实验编号，您将在本次实验输入该编号，若您忘记，请咨询实验员后作答。</div></p>
   <p><div style = ""color:lightblue;font-size:25px;"">请您尽可能认真地作答，我们将依据您在各问卷和按键任务中的作答质量发放报酬。</div></p>
   <p> <div style = ""color: green""><按空格键至下页></div> </p>
   "," ","html-keyboard-response","0","7169","0.0-0.0","6","4","5","6","5","3","2","4","4","4","4","0","-2","0","-1","1","1","0","1","4","5","4","4","4","3","4","3","5","4","4","6","7","7","4","3","5","6","7","5","5","5","2","4","2","6","4","5","4","1","6","1","6","1","4","4","5","6","6","2","3","2","2","3","2","4","3","2","6","4","7","6","3","4","2","5","2","7","3","6","783652100818341890","张","269","Male","[""好我"",""坏他"",""好他"",""坏我""]","[""强我"",""弱他"",""强他"",""弱我""]","","","","","","","","","","","","","","","","","","","","","","","","","","","","","","","","","","","","","","",""
"","","","call-function","1","7172","0.0-1.0-0.0","6","4","5","6","5","3","2","4","4","4","4","0","-2","0","-1","1","1","0","1","4","5","4","4","4","3","4","3","5","4","4","6","7","7","4","3","5","6","7","5","5","5","2","4","2","6","4","5","4","1","6","1","6","1","4","4","5","6","6","2","3","2","2","3","2","4","3","2","6","4","7","6","3","4","2","5","2","7","3","6","783652100818341890","张","269","Male","[""好我"",""坏他"",""好他"",""坏我""]","[""强我"",""弱他"",""强他"",""弱我""]","","","","","","","","","","","","","","","","","","","","","","","","","","","","","","","","","","","","","","",""
"14182","","[{""name"":""Sex"",""value"":""0""},{""name"":""friend_name"",""value"":""张""},{""name"":""ParticipantID"",""value"":""269""}]","survey-html-form","2","21355","0.0-1.0-1.0","6","4","5","6","5","3","2","4","4","4","4","0","-2","0","-1","1","1","0","1","4","5","4","4","4","3","4","3","5","4","4","6","7","7","4","3","5","6","7","5","5","5","2","4","2","6","4","5","4","1","6","1","6","1","4","4","5","6","6","2","3","2","2","3","2","4","3","2","6","4","7","6","3","4","2","5","2","7","3","6","783652100818341890","张","269","Male","[""好我"",""坏他"",""好他"",""坏我""]","[""强我"",""弱他"",""强他"",""弱我""]","","","","","","","","","","","","","","","","","","","","","","","","","","","","","","","","","","","","","","",""
"","","","preload","3","22034","0.0-2.0","6","4","5","6","5","3","2","4","4","4","4","0","-2","0","-1","1","1","0","1","4","5","4","4","4","3","4","3","5","4","4","6","7","7","4","3","5","6","7","5","5","5","2","4","2","6","4","5","4","1","6","1","6","1","4","4","5","6","6","2","3","2","2","3","2","4","3","2","6","4","7","6","3","4","2","5","2","7","3","6","783652100818341890","张","269","Male","[""好我"",""坏他"",""好他"",""坏我""]","[""强我"",""弱他"",""强他"",""弱我""]","","true","false","[]","[]","[]","","","","","","","","","","","","","","","","","","","","","","","","","","","","","","","","",""
"","","","fullscreen","4","28966","0.0-3.0","6","4","5","6","5","3","2","4","4","4","4","0","-2","0","-1","1","1","0","1","4","5","4","4","4","3","4","3","5","4","4","6","7","7","4","3","5","6","7","5","5","5","2","4","2","6","4","5","4","1","6","1","6","1","4","4","5","6","6","2","3","2","2","3","2","4","3","2","6","4","7","6","3","4","2","5","2","7","3","6","783652100818341890","张","269","Male","[""好我"",""坏他"",""好他"",""坏我""]","[""强我"",""弱他"",""强他"",""弱我""]","","true","","","","","{}","","","","","","","","","","","","","","","","","","","","","","","","","","","","","","","",""
"24833","","{""Q01"":""6"",""Q02"":""4"",""Q03"":""5"",""Q04"":""6"",""Q05"":""5""}","survey-template","5","53804","0.0-4.0","6","4","5","6","5","3","2","4","4","4","4","0","-2","0","-1","1","1","0","1","4","5","4","4","4","3","4","3","5","4","4","6","7","7","4","3","5","6","7","5","5","5","2","4","2","6","4","5","4","1","6","1","6","1","4","4","5","6","6","2","3","2","2","3","2","4","3","2","6","4","7","6","3","4","2","5","2","7","3","6","783652100818341890","张","269","Male","[""好我"",""坏他"",""好他"",""坏我""]","[""强我"",""弱他"",""强他"",""弱我""]","","","","","","","","{""Q01"":""6"",""Q02"":""4"",""Q03"":""5"",""Q04"":""6"",""Q05"":""5""}","[0,1,2,3,4]","[""Q01"",""Q02"",""Q03"",""Q04"",""Q04"",""Q05""]","[7324.29999999702,8725.09999999404,9861.199999988079,12981.699999988079,18462.29999999702,23482.79999999702]","[]","[7324.29999999702,8725.09999999404,9861.199999988079,12981.699999988079,18462.29999999702,23482.79999999702,24832]","0.4","0.75","0","","","","","","","","","","","","","","","","","","","","","","",""
"24033.19999998808","","{""Q01"":""3"",""Q02"":""2"",""Q03"":""4"",""Q04"":""4"",""Q05"":""4"",""Q06"":""4""}","survey-template","6","77841","0.0-5.0","6","4","5","6","5","3","2","4","4","4","4","0","-2","0","-1","1","1","0","1","4","5","4","4","4","3","4","3","5","4","4","6","7","7","4","3","5","6","7","5","5","5","2","4","2","6","4","5","4","1","6","1","6","1","4","4","5","6","6","2","3","2","2","3","2","4","3","2","6","4","7","6","3","4","2","5","2","7","3","6","783652100818341890","张","269","Male","[""好我"",""坏他"",""好他"",""坏我""]","[""强我"",""弱他"",""强他"",""弱我""]","","","","","","","","{""Q01"":""3"",""Q02"":""2"",""Q03"":""4"",""Q04"":""4"",""Q05"":""4"",""Q06"":""4""}","[0,1,2,3,4,5]","[""Q01"",""Q02"",""Q03"",""Q04"",""Q05"",""Q06""]","[5497,9941.79999999702,12432.5,15473.09999999404,16894.89999999106,21225]","[]","[5497,9941.79999999702,12432.5,15473.09999999404,16894.89999999106,21225,24032.5]","0.5","0.2","0","","","","","","","","","","","","","","","","","","","","","","",""
"44674.40000000596","","{""Q01"":""0"",""Q02"":""-2"",""Q03"":""0"",""Q04"":""-1"",""Q05"":""1"",""Q06"":""1"",""Q07"":""0"",""Q08"":""1""}","survey-template","7","122519","0.0-6.0","6","4","5","6","5","3","2","4","4","4","4","0","-2","0","-1","1","1","0","1","4","5","4","4","4","3","4","3","5","4","4","6","7","7","4","3","5","6","7","5","5","5","2","4","2","6","4","5","4","1","6","1","6","1","4","4","5","6","6","2","3","2","2","3","2","4","3","2","6","4","7","6","3","4","2","5","2","7","3","6","783652100818341890","张","269","Male","[""好我"",""坏他"",""好他"",""坏我""]","[""强我"",""弱他"",""强他"",""弱我""]","","","","","","","","{""Q01"":""0"",""Q02"":""-2"",""Q03"":""0"",""Q04"":""-1"",""Q05"":""1"",""Q06"":""1"",""Q07"":""0"",""Q08"":""1""}","[0,1,2,3,4,5,6,7]","[""Q01"",""Q02"",""Q03"",""Q05"",""Q06"",""Q04"",""Q03"",""Q08"",""Q07""]","[6587.5999999940395,10474.5,18795.29999999702,21690.79999999702,25175.79999999702,28082,35850.70000000298,40526.20000000298,42858.90000000596]","[]","[6587.5999999940395,10474.5,18795.29999999702,21690.79999999702,25175.79999999702,28082,35850.70000000298,40526.20000000298,42858.90000000596,44672.79999999702]","0.375","0.42857142857142855","0","","","","","","","","","","","","","","","","","","","","","","",""
"19106","
    <p><div style='color:white;font-size:35px; line-height:20px;'>词汇评估任务</div></p><br>
    <p><div style='color:white;font-size:25px; line-height:20px;'>请再次回忆该亲密的朋友，你们至少2年前就认识了，并且最近2年经常见面。</div></p>
    <p><div style='color:white;font-size:25px; line-height:20px;'>在本实验中，您将会看到一些形容词。</div></p>
    <p><div style='color:yellow;font-size:25px; line-height:20px;'>您的任务是判断这些形容词是否符合对您自己或您的朋友的描述。</div></p><p style='font-size:35px'>符合按<span style=""color:lightgreen""> j 键</span>，不符合按<span style=""color:red""> f 键</span></p>","0","html-button-response","8","141629","0.0-7.0-0.0","6","4","5","6","5","3","2","4","4","4","4","0","-2","0","-1","1","1","0","1","4","5","4","4","4","3","4","3","5","4","4","6","7","7","4","3","5","6","7","5","5","5","2","4","2","6","4","5","4","1","6","1","6","1","4","4","5","6","6","2","3","2","2","3","2","4","3","2","6","4","7","6","3","4","2","5","2","7","3","6","783652100818341890","张","269","Male","[""好我"",""坏他"",""好他"",""坏我""]","[""强我"",""弱他"",""强他"",""弱我""]","","","","","","","","","","","","","","","","","SRET_EW","EW_instructions","Thu Jan 11 2024 14:23:28 GMT+0800 (中国标准时间)","","","","","","","","","","","","","","","","","","","",""
"1859","","j","psychophysics","9","144492","0.0-7.0-1.0-0.0","6","4","5","6","5","3","2","4","4","4","4","0","-2","0","-1","1","1","0","1","4","5","4","4","4","3","4","3","5","4","4","6","7","7","4","3","5","6","7","5","5","5","2","4","2","6","4","5","4","1","6","1","6","1","4","4","5","6","6","2","3","2","2","3","2","4","3","2","6","4","7","6","3","4","2","5","2","7","3","6","783652100818341890","张","269","Male","[""好我"",""坏他"",""好他"",""坏我""]","[""强我"",""弱他"",""强他"",""弱我""]","","","","","","","","yes","","","","","","","","","SRET_EW","EW_practice","","key","j","16.66681395348843","640","356","朋友","忠实","Positive","morality","","","","","","","","","","",""
"1373","","f","psychophysics","10","146867","0.0-7.0-1.0-0.1","6","4","5","6","5","3","2","4","4","4","4","0","-2","0","-1","1","1","0","1","4","5","4","4","4","3","4","3","5","4","4","6","7","7","4","3","5","6","7","5","5","5","2","4","2","6","4","5","4","1","6","1","6","1","4","4","5","6","6","2","3","2","2","3","2","4","3","2","6","4","7","6","3","4","2","5","2","7","3","6","783652100818341890","张","269","Male","[""好我"",""坏他"",""好他"",""坏我""]","[""强我"",""弱他"",""强他"",""弱我""]","","","","","","","","no","","","","","","","","","SRET_EW","EW_practice","","key","f","16.66556028368782","640","356","自己","刻板","Negative","ability","","","","","","","","","","",""
"null","","null","psychophysics","11","149869","0.0-7.0-1.0-0.2","6","4","5","6","5","3","2","4","4","4","4","0","-2","0","-1","1","1","0","1","4","5","4","4","4","3","4","3","5","4","4","6","7","7","4","3","5","6","7","5","5","5","2","4","2","6","4","5","4","1","6","1","6","1","4","4","5","6","6","2","3","2","2","3","2","4","3","2","6","4","7","6","3","4","2","5","2","7","3","6","783652100818341890","张","269","Male","[""好我"",""坏他"",""好他"",""坏我""]","[""强我"",""弱他"",""强他"",""弱我""]","","","","","","","","","","","","","","","","","SRET_EW","EW_practice","","key","null","16.667251396648016","640","356","朋友","徇私","Negative","morality","","","","","","","","","","",""
"1666","","j","psychophysics","12","152537","0.0-7.0-1.0-0.3","6","4","5","6","5","3","2","4","4","4","4","0","-2","0","-1","1","1","0","1","4","5","4","4","4","3","4","3","5","4","4","6","7","7","4","3","5","6","7","5","5","5","2","4","2","6","4","5","4","1","6","1","6","1","4","4","5","6","6","2","3","2","2","3","2","4","3","2","6","4","7","6","3","4","2","5","2","7","3","6","783652100818341890","张","269","Male","[""好我"",""坏他"",""好他"",""坏我""]","[""强我"",""弱他"",""强他"",""弱我""]","","","","","","","","yes","","","","","","","","","SRET_EW","EW_practice","","key","j","16.668440251572367","640","356","自己","严谨","Positive","ability","","","","","","","","","","",""
"5432","
    <p><div style='color:white;font-size:35px; line-height:20px;'>请您再次阅读实验要求</div></p><br>
    <p><div style='color:white;font-size:25px; line-height:20px;'>请回忆某一个亲密的朋友，你们至少2年前就认识了，并且最近2年经常见面。</div></p>
    <p><div style='color:white;font-size:25px; line-height:20px;'>在本实验中，您将会看到一些形容词。</div></p>
    <p><div style='color:yellow;font-size:25px; line-height:20px;'>您的任务是判断这些形容词是否符合对您自己或您的朋友的描述。</div></p>
    <p><div class='footer' style='font-size:25px; line-height:20px;'>如果对本实验还有不清楚之处，请立即向实验员咨询。</p><p style='font-size:25px; line-height:20px;'>如果您明白了规则：</p><p style='font-size:22px; line-height:20px;'>请按 继续 进入正式实验</p>
    </div>
    <p style='font-size:35px'>符合按<span style=""color:lightgreen""> j 键</span>，不符合按<span style=""color:red""> f 键</span></p>","0","html-button-response","13","157971","0.0-7.0-2.0","6","4","5","6","5","3","2","4","4","4","4","0","-2","0","-1","1","1","0","1","4","5","4","4","4","3","4","3","5","4","4","6","7","7","4","3","5","6","7","5","5","5","2","4","2","6","4","5","4","1","6","1","6","1","4","4","5","6","6","2","3","2","2","3","2","4","3","2","6","4","7","6","3","4","2","5","2","7","3","6","783652100818341890","张","269","Male","[""好我"",""坏他"",""好他"",""坏我""]","[""强我"",""弱他"",""强他"",""弱我""]","","","","","","","","","","","","","","","","","SRET_EW","prac_instructions","Thu Jan 11 2024 14:23:28 GMT+0800 (中国标准时间)","","","","","","","","","","","","","","","","","","","",""
"1031","","j","psychophysics","14","160004","0.0-7.0-3.0-0.0","6","4","5","6","5","3","2","4","4","4","4","0","-2","0","-1","1","1","0","1","4","5","4","4","4","3","4","3","5","4","4","6","7","7","4","3","5","6","7","5","5","5","2","4","2","6","4","5","4","1","6","1","6","1","4","4","5","6","6","2","3","2","2","3","2","4","3","2","6","4","7","6","3","4","2","5","2","7","3","6","783652100818341890","张","269","Male","[""好我"",""坏他"",""好他"",""坏我""]","[""强我"",""弱他"",""强他"",""弱我""]","","","","","","","","yes","","","","","","","","","SRET","EW_formal","","key","j","16.663745901639455","640","356","朋友","务实","Positive","ability","","","","","","","","","","",""
"756","","j","psychophysics","15","161762","0.0-7.0-3.0-0.1","6","4","5","6","5","3","2","4","4","4","4","0","-2","0","-1","1","1","0","1","4","5","4","4","4","3","4","3","5","4","4","6","7","7","4","3","5","6","7","5","5","5","2","4","2","6","4","5","4","1","6","1","6","1","4","4","5","6","6","2","3","2","2","3","2","4","3","2","6","4","7","6","3","4","2","5","2","7","3","6","783652100818341890","张","269","Male","[""好我"",""坏他"",""好他"",""坏我""]","[""强我"",""弱他"",""强他"",""弱我""]","","","","","","","","yes","","","","","","","","","SRET","EW_formal","","key","j","16.666876190476163","640","356","自己","坚贞","Positive","morality","","","","","","","","","","",""
"714","","f","psychophysics","16","163478","0.0-7.0-3.0-0.2","6","4","5","6","5","3","2","4","4","4","4","0","-2","0","-1","1","1","0","1","4","5","4","4","4","3","4","3","5","4","4","6","7","7","4","3","5","6","7","5","5","5","2","4","2","6","4","5","4","1","6","1","6","1","4","4","5","6","6","2","3","2","2","3","2","4","3","2","6","4","7","6","3","4","2","5","2","7","3","6","783652100818341890","张","269","Male","[""好我"",""坏他"",""好他"",""坏我""]","[""强我"",""弱他"",""强他"",""弱我""]","","","","","","","","no","","","","","","","","","SRET","EW_formal","","key","f","16.663647058823628","640","356","自己","说谎","Negative","morality","","","","","","","","","","",""
"782","","f","psychophysics","17","165272","0.0-7.0-3.0-0.3","6","4","5","6","5","3","2","4","4","4","4","0","-2","0","-1","1","1","0","1","4","5","4","4","4","3","4","3","5","4","4","6","7","7","4","3","5","6","7","5","5","5","2","4","2","6","4","5","4","1","6","1","6","1","4","4","5","6","6","2","3","2","2","3","2","4","3","2","6","4","7","6","3","4","2","5","2","7","3","6","783652100818341890","张","269","Male","[""好我"",""坏他"",""好他"",""坏我""]","[""强我"",""弱他"",""强他"",""弱我""]","","","","","","","","no","","","","","","","","","SRET","EW_formal","","key","f","16.665990566037745","640","356","朋友","迷糊","Negative","ability","","","","","","","","","","",""
"935","","f","psychophysics","18","167208","0.0-7.0-3.0-0.4","6","4","5","6","5","3","2","4","4","4","4","0","-2","0","-1","1","1","0","1","4","5","4","4","4","3","4","3","5","4","4","6","7","7","4","3","5","6","7","5","5","5","2","4","2","6","4","5","4","1","6","1","6","1","4","4","5","6","6","2","3","2","2","3","2","4","3","2","6","4","7","6","3","4","2","5","2","7","3","6","783652100818341890","张","269","Male","[""好我"",""坏他"",""好他"",""坏我""]","[""强我"",""弱他"",""强他"",""弱我""]","","","","","","","","no","","","","","","","","","SRET","EW_formal","","key","f","16.670043103448325","640","356","朋友","贪污","Negative","morality","","","","","","","","","","",""
"983","","f","psychophysics","19","169194","0.0-7.0-3.0-0.5","6","4","5","6","5","3","2","4","4","4","4","0","-2","0","-1","1","1","0","1","4","5","4","4","4","3","4","3","5","4","4","6","7","7","4","3","5","6","7","5","5","5","2","4","2","6","4","5","4","1","6","1","6","1","4","4","5","6","6","2","3","2","2","3","2","4","3","2","6","4","7","6","3","4","2","5","2","7","3","6","783652100818341890","张","269","Male","[""好我"",""坏他"",""好他"",""坏我""]","[""强我"",""弱他"",""强他"",""弱我""]","","","","","","","","no","","","","","","","","","SRET","EW_formal","","key","f","16.667728813559208","640","356","自己","才尽","Negative","ability","","","","","","","","","","",""
"697","","j","psychophysics","20","170892","0.0-7.0-3.0-0.6","6","4","5","6","5","3","2","4","4","4","4","0","-2","0","-1","1","1","0","1","4","5","4","4","4","3","4","3","5","4","4","6","7","7","4","3","5","6","7","5","5","5","2","4","2","6","4","5","4","1","6","1","6","1","4","4","5","6","6","2","3","2","2","3","2","4","3","2","6","4","7","6","3","4","2","5","2","7","3","6","783652100818341890","张","269","Male","[""好我"",""坏他"",""好他"",""坏我""]","[""强我"",""弱他"",""强他"",""弱我""]","","","","","","","","yes","","","","","","","","","SRET","EW_formal","","key","j","16.666306930692983","640","356","自己","肯干","Positive","ability","","","","","","","","","","",""
"578","","j","psychophysics","21","172471","0.0-7.0-3.0-0.7","6","4","5","6","5","3","2","4","4","4","4","0","-2","0","-1","1","1","0","1","4","5","4","4","4","3","4","3","5","4","4","6","7","7","4","3","5","6","7","5","5","5","2","4","2","6","4","5","4","1","6","1","6","1","4","4","5","6","6","2","3","2","2","3","2","4","3","2","6","4","7","6","3","4","2","5","2","7","3","6","783652100818341890","张","269","Male","[""好我"",""坏他"",""好他"",""坏我""]","[""强我"",""弱他"",""强他"",""弱我""]","","","","","","","","yes","","","","","","","","","SRET","EW_formal","","key","j","16.665849462365582","640","356","自己","毅力","Positive","ability","","","","","","","","","","",""
"772","","j","psychophysics","22","174246","0.0-7.0-3.0-0.8","6","4","5","6","5","3","2","4","4","4","4","0","-2","0","-1","1","1","0","1","4","5","4","4","4","3","4","3","5","4","4","6","7","7","4","3","5","6","7","5","5","5","2","4","2","6","4","5","4","1","6","1","6","1","4","4","5","6","6","2","3","2","2","3","2","4","3","2","6","4","7","6","3","4","2","5","2","7","3","6","783652100818341890","张","269","Male","[""好我"",""坏他"",""好他"",""坏我""]","[""强我"",""弱他"",""强他"",""弱我""]","","","","","","","","yes","","","","","","","","","SRET","EW_formal","","key","j","16.668056603773707","640","356","朋友","无私","Positive","morality","","","","","","","","","","",""
"930","","f","psychophysics","23","176177","0.0-7.0-3.0-0.9","6","4","5","6","5","3","2","4","4","4","4","0","-2","0","-1","1","1","0","1","4","5","4","4","4","3","4","3","5","4","4","6","7","7","4","3","5","6","7","5","5","5","2","4","2","6","4","5","4","1","6","1","6","1","4","4","5","6","6","2","3","2","2","3","2","4","3","2","6","4","7","6","3","4","2","5","2","7","3","6","783652100818341890","张","269","Male","[""好我"",""坏他"",""好他"",""坏我""]","[""强我"",""弱他"",""强他"",""弱我""]","","","","","","","","no","","","","","","","","","SRET","EW_formal","","key","f","16.669078260869465","640","356","朋友","蛇蝎","Negative","morality","","","","","","","","","","",""
"783","","f","psychophysics","24","177962","0.0-7.0-3.0-0.10","6","4","5","6","5","3","2","4","4","4","4","0","-2","0","-1","1","1","0","1","4","5","4","4","4","3","4","3","5","4","4","6","7","7","4","3","5","6","7","5","5","5","2","4","2","6","4","5","4","1","6","1","6","1","4","4","5","6","6","2","3","2","2","3","2","4","3","2","6","4","7","6","3","4","2","5","2","7","3","6","783652100818341890","张","269","Male","[""好我"",""坏他"",""好他"",""坏我""]","[""强我"",""弱他"",""强他"",""弱我""]","","","","","","","","no","","","","","","","","","SRET","EW_formal","","key","f","16.664216981132135","640","356","朋友","毛糙","Negative","ability","","","","","","","","","","",""
"758","","f","psychophysics","25","179728","0.0-7.0-3.0-0.11","6","4","5","6","5","3","2","4","4","4","4","0","-2","0","-1","1","1","0","1","4","5","4","4","4","3","4","3","5","4","4","6","7","7","4","3","5","6","7","5","5","5","2","4","2","6","4","5","4","1","6","1","6","1","4","4","5","6","6","2","3","2","2","3","2","4","3","2","6","4","7","6","3","4","2","5","2","7","3","6","783652100818341890","张","269","Male","[""好我"",""坏他"",""好他"",""坏我""]","[""强我"",""弱他"",""强他"",""弱我""]","","","","","","","","no","","","","","","","","","SRET","EW_formal","","key","f","16.66573333333335","640","356","自己","愚蠢","Negative","ability","","","","","","","","","","",""
"764","","f","psychophysics","26","181493","0.0-7.0-3.0-0.12","6","4","5","6","5","3","2","4","4","4","4","0","-2","0","-1","1","1","0","1","4","5","4","4","4","3","4","3","5","4","4","6","7","7","4","3","5","6","7","5","5","5","2","4","2","6","4","5","4","1","6","1","6","1","4","4","5","6","6","2","3","2","2","3","2","4","3","2","6","4","7","6","3","4","2","5","2","7","3","6","783652100818341890","张","269","Male","[""好我"",""坏他"",""好他"",""坏我""]","[""强我"",""弱他"",""强他"",""弱我""]","","","","","","","","no","","","","","","","","","SRET","EW_formal","","key","f","16.667323809523978","640","356","朋友","外行","Negative","ability","","","","","","","","","","",""
"783","","j","psychophysics","27","183278","0.0-7.0-3.0-0.13","6","4","5","6","5","3","2","4","4","4","4","0","-2","0","-1","1","1","0","1","4","5","4","4","4","3","4","3","5","4","4","6","7","7","4","3","5","6","7","5","5","5","2","4","2","6","4","5","4","1","6","1","6","1","4","4","5","6","6","2","3","2","2","3","2","4","3","2","6","4","7","6","3","4","2","5","2","7","3","6","783652100818341890","张","269","Male","[""好我"",""坏他"",""好他"",""坏我""]","[""强我"",""弱他"",""强他"",""弱我""]","","","","","","","","yes","","","","","","","","","SRET","EW_formal","","key","j","16.668198113207527","640","356","自己","慷慨","Positive","morality","","","","","","","","","","",""
"719","","f","psychophysics","28","184998","0.0-7.0-3.0-0.14","6","4","5","6","5","3","2","4","4","4","4","0","-2","0","-1","1","1","0","1","4","5","4","4","4","3","4","3","5","4","4","6","7","7","4","3","5","6","7","5","5","5","2","4","2","6","4","5","4","1","6","1","6","1","4","4","5","6","6","2","3","2","2","3","2","4","3","2","6","4","7","6","3","4","2","5","2","7","3","6","783652100818341890","张","269","Male","[""好我"",""坏他"",""好他"",""坏我""]","[""强我"",""弱他"",""强他"",""弱我""]","","","","","","","","no","","","","","","","","","SRET","EW_formal","","key","f","16.666862745097937","640","356","自己","无能","Negative","ability","","","","","","","","","","",""
"855","","j","psychophysics","29","186855","0.0-7.0-3.0-0.15","6","4","5","6","5","3","2","4","4","4","4","0","-2","0","-1","1","1","0","1","4","5","4","4","4","3","4","3","5","4","4","6","7","7","4","3","5","6","7","5","5","5","2","4","2","6","4","5","4","1","6","1","6","1","4","4","5","6","6","2","3","2","2","3","2","4","3","2","6","4","7","6","3","4","2","5","2","7","3","6","783652100818341890","张","269","Male","[""好我"",""坏他"",""好他"",""坏我""]","[""强我"",""弱他"",""强他"",""弱我""]","","","","","","","","yes","","","","","","","","","SRET","EW_formal","","key","j","16.66844545454554","640","356","朋友","高效","Positive","ability","","","","","","","","","","",""
"1147","","f","psychophysics","30","189003","0.0-7.0-3.0-0.16","6","4","5","6","5","3","2","4","4","4","4","0","-2","0","-1","1","1","0","1","4","5","4","4","4","3","4","3","5","4","4","6","7","7","4","3","5","6","7","5","5","5","2","4","2","6","4","5","4","1","6","1","6","1","4","4","5","6","6","2","3","2","2","3","2","4","3","2","6","4","7","6","3","4","2","5","2","7","3","6","783652100818341890","张","269","Male","[""好我"",""坏他"",""好他"",""坏我""]","[""强我"",""弱他"",""强他"",""弱我""]","","","","","","","","no","","","","","","","","","SRET","EW_formal","","key","f","16.666164062500002","640","356","自己","废物","Negative","ability","","","","","","","","","","",""
"799","","f","psychophysics","31","190804","0.0-7.0-3.0-0.17","6","4","5","6","5","3","2","4","4","4","4","0","-2","0","-1","1","1","0","1","4","5","4","4","4","3","4","3","5","4","4","6","7","7","4","3","5","6","7","5","5","5","2","4","2","6","4","5","4","1","6","1","6","1","4","4","5","6","6","2","3","2","2","3","2","4","3","2","6","4","7","6","3","4","2","5","2","7","3","6","783652100818341890","张","269","Male","[""好我"",""坏他"",""好他"",""坏我""]","[""强我"",""弱他"",""强他"",""弱我""]","","","","","","","","no","","","","","","","","","SRET","EW_formal","","key","f","16.668794392523242","640","356","自己","笨蛋","Negative","ability","","","","","","","","","","",""
"656","","j","psychophysics","32","192461","0.0-7.0-3.0-0.18","6","4","5","6","5","3","2","4","4","4","4","0","-2","0","-1","1","1","0","1","4","5","4","4","4","3","4","3","5","4","4","6","7","7","4","3","5","6","7","5","5","5","2","4","2","6","4","5","4","1","6","1","6","1","4","4","5","6","6","2","3","2","2","3","2","4","3","2","6","4","7","6","3","4","2","5","2","7","3","6","783652100818341890","张","269","Male","[""好我"",""坏他"",""好他"",""坏我""]","[""强我"",""弱他"",""强他"",""弱我""]","","","","","","","","yes","","","","","","","","","SRET","EW_formal","","key","j","16.670343434343447","640","356","自己","博学","Positive","ability","","","","","","","","","","",""
"1111","","f","psychophysics","33","194573","0.0-7.0-3.0-0.19","6","4","5","6","5","3","2","4","4","4","4","0","-2","0","-1","1","1","0","1","4","5","4","4","4","3","4","3","5","4","4","6","7","7","4","3","5","6","7","5","5","5","2","4","2","6","4","5","4","1","6","1","6","1","4","4","5","6","6","2","3","2","2","3","2","4","3","2","6","4","7","6","3","4","2","5","2","7","3","6","783652100818341890","张","269","Male","[""好我"",""坏他"",""好他"",""坏我""]","[""强我"",""弱他"",""强他"",""弱我""]","","","","","","","","no","","","","","","","","","SRET","EW_formal","","key","f","16.666333333333206","640","356","自己","马虎","Negative","ability","","","","","","","","","","",""
"958","","j","psychophysics","34","196533","0.0-7.0-3.0-0.20","6","4","5","6","5","3","2","4","4","4","4","0","-2","0","-1","1","1","0","1","4","5","4","4","4","3","4","3","5","4","4","6","7","7","4","3","5","6","7","5","5","5","2","4","2","6","4","5","4","1","6","1","6","1","4","4","5","6","6","2","3","2","2","3","2","4","3","2","6","4","7","6","3","4","2","5","2","7","3","6","783652100818341890","张","269","Male","[""好我"",""坏他"",""好他"",""坏我""]","[""强我"",""弱他"",""强他"",""弱我""]","","","","","","","","yes","","","","","","","","","SRET","EW_formal","","key","j","16.667603448275948","640","356","朋友","自律","Positive","ability","","","","","","","","","","",""
"724","","f","psychophysics","35","198259","0.0-7.0-3.0-0.21","6","4","5","6","5","3","2","4","4","4","4","0","-2","0","-1","1","1","0","1","4","5","4","4","4","3","4","3","5","4","4","6","7","7","4","3","5","6","7","5","5","5","2","4","2","6","4","5","4","1","6","1","6","1","4","4","5","6","6","2","3","2","2","3","2","4","3","2","6","4","7","6","3","4","2","5","2","7","3","6","783652100818341890","张","269","Male","[""好我"",""坏他"",""好他"",""坏我""]","[""强我"",""弱他"",""强他"",""弱我""]","","","","","","","","no","","","","","","","","","SRET","EW_formal","","key","f","16.666893203883234","640","356","朋友","下流","Negative","morality","","","","","","","","","","",""
"737","","j","psychophysics","36","199997","0.0-7.0-3.0-0.22","6","4","5","6","5","3","2","4","4","4","4","0","-2","0","-1","1","1","0","1","4","5","4","4","4","3","4","3","5","4","4","6","7","7","4","3","5","6","7","5","5","5","2","4","2","6","4","5","4","1","6","1","6","1","4","4","5","6","6","2","3","2","2","3","2","4","3","2","6","4","7","6","3","4","2","5","2","7","3","6","783652100818341890","张","269","Male","[""好我"",""坏他"",""好他"",""坏我""]","[""强我"",""弱他"",""强他"",""弱我""]","","","","","","","","yes","","","","","","","","","SRET","EW_formal","","key","j","16.667601941747634","640","356","自己","周到","Positive","ability","","","","","","","","","","",""
"1057","","j","psychophysics","37","202056","0.0-7.0-3.0-0.23","6","4","5","6","5","3","2","4","4","4","4","0","-2","0","-1","1","1","0","1","4","5","4","4","4","3","4","3","5","4","4","6","7","7","4","3","5","6","7","5","5","5","2","4","2","6","4","5","4","1","6","1","6","1","4","4","5","6","6","2","3","2","2","3","2","4","3","2","6","4","7","6","3","4","2","5","2","7","3","6","783652100818341890","张","269","Male","[""好我"",""坏他"",""好他"",""坏我""]","[""强我"",""弱他"",""强他"",""弱我""]","","","","","","","","yes","","","","","","","","","SRET","EW_formal","","key","j","16.667532786885353","640","356","朋友","独断","Negative","ability","","","","","","","","","","",""
"836","","f","psychophysics","38","203894","0.0-7.0-3.0-0.24","6","4","5","6","5","3","2","4","4","4","4","0","-2","0","-1","1","1","0","1","4","5","4","4","4","3","4","3","5","4","4","6","7","7","4","3","5","6","7","5","5","5","2","4","2","6","4","5","4","1","6","1","6","1","4","4","5","6","6","2","3","2","2","3","2","4","3","2","6","4","7","6","3","4","2","5","2","7","3","6","783652100818341890","张","269","Male","[""好我"",""坏他"",""好他"",""坏我""]","[""强我"",""弱他"",""强他"",""弱我""]","","","","","","","","no","","","","","","","","","SRET","EW_formal","","key","f","16.6666545454545","640","356","朋友","犹豫","Negative","ability","","","","","","","","","","",""
"826","","j","psychophysics","39","205721","0.0-7.0-3.0-0.25","6","4","5","6","5","3","2","4","4","4","4","0","-2","0","-1","1","1","0","1","4","5","4","4","4","3","4","3","5","4","4","6","7","7","4","3","5","6","7","5","5","5","2","4","2","6","4","5","4","1","6","1","6","1","4","4","5","6","6","2","3","2","2","3","2","4","3","2","6","4","7","6","3","4","2","5","2","7","3","6","783652100818341890","张","269","Male","[""好我"",""坏他"",""好他"",""坏我""]","[""强我"",""弱他"",""强他"",""弱我""]","","","","","","","","yes","","","","","","","","","SRET","EW_formal","","key","j","16.666583333333417","640","356","朋友","仁厚","Positive","morality","","","","","","","","","","",""
"703","","f","psychophysics","40","207425","0.0-7.0-3.0-0.26","6","4","5","6","5","3","2","4","4","4","4","0","-2","0","-1","1","1","0","1","4","5","4","4","4","3","4","3","5","4","4","6","7","7","4","3","5","6","7","5","5","5","2","4","2","6","4","5","4","1","6","1","6","1","4","4","5","6","6","2","3","2","2","3","2","4","3","2","6","4","7","6","3","4","2","5","2","7","3","6","783652100818341890","张","269","Male","[""好我"",""坏他"",""好他"",""坏我""]","[""强我"",""弱他"",""强他"",""弱我""]","","","","","","","","no","","","","","","","","","SRET","EW_formal","","key","f","16.666549019607675","640","356","朋友","业余","Negative","ability","","","","","","","","","","",""
"699","","f","psychophysics","41","209125","0.0-7.0-3.0-0.27","6","4","5","6","5","3","2","4","4","4","4","0","-2","0","-1","1","1","0","1","4","5","4","4","4","3","4","3","5","4","4","6","7","7","4","3","5","6","7","5","5","5","2","4","2","6","4","5","4","1","6","1","6","1","4","4","5","6","6","2","3","2","2","3","2","4","3","2","6","4","7","6","3","4","2","5","2","7","3","6","783652100818341890","张","269","Male","[""好我"",""坏他"",""好他"",""坏我""]","[""强我"",""弱他"",""强他"",""弱我""]","","","","","","","","no","","","","","","","","","SRET","EW_formal","","key","f","16.667960396039387","640","356","朋友","邪恶","Negative","morality","","","","","","","","","","",""
"770","","j","psychophysics","42","210897","0.0-7.0-3.0-0.28","6","4","5","6","5","3","2","4","4","4","4","0","-2","0","-1","1","1","0","1","4","5","4","4","4","3","4","3","5","4","4","6","7","7","4","3","5","6","7","5","5","5","2","4","2","6","4","5","4","1","6","1","6","1","4","4","5","6","6","2","3","2","2","3","2","4","3","2","6","4","7","6","3","4","2","5","2","7","3","6","783652100818341890","张","269","Male","[""好我"",""坏他"",""好他"",""坏我""]","[""强我"",""弱他"",""强他"",""弱我""]","","","","","","","","yes","","","","","","","","","SRET","EW_formal","","key","j","16.665076190476316","640","356","朋友","廉正","Positive","morality","","","","","","","","","","",""
"627","","j","psychophysics","43","212525","0.0-7.0-3.0-0.29","6","4","5","6","5","3","2","4","4","4","4","0","-2","0","-1","1","1","0","1","4","5","4","4","4","3","4","3","5","4","4","6","7","7","4","3","5","6","7","5","5","5","2","4","2","6","4","5","4","1","6","1","6","1","4","4","5","6","6","2","3","2","2","3","2","4","3","2","6","4","7","6","3","4","2","5","2","7","3","6","783652100818341890","张","269","Male","[""好我"",""坏他"",""好他"",""坏我""]","[""强我"",""弱他"",""强他"",""弱我""]","","","","","","","","yes","","","","","","","","","SRET","EW_formal","","key","j","16.66686597938131","640","356","自己","爱国","Positive","morality","","","","","","","","","","",""
"653","","j","psychophysics","44","214180","0.0-7.0-3.0-0.30","6","4","5","6","5","3","2","4","4","4","4","0","-2","0","-1","1","1","0","1","4","5","4","4","4","3","4","3","5","4","4","6","7","7","4","3","5","6","7","5","5","5","2","4","2","6","4","5","4","1","6","1","6","1","4","4","5","6","6","2","3","2","2","3","2","4","3","2","6","4","7","6","3","4","2","5","2","7","3","6","783652100818341890","张","269","Male","[""好我"",""坏他"",""好他"",""坏我""]","[""强我"",""弱他"",""强他"",""弱我""]","","","","","","","","yes","","","","","","","","","SRET","EW_formal","","key","j","16.669857142857225","640","356","自己","沉着","Positive","ability","","","","","","","","","","",""
"608","","j","psychophysics","45","215790","0.0-7.0-3.0-0.31","6","4","5","6","5","3","2","4","4","4","4","0","-2","0","-1","1","1","0","1","4","5","4","4","4","3","4","3","5","4","4","6","7","7","4","3","5","6","7","5","5","5","2","4","2","6","4","5","4","1","6","1","6","1","4","4","5","6","6","2","3","2","2","3","2","4","3","2","6","4","7","6","3","4","2","5","2","7","3","6","783652100818341890","张","269","Male","[""好我"",""坏他"",""好他"",""坏我""]","[""强我"",""弱他"",""强他"",""弱我""]","","","","","","","","yes","","","","","","","","","SRET","EW_formal","","key","j","16.667114583333387","640","356","朋友","正气","Positive","morality","","","","","","","","","","",""
"791","","f","psychophysics","46","217582","0.0-7.0-3.0-0.32","6","4","5","6","5","3","2","4","4","4","4","0","-2","0","-1","1","1","0","1","4","5","4","4","4","3","4","3","5","4","4","6","7","7","4","3","5","6","7","5","5","5","2","4","2","6","4","5","4","1","6","1","6","1","4","4","5","6","6","2","3","2","2","3","2","4","3","2","6","4","7","6","3","4","2","5","2","7","3","6","783652100818341890","张","269","Male","[""好我"",""坏他"",""好他"",""坏我""]","[""强我"",""弱他"",""强他"",""弱我""]","","","","","","","","no","","","","","","","","","SRET","EW_formal","","key","f","16.663698113207676","640","356","自己","无知","Negative","ability","","","","","","","","","","",""
"603","","j","psychophysics","47","219187","0.0-7.0-3.0-0.33","6","4","5","6","5","3","2","4","4","4","4","0","-2","0","-1","1","1","0","1","4","5","4","4","4","3","4","3","5","4","4","6","7","7","4","3","5","6","7","5","5","5","2","4","2","6","4","5","4","1","6","1","6","1","4","4","5","6","6","2","3","2","2","3","2","4","3","2","6","4","7","6","3","4","2","5","2","7","3","6","783652100818341890","张","269","Male","[""好我"",""坏他"",""好他"",""坏我""]","[""强我"",""弱他"",""强他"",""弱我""]","","","","","","","","yes","","","","","","","","","SRET","EW_formal","","key","j","16.668842105263245","640","356","自己","勤奋","Positive","ability","","","","","","","","","","",""
"466","","j","psychophysics","48","220655","0.0-7.0-3.0-0.34","6","4","5","6","5","3","2","4","4","4","4","0","-2","0","-1","1","1","0","1","4","5","4","4","4","3","4","3","5","4","4","6","7","7","4","3","5","6","7","5","5","5","2","4","2","6","4","5","4","1","6","1","6","1","4","4","5","6","6","2","3","2","2","3","2","4","3","2","6","4","7","6","3","4","2","5","2","7","3","6","783652100818341890","张","269","Male","[""好我"",""坏他"",""好他"",""坏我""]","[""强我"",""弱他"",""强他"",""弱我""]","","","","","","","","yes","","","","","","","","","SRET","EW_formal","","key","j","16.668310344827713","640","356","自己","热心","Positive","morality","","","","","","","","","","",""
"477","","j","psychophysics","49","222136","0.0-7.0-3.0-0.35","6","4","5","6","5","3","2","4","4","4","4","0","-2","0","-1","1","1","0","1","4","5","4","4","4","3","4","3","5","4","4","6","7","7","4","3","5","6","7","5","5","5","2","4","2","6","4","5","4","1","6","1","6","1","4","4","5","6","6","2","3","2","2","3","2","4","3","2","6","4","7","6","3","4","2","5","2","7","3","6","783652100818341890","张","269","Male","[""好我"",""坏他"",""好他"",""坏我""]","[""强我"",""弱他"",""强他"",""弱我""]","","","","","","","","yes","","","","","","","","","SRET","EW_formal","","key","j","16.668329545454483","640","356","朋友","扎实","Positive","ability","","","","","","","","","","",""
"506","","f","psychophysics","50","223643","0.0-7.0-3.0-0.36","6","4","5","6","5","3","2","4","4","4","4","0","-2","0","-1","1","1","0","1","4","5","4","4","4","3","4","3","5","4","4","6","7","7","4","3","5","6","7","5","5","5","2","4","2","6","4","5","4","1","6","1","6","1","4","4","5","6","6","2","3","2","2","3","2","4","3","2","6","4","7","6","3","4","2","5","2","7","3","6","783652100818341890","张","269","Male","[""好我"",""坏他"",""好他"",""坏我""]","[""强我"",""弱他"",""强他"",""弱我""]","","","","","","","","no","","","","","","","","","SRET","EW_formal","","key","f","16.66959999999995","640","356","朋友","罪恶","Negative","morality","","","","","","","","","","",""
"713","","j","psychophysics","51","225357","0.0-7.0-3.0-0.37","6","4","5","6","5","3","2","4","4","4","4","0","-2","0","-1","1","1","0","1","4","5","4","4","4","3","4","3","5","4","4","6","7","7","4","3","5","6","7","5","5","5","2","4","2","6","4","5","4","1","6","1","6","1","4","4","5","6","6","2","3","2","2","3","2","4","3","2","6","4","7","6","3","4","2","5","2","7","3","6","783652100818341890","张","269","Male","[""好我"",""坏他"",""好他"",""坏我""]","[""强我"",""弱他"",""强他"",""弱我""]","","","","","","","","yes","","","","","","","","","SRET","EW_formal","","key","j","16.669490196078435","640","356","朋友","忠义","Positive","morality","","","","","","","","","","",""
"551","","j","psychophysics","52","226911","0.0-7.0-3.0-0.38","6","4","5","6","5","3","2","4","4","4","4","0","-2","0","-1","1","1","0","1","4","5","4","4","4","3","4","3","5","4","4","6","7","7","4","3","5","6","7","5","5","5","2","4","2","6","4","5","4","1","6","1","6","1","4","4","5","6","6","2","3","2","2","3","2","4","3","2","6","4","7","6","3","4","2","5","2","7","3","6","783652100818341890","张","269","Male","[""好我"",""坏他"",""好他"",""坏我""]","[""强我"",""弱他"",""强他"",""弱我""]","","","","","","","","yes","","","","","","","","","SRET","EW_formal","","key","j","16.662206521739236","640","356","朋友","侠义","Positive","morality","","","","","","","","","","",""
"1014","","f","psychophysics","53","228927","0.0-7.0-3.0-0.39","6","4","5","6","5","3","2","4","4","4","4","0","-2","0","-1","1","1","0","1","4","5","4","4","4","3","4","3","5","4","4","6","7","7","4","3","5","6","7","5","5","5","2","4","2","6","4","5","4","1","6","1","6","1","4","4","5","6","6","2","3","2","2","3","2","4","3","2","6","4","7","6","3","4","2","5","2","7","3","6","783652100818341890","张","269","Male","[""好我"",""坏他"",""好他"",""坏我""]","[""强我"",""弱他"",""强他"",""弱我""]","","","","","","","","no","","","","","","","","","SRET","EW_formal","","key","f","16.66803333333325","640","356","自己","逞强","Negative","ability","","","","","","","","","","",""
"569","","j","psychophysics","54","230497","0.0-7.0-3.0-0.40","6","4","5","6","5","3","2","4","4","4","4","0","-2","0","-1","1","1","0","1","4","5","4","4","4","3","4","3","5","4","4","6","7","7","4","3","5","6","7","5","5","5","2","4","2","6","4","5","4","1","6","1","6","1","4","4","5","6","6","2","3","2","2","3","2","4","3","2","6","4","7","6","3","4","2","5","2","7","3","6","783652100818341890","张","269","Male","[""好我"",""坏他"",""好他"",""坏我""]","[""强我"",""弱他"",""强他"",""弱我""]","","","","","","","","yes","","","","","","","","","SRET","EW_formal","","key","j","16.66797849462369","640","356","自己","勤恳","Positive","morality","","","","","","","","","","",""
"866","","j","psychophysics","55","232363","0.0-7.0-3.0-0.41","6","4","5","6","5","3","2","4","4","4","4","0","-2","0","-1","1","1","0","1","4","5","4","4","4","3","4","3","5","4","4","6","7","7","4","3","5","6","7","5","5","5","2","4","2","6","4","5","4","1","6","1","6","1","4","4","5","6","6","2","3","2","2","3","2","4","3","2","6","4","7","6","3","4","2","5","2","7","3","6","783652100818341890","张","269","Male","[""好我"",""坏他"",""好他"",""坏我""]","[""强我"",""弱他"",""强他"",""弱我""]","","","","","","","","yes","","","","","","","","","SRET","EW_formal","","key","j","16.667342342342447","640","356","自己","孝顺","Positive","morality","","","","","","","","","","",""
"648","","f","psychophysics","56","234012","0.0-7.0-3.0-0.42","6","4","5","6","5","3","2","4","4","4","4","0","-2","0","-1","1","1","0","1","4","5","4","4","4","3","4","3","5","4","4","6","7","7","4","3","5","6","7","5","5","5","2","4","2","6","4","5","4","1","6","1","6","1","4","4","5","6","6","2","3","2","2","3","2","4","3","2","6","4","7","6","3","4","2","5","2","7","3","6","783652100818341890","张","269","Male","[""好我"",""坏他"",""好他"",""坏我""]","[""强我"",""弱他"",""强他"",""弱我""]","","","","","","","","no","","","","","","","","","SRET","EW_formal","","key","f","16.667816326530573","640","356","自己","小人","Negative","morality","","","","","","","","","","",""
"1060","","f","psychophysics","57","236074","0.0-7.0-3.0-0.43","6","4","5","6","5","3","2","4","4","4","4","0","-2","0","-1","1","1","0","1","4","5","4","4","4","3","4","3","5","4","4","6","7","7","4","3","5","6","7","5","5","5","2","4","2","6","4","5","4","1","6","1","6","1","4","4","5","6","6","2","3","2","2","3","2","4","3","2","6","4","7","6","3","4","2","5","2","7","3","6","783652100818341890","张","269","Male","[""好我"",""坏他"",""好他"",""坏我""]","[""强我"",""弱他"",""强他"",""弱我""]","","","","","","","","no","","","","","","","","","SRET","EW_formal","","key","f","16.668756097560838","640","356","朋友","不孝","Negative","morality","","","","","","","","","","",""
"979","","f","psychophysics","58","238056","0.0-7.0-3.0-0.44","6","4","5","6","5","3","2","4","4","4","4","0","-2","0","-1","1","1","0","1","4","5","4","4","4","3","4","3","5","4","4","6","7","7","4","3","5","6","7","5","5","5","2","4","2","6","4","5","4","1","6","1","6","1","4","4","5","6","6","2","3","2","2","3","2","4","3","2","6","4","7","6","3","4","2","5","2","7","3","6","783652100818341890","张","269","Male","[""好我"",""坏他"",""好他"",""坏我""]","[""强我"",""弱他"",""强他"",""弱我""]","","","","","","","","no","","","","","","","","","SRET","EW_formal","","key","f","16.667864406779824","640","356","自己","阴毒","Negative","morality","","","","","","","","","","",""
"652","","f","psychophysics","59","239710","0.0-7.0-3.0-0.45","6","4","5","6","5","3","2","4","4","4","4","0","-2","0","-1","1","1","0","1","4","5","4","4","4","3","4","3","5","4","4","6","7","7","4","3","5","6","7","5","5","5","2","4","2","6","4","5","4","1","6","1","6","1","4","4","5","6","6","2","3","2","2","3","2","4","3","2","6","4","7","6","3","4","2","5","2","7","3","6","783652100818341890","张","269","Male","[""好我"",""坏他"",""好他"",""坏我""]","[""强我"",""弱他"",""强他"",""弱我""]","","","","","","","","no","","","","","","","","","SRET","EW_formal","","key","f","16.664551020408055","640","356","朋友","昏庸","Negative","ability","","","","","","","","","","",""
"711","","f","psychophysics","60","241423","0.0-7.0-3.0-0.46","6","4","5","6","5","3","2","4","4","4","4","0","-2","0","-1","1","1","0","1","4","5","4","4","4","3","4","3","5","4","4","6","7","7","4","3","5","6","7","5","5","5","2","4","2","6","4","5","4","1","6","1","6","1","4","4","5","6","6","2","3","2","2","3","2","4","3","2","6","4","7","6","3","4","2","5","2","7","3","6","783652100818341890","张","269","Male","[""好我"",""坏他"",""好他"",""坏我""]","[""强我"",""弱他"",""强他"",""弱我""]","","","","","","","","no","","","","","","","","","SRET","EW_formal","","key","f","16.66863725490197","640","356","自己","狡狯","Negative","morality","","","","","","","","","","",""
"734","","j","psychophysics","61","243159","0.0-7.0-3.0-0.47","6","4","5","6","5","3","2","4","4","4","4","0","-2","0","-1","1","1","0","1","4","5","4","4","4","3","4","3","5","4","4","6","7","7","4","3","5","6","7","5","5","5","2","4","2","6","4","5","4","1","6","1","6","1","4","4","5","6","6","2","3","2","2","3","2","4","3","2","6","4","7","6","3","4","2","5","2","7","3","6","783652100818341890","张","269","Male","[""好我"",""坏他"",""好他"",""坏我""]","[""强我"",""弱他"",""强他"",""弱我""]","","","","","","","","yes","","","","","","","","","SRET","EW_formal","","key","j","16.666106796116473","640","356","自己","礼貌","Positive","morality","","","","","","","","","","",""
"700","","f","psychophysics","62","244861","0.0-7.0-3.0-0.48","6","4","5","6","5","3","2","4","4","4","4","0","-2","0","-1","1","1","0","1","4","5","4","4","4","3","4","3","5","4","4","6","7","7","4","3","5","6","7","5","5","5","2","4","2","6","4","5","4","1","6","1","6","1","4","4","5","6","6","2","3","2","2","3","2","4","3","2","6","4","7","6","3","4","2","5","2","7","3","6","783652100818341890","张","269","Male","[""好我"",""坏他"",""好他"",""坏我""]","[""强我"",""弱他"",""强他"",""弱我""]","","","","","","","","no","","","","","","","","","SRET","EW_formal","","key","f","16.665891089108957","640","356","朋友","窝囊","Negative","ability","","","","","","","","","","",""
"716","","j","psychophysics","63","246579","0.0-7.0-3.0-0.49","6","4","5","6","5","3","2","4","4","4","4","0","-2","0","-1","1","1","0","1","4","5","4","4","4","3","4","3","5","4","4","6","7","7","4","3","5","6","7","5","5","5","2","4","2","6","4","5","4","1","6","1","6","1","4","4","5","6","6","2","3","2","2","3","2","4","3","2","6","4","7","6","3","4","2","5","2","7","3","6","783652100818341890","张","269","Male","[""好我"",""坏他"",""好他"",""坏我""]","[""强我"",""弱他"",""强他"",""弱我""]","","","","","","","","yes","","","","","","","","","SRET","EW_formal","","key","j","16.667421568627354","640","356","朋友","博识","Positive","ability","","","","","","","","","","",""
"614","","f","psychophysics","64","248194","0.0-7.0-3.0-0.50","6","4","5","6","5","3","2","4","4","4","4","0","-2","0","-1","1","1","0","1","4","5","4","4","4","3","4","3","5","4","4","6","7","7","4","3","5","6","7","5","5","5","2","4","2","6","4","5","4","1","6","1","6","1","4","4","5","6","6","2","3","2","2","3","2","4","3","2","6","4","7","6","3","4","2","5","2","7","3","6","783652100818341890","张","269","Male","[""好我"",""坏他"",""好他"",""坏我""]","[""强我"",""弱他"",""强他"",""弱我""]","","","","","","","","no","","","","","","","","","SRET","EW_formal","","key","f","16.66838541666675","640","356","朋友","恶劣","Negative","morality","","","","","","","","","","",""
"739","","f","psychophysics","65","249934","0.0-7.0-3.0-0.51","6","4","5","6","5","3","2","4","4","4","4","0","-2","0","-1","1","1","0","1","4","5","4","4","4","3","4","3","5","4","4","6","7","7","4","3","5","6","7","5","5","5","2","4","2","6","4","5","4","1","6","1","6","1","4","4","5","6","6","2","3","2","2","3","2","4","3","2","6","4","7","6","3","4","2","5","2","7","3","6","783652100818341890","张","269","Male","[""好我"",""坏他"",""好他"",""坏我""]","[""强我"",""弱他"",""强他"",""弱我""]","","","","","","","","no","","","","","","","","","SRET","EW_formal","","key","f","16.667388349514653","640","356","朋友","短视","Negative","ability","","","","","","","","","","",""
"509","","f","psychophysics","66","251446","0.0-7.0-3.0-0.52","6","4","5","6","5","3","2","4","4","4","4","0","-2","0","-1","1","1","0","1","4","5","4","4","4","3","4","3","5","4","4","6","7","7","4","3","5","6","7","5","5","5","2","4","2","6","4","5","4","1","6","1","6","1","4","4","5","6","6","2","3","2","2","3","2","4","3","2","6","4","7","6","3","4","2","5","2","7","3","6","783652100818341890","张","269","Male","[""好我"",""坏他"",""好他"",""坏我""]","[""强我"",""弱他"",""强他"",""弱我""]","","","","","","","","no","","","","","","","","","SRET","EW_formal","","key","f","16.670444444444406","640","356","朋友","贪腐","Negative","morality","","","","","","","","","","",""
"1315","","f","psychophysics","67","253762","0.0-7.0-3.0-0.53","6","4","5","6","5","3","2","4","4","4","4","0","-2","0","-1","1","1","0","1","4","5","4","4","4","3","4","3","5","4","4","6","7","7","4","3","5","6","7","5","5","5","2","4","2","6","4","5","4","1","6","1","6","1","4","4","5","6","6","2","3","2","2","3","2","4","3","2","6","4","7","6","3","4","2","5","2","7","3","6","783652100818341890","张","269","Male","[""好我"",""坏他"",""好他"",""坏我""]","[""强我"",""弱他"",""强他"",""弱我""]","","","","","","","","no","","","","","","","","","SRET","EW_formal","","key","f","16.667471014492786","640","356","朋友","无敌","Positive","ability","","","","","","","","","","",""
"762","","f","psychophysics","68","255525","0.0-7.0-3.0-0.54","6","4","5","6","5","3","2","4","4","4","4","0","-2","0","-1","1","1","0","1","4","5","4","4","4","3","4","3","5","4","4","6","7","7","4","3","5","6","7","5","5","5","2","4","2","6","4","5","4","1","6","1","6","1","4","4","5","6","6","2","3","2","2","3","2","4","3","2","6","4","7","6","3","4","2","5","2","7","3","6","783652100818341890","张","269","Male","[""好我"",""坏他"",""好他"",""坏我""]","[""强我"",""弱他"",""强他"",""弱我""]","","","","","","","","no","","","","","","","","","SRET","EW_formal","","key","f","16.66734285714282","640","356","朋友","庸碌","Negative","ability","","","","","","","","","","",""
"896","","j","psychophysics","69","257423","0.0-7.0-3.0-0.55","6","4","5","6","5","3","2","4","4","4","4","0","-2","0","-1","1","1","0","1","4","5","4","4","4","3","4","3","5","4","4","6","7","7","4","3","5","6","7","5","5","5","2","4","2","6","4","5","4","1","6","1","6","1","4","4","5","6","6","2","3","2","2","3","2","4","3","2","6","4","7","6","3","4","2","5","2","7","3","6","783652100818341890","张","269","Male","[""好我"",""坏他"",""好他"",""坏我""]","[""强我"",""弱他"",""强他"",""弱我""]","","","","","","","","yes","","","","","","","","","SRET","EW_formal","","key","j","16.667150442477933","640","356","朋友","敏捷","Positive","ability","","","","","","","","","","",""
"743","","j","psychophysics","70","259170","0.0-7.0-3.0-0.56","6","4","5","6","5","3","2","4","4","4","4","0","-2","0","-1","1","1","0","1","4","5","4","4","4","3","4","3","5","4","4","6","7","7","4","3","5","6","7","5","5","5","2","4","2","6","4","5","4","1","6","1","6","1","4","4","5","6","6","2","3","2","2","3","2","4","3","2","6","4","7","6","3","4","2","5","2","7","3","6","783652100818341890","张","269","Male","[""好我"",""坏他"",""好他"",""坏我""]","[""强我"",""弱他"",""强他"",""弱我""]","","","","","","","","yes","","","","","","","","","SRET","EW_formal","","key","j","16.669174757281723","640","356","自己","仁爱","Positive","morality","","","","","","","","","","",""
"541","","j","psychophysics","71","260713","0.0-7.0-3.0-0.57","6","4","5","6","5","3","2","4","4","4","4","0","-2","0","-1","1","1","0","1","4","5","4","4","4","3","4","3","5","4","4","6","7","7","4","3","5","6","7","5","5","5","2","4","2","6","4","5","4","1","6","1","6","1","4","4","5","6","6","2","3","2","2","3","2","4","3","2","6","4","7","6","3","4","2","5","2","7","3","6","783652100818341890","张","269","Male","[""好我"",""坏他"",""好他"",""坏我""]","[""强我"",""弱他"",""强他"",""弱我""]","","","","","","","","yes","","","","","","","","","SRET","EW_formal","","key","j","16.66916304347852","640","356","自己","专注","Positive","ability","","","","","","","","","","",""
"537","","f","psychophysics","72","262251","0.0-7.0-3.0-0.58","6","4","5","6","5","3","2","4","4","4","4","0","-2","0","-1","1","1","0","1","4","5","4","4","4","3","4","3","5","4","4","6","7","7","4","3","5","6","7","5","5","5","2","4","2","6","4","5","4","1","6","1","6","1","4","4","5","6","6","2","3","2","2","3","2","4","3","2","6","4","7","6","3","4","2","5","2","7","3","6","783652100818341890","张","269","Male","[""好我"",""坏他"",""好他"",""坏我""]","[""强我"",""弱他"",""强他"",""弱我""]","","","","","","","","no","","","","","","","","","SRET","EW_formal","","key","f","16.66639560439552","640","356","自己","低劣","Negative","morality","","","","","","","","","","",""
"603","","j","psychophysics","73","263856","0.0-7.0-3.0-0.59","6","4","5","6","5","3","2","4","4","4","4","0","-2","0","-1","1","1","0","1","4","5","4","4","4","3","4","3","5","4","4","6","7","7","4","3","5","6","7","5","5","5","2","4","2","6","4","5","4","1","6","1","6","1","4","4","5","6","6","2","3","2","2","3","2","4","3","2","6","4","7","6","3","4","2","5","2","7","3","6","783652100818341890","张","269","Male","[""好我"",""坏他"",""好他"",""坏我""]","[""强我"",""弱他"",""强他"",""弱我""]","","","","","","","","yes","","","","","","","","","SRET","EW_formal","","key","j","16.666635416666395","640","356","自己","上进","Positive","ability","","","","","","","","","","",""
"817","","f","psychophysics","74","265676","0.0-7.0-3.0-0.60","6","4","5","6","5","3","2","4","4","4","4","0","-2","0","-1","1","1","0","1","4","5","4","4","4","3","4","3","5","4","4","6","7","7","4","3","5","6","7","5","5","5","2","4","2","6","4","5","4","1","6","1","6","1","4","4","5","6","6","2","3","2","2","3","2","4","3","2","6","4","7","6","3","4","2","5","2","7","3","6","783652100818341890","张","269","Male","[""好我"",""坏他"",""好他"",""坏我""]","[""强我"",""弱他"",""强他"",""弱我""]","","","","","","","","no","","","","","","","","","SRET","EW_formal","","key","f","16.66785185185209","640","356","朋友","忠诚","Positive","morality","","","","","","","","","","",""
"748","","f","psychophysics","75","267425","0.0-7.0-3.0-0.61","6","4","5","6","5","3","2","4","4","4","4","0","-2","0","-1","1","1","0","1","4","5","4","4","4","3","4","3","5","4","4","6","7","7","4","3","5","6","7","5","5","5","2","4","2","6","4","5","4","1","6","1","6","1","4","4","5","6","6","2","3","2","2","3","2","4","3","2","6","4","7","6","3","4","2","5","2","7","3","6","783652100818341890","张","269","Male","[""好我"",""坏他"",""好他"",""坏我""]","[""强我"",""弱他"",""强他"",""弱我""]","","","","","","","","no","","","","","","","","","SRET","EW_formal","","key","f","16.664749999999632","640","356","自己","混账","Negative","morality","","","","","","","","","","",""
"1090","","j","psychophysics","76","269516","0.0-7.0-3.0-0.62","6","4","5","6","5","3","2","4","4","4","4","0","-2","0","-1","1","1","0","1","4","5","4","4","4","3","4","3","5","4","4","6","7","7","4","3","5","6","7","5","5","5","2","4","2","6","4","5","4","1","6","1","6","1","4","4","5","6","6","2","3","2","2","3","2","4","3","2","6","4","7","6","3","4","2","5","2","7","3","6","783652100818341890","张","269","Male","[""好我"",""坏他"",""好他"",""坏我""]","[""强我"",""弱他"",""强他"",""弱我""]","","","","","","","","yes","","","","","","","","","SRET","EW_formal","","key","j","16.664919354838805","640","356","朋友","拜金","Negative","morality","","","","","","","","","","",""
"1083","","f","psychophysics","77","271601","0.0-7.0-3.0-0.63","6","4","5","6","5","3","2","4","4","4","4","0","-2","0","-1","1","1","0","1","4","5","4","4","4","3","4","3","5","4","4","6","7","7","4","3","5","6","7","5","5","5","2","4","2","6","4","5","4","1","6","1","6","1","4","4","5","6","6","2","3","2","2","3","2","4","3","2","6","4","7","6","3","4","2","5","2","7","3","6","783652100818341890","张","269","Male","[""好我"",""坏他"",""好他"",""坏我""]","[""强我"",""弱他"",""强他"",""弱我""]","","","","","","","","no","","","","","","","","","SRET","EW_formal","","key","f","16.669056451612814","640","356","自己","草率","Negative","ability","","","","","","","","","","",""
"761","","f","psychophysics","78","273363","0.0-7.0-3.0-0.64","6","4","5","6","5","3","2","4","4","4","4","0","-2","0","-1","1","1","0","1","4","5","4","4","4","3","4","3","5","4","4","6","7","7","4","3","5","6","7","5","5","5","2","4","2","6","4","5","4","1","6","1","6","1","4","4","5","6","6","2","3","2","2","3","2","4","3","2","6","4","7","6","3","4","2","5","2","7","3","6","783652100818341890","张","269","Male","[""好我"",""坏他"",""好他"",""坏我""]","[""强我"",""弱他"",""强他"",""弱我""]","","","","","","","","no","","","","","","","","","SRET","EW_formal","","key","f","16.668304761904956","640","356","自己","虚假","Negative","morality","","","","","","","","","","",""
"621","","j","psychophysics","79","274985","0.0-7.0-3.0-0.65","6","4","5","6","5","3","2","4","4","4","4","0","-2","0","-1","1","1","0","1","4","5","4","4","4","3","4","3","5","4","4","6","7","7","4","3","5","6","7","5","5","5","2","4","2","6","4","5","4","1","6","1","6","1","4","4","5","6","6","2","3","2","2","3","2","4","3","2","6","4","7","6","3","4","2","5","2","7","3","6","783652100818341890","张","269","Male","[""好我"",""坏他"",""好他"",""坏我""]","[""强我"",""弱他"",""强他"",""弱我""]","","","","","","","","yes","","","","","","","","","SRET","EW_formal","","key","j","16.66858333333342","640","356","自己","能干","Positive","ability","","","","","","","","","","",""
"891","","j","psychophysics","80","276877","0.0-7.0-3.0-0.66","6","4","5","6","5","3","2","4","4","4","4","0","-2","0","-1","1","1","0","1","4","5","4","4","4","3","4","3","5","4","4","6","7","7","4","3","5","6","7","5","5","5","2","4","2","6","4","5","4","1","6","1","6","1","4","4","5","6","6","2","3","2","2","3","2","4","3","2","6","4","7","6","3","4","2","5","2","7","3","6","783652100818341890","张","269","Male","[""好我"",""坏他"",""好他"",""坏我""]","[""强我"",""弱他"",""强他"",""弱我""]","","","","","","","","yes","","","","","","","","","SRET","EW_formal","","key","j","16.6685929203543","640","356","自己","依靠","Negative","ability","","","","","","","","","","",""
"580","","f","psychophysics","81","278459","0.0-7.0-3.0-0.67","6","4","5","6","5","3","2","4","4","4","4","0","-2","0","-1","1","1","0","1","4","5","4","4","4","3","4","3","5","4","4","6","7","7","4","3","5","6","7","5","5","5","2","4","2","6","4","5","4","1","6","1","6","1","4","4","5","6","6","2","3","2","2","3","2","4","3","2","6","4","7","6","3","4","2","5","2","7","3","6","783652100818341890","张","269","Male","[""好我"",""坏他"",""好他"",""坏我""]","[""强我"",""弱他"",""强他"",""弱我""]","","","","","","","","no","","","","","","","","","SRET","EW_formal","","key","f","16.669308510638075","640","356","朋友","不仁","Negative","morality","","","","","","","","","","",""
"735","","j","psychophysics","82","280195","0.0-7.0-3.0-0.68","6","4","5","6","5","3","2","4","4","4","4","0","-2","0","-1","1","1","0","1","4","5","4","4","4","3","4","3","5","4","4","6","7","7","4","3","5","6","7","5","5","5","2","4","2","6","4","5","4","1","6","1","6","1","4","4","5","6","6","2","3","2","2","3","2","4","3","2","6","4","7","6","3","4","2","5","2","7","3","6","783652100818341890","张","269","Male","[""好我"",""坏他"",""好他"",""坏我""]","[""强我"",""弱他"",""强他"",""弱我""]","","","","","","","","yes","","","","","","","","","SRET","EW_formal","","key","j","16.669135922329836","640","356","朋友","刻苦","Positive","ability","","","","","","","","","","",""
"624","","j","psychophysics","83","281821","0.0-7.0-3.0-0.69","6","4","5","6","5","3","2","4","4","4","4","0","-2","0","-1","1","1","0","1","4","5","4","4","4","3","4","3","5","4","4","6","7","7","4","3","5","6","7","5","5","5","2","4","2","6","4","5","4","1","6","1","6","1","4","4","5","6","6","2","3","2","2","3","2","4","3","2","6","4","7","6","3","4","2","5","2","7","3","6","783652100818341890","张","269","Male","[""好我"",""坏他"",""好他"",""坏我""]","[""强我"",""弱他"",""强他"",""弱我""]","","","","","","","","yes","","","","","","","","","SRET","EW_formal","","key","j","16.66836458333334","640","356","自己","坦荡","Positive","morality","","","","","","","","","","",""
"476","","j","psychophysics","84","283298","0.0-7.0-3.0-0.70","6","4","5","6","5","3","2","4","4","4","4","0","-2","0","-1","1","1","0","1","4","5","4","4","4","3","4","3","5","4","4","6","7","7","4","3","5","6","7","5","5","5","2","4","2","6","4","5","4","1","6","1","6","1","4","4","5","6","6","2","3","2","2","3","2","4","3","2","6","4","7","6","3","4","2","5","2","7","3","6","783652100818341890","张","269","Male","[""好我"",""坏他"",""好他"",""坏我""]","[""强我"",""弱他"",""强他"",""弱我""]","","","","","","","","yes","","","","","","","","","SRET","EW_formal","","key","j","16.666204545454423","640","356","自己","善良","Positive","morality","","","","","","","","","","",""
"664","","f","psychophysics","85","284965","0.0-7.0-3.0-0.71","6","4","5","6","5","3","2","4","4","4","4","0","-2","0","-1","1","1","0","1","4","5","4","4","4","3","4","3","5","4","4","6","7","7","4","3","5","6","7","5","5","5","2","4","2","6","4","5","4","1","6","1","6","1","4","4","5","6","6","2","3","2","2","3","2","4","3","2","6","4","7","6","3","4","2","5","2","7","3","6","783652100818341890","张","269","Male","[""好我"",""坏他"",""好他"",""坏我""]","[""强我"",""弱他"",""强他"",""弱我""]","","","","","","","","no","","","","","","","","","SRET","EW_formal","","key","f","16.669929292929627","640","356","自己","诡诈","Negative","morality","","","","","","","","","","",""
"676","","j","psychophysics","86","286643","0.0-7.0-3.0-0.72","6","4","5","6","5","3","2","4","4","4","4","0","-2","0","-1","1","1","0","1","4","5","4","4","4","3","4","3","5","4","4","6","7","7","4","3","5","6","7","5","5","5","2","4","2","6","4","5","4","1","6","1","6","1","4","4","5","6","6","2","3","2","2","3","2","4","3","2","6","4","7","6","3","4","2","5","2","7","3","6","783652100818341890","张","269","Male","[""好我"",""坏他"",""好他"",""坏我""]","[""强我"",""弱他"",""强他"",""弱我""]","","","","","","","","yes","","","","","","","","","SRET","EW_formal","","key","j","16.670050000000046","640","356","朋友","谦逊","Positive","morality","","","","","","","","","","",""
"570","","j","psychophysics","87","288214","0.0-7.0-3.0-0.73","6","4","5","6","5","3","2","4","4","4","4","0","-2","0","-1","1","1","0","1","4","5","4","4","4","3","4","3","5","4","4","6","7","7","4","3","5","6","7","5","5","5","2","4","2","6","4","5","4","1","6","1","6","1","4","4","5","6","6","2","3","2","2","3","2","4","3","2","6","4","7","6","3","4","2","5","2","7","3","6","783652100818341890","张","269","Male","[""好我"",""坏他"",""好他"",""坏我""]","[""强我"",""弱他"",""强他"",""弱我""]","","","","","","","","yes","","","","","","","","","SRET","EW_formal","","key","j","16.667161290322916","640","356","朋友","学霸","Positive","ability","","","","","","","","","","",""
"590","","f","psychophysics","88","289806","0.0-7.0-3.0-0.74","6","4","5","6","5","3","2","4","4","4","4","0","-2","0","-1","1","1","0","1","4","5","4","4","4","3","4","3","5","4","4","6","7","7","4","3","5","6","7","5","5","5","2","4","2","6","4","5","4","1","6","1","6","1","4","4","5","6","6","2","3","2","2","3","2","4","3","2","6","4","7","6","3","4","2","5","2","7","3","6","783652100818341890","张","269","Male","[""好我"",""坏他"",""好他"",""坏我""]","[""强我"",""弱他"",""强他"",""弱我""]","","","","","","","","no","","","","","","","","","SRET","EW_formal","","key","f","16.666852631579204","640","356","自己","刻薄","Negative","morality","","","","","","","","","","",""
"588","","f","psychophysics","89","291396","0.0-7.0-3.0-0.75","6","4","5","6","5","3","2","4","4","4","4","0","-2","0","-1","1","1","0","1","4","5","4","4","4","3","4","3","5","4","4","6","7","7","4","3","5","6","7","5","5","5","2","4","2","6","4","5","4","1","6","1","6","1","4","4","5","6","6","2","3","2","2","3","2","4","3","2","6","4","7","6","3","4","2","5","2","7","3","6","783652100818341890","张","269","Male","[""好我"",""坏他"",""好他"",""坏我""]","[""强我"",""弱他"",""强他"",""弱我""]","","","","","","","","no","","","","","","","","","SRET","EW_formal","","key","f","16.664765957446317","640","356","自己","黑心","Negative","morality","","","","","","","","","","",""
"1072","","j","psychophysics","90","293470","0.0-7.0-3.0-0.76","6","4","5","6","5","3","2","4","4","4","4","0","-2","0","-1","1","1","0","1","4","5","4","4","4","3","4","3","5","4","4","6","7","7","4","3","5","6","7","5","5","5","2","4","2","6","4","5","4","1","6","1","6","1","4","4","5","6","6","2","3","2","2","3","2","4","3","2","6","4","7","6","3","4","2","5","2","7","3","6","783652100818341890","张","269","Male","[""好我"",""坏他"",""好他"",""坏我""]","[""强我"",""弱他"",""强他"",""弱我""]","","","","","","","","yes","","","","","","","","","SRET","EW_formal","","key","j","16.667252032520206","640","356","自己","守法","Positive","morality","","","","","","","","","","",""
"622","","f","psychophysics","91","295093","0.0-7.0-3.0-0.77","6","4","5","6","5","3","2","4","4","4","4","0","-2","0","-1","1","1","0","1","4","5","4","4","4","3","4","3","5","4","4","6","7","7","4","3","5","6","7","5","5","5","2","4","2","6","4","5","4","1","6","1","6","1","4","4","5","6","6","2","3","2","2","3","2","4","3","2","6","4","7","6","3","4","2","5","2","7","3","6","783652100818341890","张","269","Male","[""好我"",""坏他"",""好他"",""坏我""]","[""强我"",""弱他"",""强他"",""弱我""]","","","","","","","","no","","","","","","","","","SRET","EW_formal","","key","f","16.668969072165094","640","356","自己","失信","Negative","morality","","","","","","","","","","",""
"563","","j","psychophysics","92","296659","0.0-7.0-3.0-0.78","6","4","5","6","5","3","2","4","4","4","4","0","-2","0","-1","1","1","0","1","4","5","4","4","4","3","4","3","5","4","4","6","7","7","4","3","5","6","7","5","5","5","2","4","2","6","4","5","4","1","6","1","6","1","4","4","5","6","6","2","3","2","2","3","2","4","3","2","6","4","7","6","3","4","2","5","2","7","3","6","783652100818341890","张","269","Male","[""好我"",""坏他"",""好他"",""坏我""]","[""强我"",""弱他"",""强他"",""弱我""]","","","","","","","","yes","","","","","","","","","SRET","EW_formal","","key","j","16.666268817204806","640","356","朋友","善心","Positive","morality","","","","","","","","","","",""
"883","","f","psychophysics","93","298544","0.0-7.0-3.0-0.79","6","4","5","6","5","3","2","4","4","4","4","0","-2","0","-1","1","1","0","1","4","5","4","4","4","3","4","3","5","4","4","6","7","7","4","3","5","6","7","5","5","5","2","4","2","6","4","5","4","1","6","1","6","1","4","4","5","6","6","2","3","2","2","3","2","4","3","2","6","4","7","6","3","4","2","5","2","7","3","6","783652100818341890","张","269","Male","[""好我"",""坏他"",""好他"",""坏我""]","[""强我"",""弱他"",""强他"",""弱我""]","","","","","","","","no","","","","","","","","","SRET","EW_formal","","key","f","16.667892857142892","640","356","朋友","利落","Positive","ability","","","","","","","","","","",""
"659","","j","psychophysics","94","300206","0.0-7.0-3.0-0.80","6","4","5","6","5","3","2","4","4","4","4","0","-2","0","-1","1","1","0","1","4","5","4","4","4","3","4","3","5","4","4","6","7","7","4","3","5","6","7","5","5","5","2","4","2","6","4","5","4","1","6","1","6","1","4","4","5","6","6","2","3","2","2","3","2","4","3","2","6","4","7","6","3","4","2","5","2","7","3","6","783652100818341890","张","269","Male","[""好我"",""坏他"",""好他"",""坏我""]","[""强我"",""弱他"",""强他"",""弱我""]","","","","","","","","yes","","","","","","","","","SRET","EW_formal","","key","j","16.663979797979763","640","356","朋友","刚正","Positive","morality","","","","","","","","","","",""
"555","","j","psychophysics","95","301763","0.0-7.0-3.0-0.81","6","4","5","6","5","3","2","4","4","4","4","0","-2","0","-1","1","1","0","1","4","5","4","4","4","3","4","3","5","4","4","6","7","7","4","3","5","6","7","5","5","5","2","4","2","6","4","5","4","1","6","1","6","1","4","4","5","6","6","2","3","2","2","3","2","4","3","2","6","4","7","6","3","4","2","5","2","7","3","6","783652100818341890","张","269","Male","[""好我"",""坏他"",""好他"",""坏我""]","[""强我"",""弱他"",""强他"",""弱我""]","","","","","","","","yes","","","","","","","","","SRET","EW_formal","","key","j","16.66601086956507","640","356","朋友","细心","Positive","ability","","","","","","","","","","",""
"615","","f","psychophysics","96","303380","0.0-7.0-3.0-0.82","6","4","5","6","5","3","2","4","4","4","4","0","-2","0","-1","1","1","0","1","4","5","4","4","4","3","4","3","5","4","4","6","7","7","4","3","5","6","7","5","5","5","2","4","2","6","4","5","4","1","6","1","6","1","4","4","5","6","6","2","3","2","2","3","2","4","3","2","6","4","7","6","3","4","2","5","2","7","3","6","783652100818341890","张","269","Male","[""好我"",""坏他"",""好他"",""坏我""]","[""强我"",""弱他"",""强他"",""弱我""]","","","","","","","","no","","","","","","","","","SRET","EW_formal","","key","f","16.666083333333518","640","356","朋友","驽钝","Negative","ability","","","","","","","","","","",""
"695","","j","psychophysics","97","305077","0.0-7.0-3.0-0.83","6","4","5","6","5","3","2","4","4","4","4","0","-2","0","-1","1","1","0","1","4","5","4","4","4","3","4","3","5","4","4","6","7","7","4","3","5","6","7","5","5","5","2","4","2","6","4","5","4","1","6","1","6","1","4","4","5","6","6","2","3","2","2","3","2","4","3","2","6","4","7","6","3","4","2","5","2","7","3","6","783652100818341890","张","269","Male","[""好我"",""坏他"",""好他"",""坏我""]","[""强我"",""弱他"",""强他"",""弱我""]","","","","","","","","yes","","","","","","","","","SRET","EW_formal","","key","j","16.669910891089327","640","356","自己","思辨","Positive","ability","","","","","","","","","","",""
"593","","f","psychophysics","98","306671","0.0-7.0-3.0-0.84","6","4","5","6","5","3","2","4","4","4","4","0","-2","0","-1","1","1","0","1","4","5","4","4","4","3","4","3","5","4","4","6","7","7","4","3","5","6","7","5","5","5","2","4","2","6","4","5","4","1","6","1","6","1","4","4","5","6","6","2","3","2","2","3","2","4","3","2","6","4","7","6","3","4","2","5","2","7","3","6","783652100818341890","张","269","Male","[""好我"",""坏他"",""好他"",""坏我""]","[""强我"",""弱他"",""强他"",""弱我""]","","","","","","","","no","","","","","","","","","SRET","EW_formal","","key","f","16.670127659574142","640","356","朋友","低俗","Negative","morality","","","","","","","","","","",""
"608","","j","psychophysics","99","308282","0.0-7.0-3.0-0.85","6","4","5","6","5","3","2","4","4","4","4","0","-2","0","-1","1","1","0","1","4","5","4","4","4","3","4","3","5","4","4","6","7","7","4","3","5","6","7","5","5","5","2","4","2","6","4","5","4","1","6","1","6","1","4","4","5","6","6","2","3","2","2","3","2","4","3","2","6","4","7","6","3","4","2","5","2","7","3","6","783652100818341890","张","269","Male","[""好我"",""坏他"",""好他"",""坏我""]","[""强我"",""弱他"",""强他"",""弱我""]","","","","","","","","yes","","","","","","","","","SRET","EW_formal","","key","j","16.667989583333718","640","356","朋友","素养","Positive","morality","","","","","","","","","","",""
"504","","j","psychophysics","100","309788","0.0-7.0-3.0-0.86","6","4","5","6","5","3","2","4","4","4","4","0","-2","0","-1","1","1","0","1","4","5","4","4","4","3","4","3","5","4","4","6","7","7","4","3","5","6","7","5","5","5","2","4","2","6","4","5","4","1","6","1","6","1","4","4","5","6","6","2","3","2","2","3","2","4","3","2","6","4","7","6","3","4","2","5","2","7","3","6","783652100818341890","张","269","Male","[""好我"",""坏他"",""好他"",""坏我""]","[""强我"",""弱他"",""强他"",""弱我""]","","","","","","","","yes","","","","","","","","","SRET","EW_formal","","key","j","16.66693333333371","640","356","自己","主见","Positive","ability","","","","","","","","","","",""
"689","","f","psychophysics","101","311480","0.0-7.0-3.0-0.87","6","4","5","6","5","3","2","4","4","4","4","0","-2","0","-1","1","1","0","1","4","5","4","4","4","3","4","3","5","4","4","6","7","7","4","3","5","6","7","5","5","5","2","4","2","6","4","5","4","1","6","1","6","1","4","4","5","6","6","2","3","2","2","3","2","4","3","2","6","4","7","6","3","4","2","5","2","7","3","6","783652100818341890","张","269","Male","[""好我"",""坏他"",""好他"",""坏我""]","[""强我"",""弱他"",""强他"",""弱我""]","","","","","","","","no","","","","","","","","","SRET","EW_formal","","key","f","16.663649999999908","640","356","自己","缓慢","Negative","ability","","","","","","","","","","",""
"16323","
    <p><div style='color:white;font-size:35px; line-height:20px;'>计算任务</div></p><br>
    <p><div style='color:red;font-size:25px; line-height:20px;'>接下来，您将看到一些四则运算题，<b>请从键盘选择 0-9 进行反应。</b></div></p>
    <p><div style='color:red;font-size:25px; line-height:20px;'>请尽可能快地进行计算，计算的速度和正确率将影响报酬的发放。</div></p>
    <p><div class='footer' style='color:white;font-size:25px; line-height:20px;'>如果对本实验还有不清楚之处，请立即向实验员咨询。</p><p style='color:white;font-size:25px; line-height:20px;'>如果您明白了规则：</p><p style='color:white;font-size:22px; line-height:20px;'>请按 继续 进入练习</p>
    </div>
    ","0","html-button-response","102","327804","0.0-7.0-4.0","6","4","5","6","5","3","2","4","4","4","4","0","-2","0","-1","1","1","0","1","4","5","4","4","4","3","4","3","5","4","4","6","7","7","4","3","5","6","7","5","5","5","2","4","2","6","4","5","4","1","6","1","6","1","4","4","5","6","6","2","3","2","2","3","2","4","3","2","6","4","7","6","3","4","2","5","2","7","3","6","783652100818341890","张","269","Male","[""好我"",""坏他"",""好他"",""坏我""]","[""强我"",""弱他"",""强他"",""弱我""]","","","","","","","","","","","","","","","","","SRET_math","math_instructions","Thu Jan 11 2024 14:23:28 GMT+0800 (中国标准时间)","","","","","","","","","","","","","","","","","","","",""
"1981","","7","psychophysics","103","329790","0.0-7.0-5.0-0.0","6","4","5","6","5","3","2","4","4","4","4","0","-2","0","-1","1","1","0","1","4","5","4","4","4","3","4","3","5","4","4","6","7","7","4","3","5","6","7","5","5","5","2","4","2","6","4","5","4","1","6","1","6","1","4","4","5","6","6","2","3","2","2","3","2","4","3","2","6","4","7","6","3","4","2","5","2","7","3","6","783652100818341890","张","269","Male","[""好我"",""坏他"",""好他"",""坏我""]","[""强我"",""弱他"",""强他"",""弱我""]","","","","","","","","7","","","","","","","","","SRET","SRET_math_calculate","","key","7","16.80647058823555","640","356","","","","","5+2= ?","7","1","","","","","","","",""
"2172","","9","psychophysics","104","331963","0.0-7.0-5.0-0.1","6","4","5","6","5","3","2","4","4","4","4","0","-2","0","-1","1","1","0","1","4","5","4","4","4","3","4","3","5","4","4","6","7","7","4","3","5","6","7","5","5","5","2","4","2","6","4","5","4","1","6","1","6","1","4","4","5","6","6","2","3","2","2","3","2","4","3","2","6","4","7","6","3","4","2","5","2","7","3","6","783652100818341890","张","269","Male","[""好我"",""坏他"",""好他"",""坏我""]","[""强我"",""弱他"",""强他"",""弱我""]","","","","","","","","9","","","","","","","","","SRET","SRET_math_calculate","","key","9","16.66695348837218","640","356","","","","","1*9= ?","9","1","","","","","","","",""
"1903","","8","psychophysics","105","333867","0.0-7.0-5.0-0.2","6","4","5","6","5","3","2","4","4","4","4","0","-2","0","-1","1","1","0","1","4","5","4","4","4","3","4","3","5","4","4","6","7","7","4","3","5","6","7","5","5","5","2","4","2","6","4","5","4","1","6","1","6","1","4","4","5","6","6","2","3","2","2","3","2","4","3","2","6","4","7","6","3","4","2","5","2","7","3","6","783652100818341890","张","269","Male","[""好我"",""坏他"",""好他"",""坏我""]","[""强我"",""弱他"",""强他"",""弱我""]","","","","","","","","8","","","","","","","","","SRET","SRET_math_calculate","","key","8","16.66735398230108","640","356","","","","","2+6= ?","8","1","","","","","","","",""
"2925","","8","psychophysics","106","336794","0.0-7.0-5.0-0.3","6","4","5","6","5","3","2","4","4","4","4","0","-2","0","-1","1","1","0","1","4","5","4","4","4","3","4","3","5","4","4","6","7","7","4","3","5","6","7","5","5","5","2","4","2","6","4","5","4","1","6","1","6","1","4","4","5","6","6","2","3","2","2","3","2","4","3","2","6","4","7","6","3","4","2","5","2","7","3","6","783652100818341890","张","269","Male","[""好我"",""坏他"",""好他"",""坏我""]","[""强我"",""弱他"",""强他"",""弱我""]","","","","","","","","8","","","","","","","","","SRET","SRET_math_calculate","","key","8","16.667302857142808","640","356","","","","","11-3= ?","8","1","","","","","","","",""
"1843","","8","psychophysics","107","338638","0.0-7.0-5.0-0.4","6","4","5","6","5","3","2","4","4","4","4","0","-2","0","-1","1","1","0","1","4","5","4","4","4","3","4","3","5","4","4","6","7","7","4","3","5","6","7","5","5","5","2","4","2","6","4","5","4","1","6","1","6","1","4","4","5","6","6","2","3","2","2","3","2","4","3","2","6","4","7","6","3","4","2","5","2","7","3","6","783652100818341890","张","269","Male","[""好我"",""坏他"",""好他"",""坏我""]","[""强我"",""弱他"",""强他"",""弱我""]","","","","","","","","8","","","","","","","","","SRET","SRET_math_calculate","","key","8","16.66668181818201","640","356","","","","","6+2= ?","8","1","","","","","","","",""
"2032","","2","psychophysics","108","340673","0.0-7.0-5.0-0.5","6","4","5","6","5","3","2","4","4","4","4","0","-2","0","-1","1","1","0","1","4","5","4","4","4","3","4","3","5","4","4","6","7","7","4","3","5","6","7","5","5","5","2","4","2","6","4","5","4","1","6","1","6","1","4","4","5","6","6","2","3","2","2","3","2","4","3","2","6","4","7","6","3","4","2","5","2","7","3","6","783652100818341890","张","269","Male","[""好我"",""坏他"",""好他"",""坏我""]","[""强我"",""弱他"",""强他"",""弱我""]","","","","","","","","2","","","","","","","","","SRET","SRET_math_calculate","","key","2","16.664644628098863","640","356","","","","","1+1= ?","2","1","","","","","","","",""
"2025","","9","psychophysics","109","342699","0.0-7.0-5.0-0.6","6","4","5","6","5","3","2","4","4","4","4","0","-2","0","-1","1","1","0","1","4","5","4","4","4","3","4","3","5","4","4","6","7","7","4","3","5","6","7","5","5","5","2","4","2","6","4","5","4","1","6","1","6","1","4","4","5","6","6","2","3","2","2","3","2","4","3","2","6","4","7","6","3","4","2","5","2","7","3","6","783652100818341890","张","269","Male","[""好我"",""坏他"",""好他"",""坏我""]","[""强我"",""弱他"",""强他"",""弱我""]","","","","","","","","9","","","","","","","","","SRET","SRET_math_calculate","","key","9","16.666066666666786","640","356","","","","","1+8= ?","9","1","","","","","","","",""
"2292","","0","psychophysics","110","344993","0.0-7.0-5.0-0.7","6","4","5","6","5","3","2","4","4","4","4","0","-2","0","-1","1","1","0","1","4","5","4","4","4","3","4","3","5","4","4","6","7","7","4","3","5","6","7","5","5","5","2","4","2","6","4","5","4","1","6","1","6","1","4","4","5","6","6","2","3","2","2","3","2","4","3","2","6","4","7","6","3","4","2","5","2","7","3","6","783652100818341890","张","269","Male","[""好我"",""坏他"",""好他"",""坏我""]","[""强我"",""弱他"",""强他"",""弱我""]","","","","","","","","0","","","","","","","","","SRET","SRET_math_calculate","","key","0","16.66776642335764","640","356","","","","","7*0= ?","0","1","","","","","","","",""
"2136","","5","psychophysics","111","347130","0.0-7.0-5.0-0.8","6","4","5","6","5","3","2","4","4","4","4","0","-2","0","-1","1","1","0","1","4","5","4","4","4","3","4","3","5","4","4","6","7","7","4","3","5","6","7","5","5","5","2","4","2","6","4","5","4","1","6","1","6","1","4","4","5","6","6","2","3","2","2","3","2","4","3","2","6","4","7","6","3","4","2","5","2","7","3","6","783652100818341890","张","269","Male","[""好我"",""坏他"",""好他"",""坏我""]","[""强我"",""弱他"",""强他"",""弱我""]","","","","","","","","5","","","","","","","","","SRET","SRET_math_calculate","","key","5","16.66825984251973","640","356","","","","","15-10= ?","5","1","","","","","","","",""
"2134","","3","psychophysics","112","349266","0.0-7.0-5.0-0.9","6","4","5","6","5","3","2","4","4","4","4","0","-2","0","-1","1","1","0","1","4","5","4","4","4","3","4","3","5","4","4","6","7","7","4","3","5","6","7","5","5","5","2","4","2","6","4","5","4","1","6","1","6","1","4","4","5","6","6","2","3","2","2","3","2","4","3","2","6","4","7","6","3","4","2","5","2","7","3","6","783652100818341890","张","269","Male","[""好我"",""坏他"",""好他"",""坏我""]","[""强我"",""弱他"",""强他"",""弱我""]","","","","","","","","3","","","","","","","","","SRET","SRET_math_calculate","","key","3","16.66843307086617","640","356","","","","","3*1= ?","3","1","","","","","","","",""
"2598","","2","psychophysics","113","351865","0.0-7.0-5.0-0.10","6","4","5","6","5","3","2","4","4","4","4","0","-2","0","-1","1","1","0","1","4","5","4","4","4","3","4","3","5","4","4","6","7","7","4","3","5","6","7","5","5","5","2","4","2","6","4","5","4","1","6","1","6","1","4","4","5","6","6","2","3","2","2","3","2","4","3","2","6","4","7","6","3","4","2","5","2","7","3","6","783652100818341890","张","269","Male","[""好我"",""坏他"",""好他"",""坏我""]","[""强我"",""弱他"",""强他"",""弱我""]","","","","","","","","2","","","","","","","","","SRET","SRET_math_calculate","","key","2","16.667851612903178","640","356","","","","","8/4= ?","2","1","","","","","","","",""
"2209","","0","psychophysics","114","354075","0.0-7.0-5.0-0.11","6","4","5","6","5","3","2","4","4","4","4","0","-2","0","-1","1","1","0","1","4","5","4","4","4","3","4","3","5","4","4","6","7","7","4","3","5","6","7","5","5","5","2","4","2","6","4","5","4","1","6","1","6","1","4","4","5","6","6","2","3","2","2","3","2","4","3","2","6","4","7","6","3","4","2","5","2","7","3","6","783652100818341890","张","269","Male","[""好我"",""坏他"",""好他"",""坏我""]","[""强我"",""弱他"",""强他"",""弱我""]","","","","","","","","0","","","","","","","","","SRET","SRET_math_calculate","","key","0","16.66823484848481","640","356","","","","","1-1= ?","0","1","","","","","","","",""
"2469","","9","psychophysics","115","356546","0.0-7.0-5.0-0.12","6","4","5","6","5","3","2","4","4","4","4","0","-2","0","-1","1","1","0","1","4","5","4","4","4","3","4","3","5","4","4","6","7","7","4","3","5","6","7","5","5","5","2","4","2","6","4","5","4","1","6","1","6","1","4","4","5","6","6","2","3","2","2","3","2","4","3","2","6","4","7","6","3","4","2","5","2","7","3","6","783652100818341890","张","269","Male","[""好我"",""坏他"",""好他"",""坏我""]","[""强我"",""弱他"",""强他"",""弱我""]","","","","","","","","9","","","","","","","","","SRET","SRET_math_calculate","","key","9","16.666972789115537","640","356","","","","","18/2= ?","9","1","","","","","","","",""
"1915","","0","psychophysics","116","358462","0.0-7.0-5.0-0.13","6","4","5","6","5","3","2","4","4","4","4","0","-2","0","-1","1","1","0","1","4","5","4","4","4","3","4","3","5","4","4","6","7","7","4","3","5","6","7","5","5","5","2","4","2","6","4","5","4","1","6","1","6","1","4","4","5","6","6","2","3","2","2","3","2","4","3","2","6","4","7","6","3","4","2","5","2","7","3","6","783652100818341890","张","269","Male","[""好我"",""坏他"",""好他"",""坏我""]","[""强我"",""弱他"",""强他"",""弱我""]","","","","","","","","0","","","","","","","","","SRET","SRET_math_calculate","","key","0","16.667675438596408","640","356","","","","","9-9= ?","0","1","","","","","","","",""
"1921","","6","psychophysics","117","360385","0.0-7.0-5.0-0.14","6","4","5","6","5","3","2","4","4","4","4","0","-2","0","-1","1","1","0","1","4","5","4","4","4","3","4","3","5","4","4","6","7","7","4","3","5","6","7","5","5","5","2","4","2","6","4","5","4","1","6","1","6","1","4","4","5","6","6","2","3","2","2","3","2","4","3","2","6","4","7","6","3","4","2","5","2","7","3","6","783652100818341890","张","269","Male","[""好我"",""坏他"",""好他"",""坏我""]","[""强我"",""弱他"",""强他"",""弱我""]","","","","","","","","6","","","","","","","","","SRET","SRET_math_calculate","","key","6","16.6665964912278","640","356","","","","","5+1= ?","6","1","","","","","","","",""
"2192","","2","psychophysics","118","362579","0.0-7.0-5.0-0.15","6","4","5","6","5","3","2","4","4","4","4","0","-2","0","-1","1","1","0","1","4","5","4","4","4","3","4","3","5","4","4","6","7","7","4","3","5","6","7","5","5","5","2","4","2","6","4","5","4","1","6","1","6","1","4","4","5","6","6","2","3","2","2","3","2","4","3","2","6","4","7","6","3","4","2","5","2","7","3","6","783652100818341890","张","269","Male","[""好我"",""坏他"",""好他"",""坏我""]","[""强我"",""弱他"",""强他"",""弱我""]","","","","","","","","2","","","","","","","","","SRET","SRET_math_calculate","","key","2","16.668549618320736","640","356","","","","","12/6= ?","2","1","","","","","","","",""
"2084","","8","psychophysics","119","364664","0.0-7.0-5.0-0.16","6","4","5","6","5","3","2","4","4","4","4","0","-2","0","-1","1","1","0","1","4","5","4","4","4","3","4","3","5","4","4","6","7","7","4","3","5","6","7","5","5","5","2","4","2","6","4","5","4","1","6","1","6","1","4","4","5","6","6","2","3","2","2","3","2","4","3","2","6","4","7","6","3","4","2","5","2","7","3","6","783652100818341890","张","269","Male","[""好我"",""坏他"",""好他"",""坏我""]","[""强我"",""弱他"",""强他"",""弱我""]","","","","","","","","8","","","","","","","","","SRET","SRET_math_calculate","","key","8","16.667048387096596","640","356","","","","","5+3= ?","8","1","","","","","","","",""
"2628","","3","psychophysics","120","367294","0.0-7.0-5.0-0.17","6","4","5","6","5","3","2","4","4","4","4","0","-2","0","-1","1","1","0","1","4","5","4","4","4","3","4","3","5","4","4","6","7","7","4","3","5","6","7","5","5","5","2","4","2","6","4","5","4","1","6","1","6","1","4","4","5","6","6","2","3","2","2","3","2","4","3","2","6","4","7","6","3","4","2","5","2","7","3","6","783652100818341890","张","269","Male","[""好我"",""坏他"",""好他"",""坏我""]","[""强我"",""弱他"",""强他"",""弱我""]","","","","","","","","3","","","","","","","","","SRET","SRET_math_calculate","","key","3","16.66863057324863","640","356","","","","","11-8= ?","3","1","","","","","","","",""
"1904","","6","psychophysics","121","369200","0.0-7.0-5.0-0.18","6","4","5","6","5","3","2","4","4","4","4","0","-2","0","-1","1","1","0","1","4","5","4","4","4","3","4","3","5","4","4","6","7","7","4","3","5","6","7","5","5","5","2","4","2","6","4","5","4","1","6","1","6","1","4","4","5","6","6","2","3","2","2","3","2","4","3","2","6","4","7","6","3","4","2","5","2","7","3","6","783652100818341890","张","269","Male","[""好我"",""坏他"",""好他"",""坏我""]","[""强我"",""弱他"",""强他"",""弱我""]","","","","","","","","6","","","","","","","","","SRET","SRET_math_calculate","","key","6","16.66691150442456","640","356","","","","","4+2= ?","6","1","","","","","","","",""
"1903","","8","psychophysics","122","371104","0.0-7.0-5.0-0.19","6","4","5","6","5","3","2","4","4","4","4","0","-2","0","-1","1","1","0","1","4","5","4","4","4","3","4","3","5","4","4","6","7","7","4","3","5","6","7","5","5","5","2","4","2","6","4","5","4","1","6","1","6","1","4","4","5","6","6","2","3","2","2","3","2","4","3","2","6","4","7","6","3","4","2","5","2","7","3","6","783652100818341890","张","269","Male","[""好我"",""坏他"",""好他"",""坏我""]","[""强我"",""弱他"",""强他"",""弱我""]","","","","","","","","8","","","","","","","","","SRET","SRET_math_calculate","","key","8","16.666789473683917","640","356","","","","","4+4= ?","8","1","","","","","","","",""
"1859","","0","psychophysics","123","372965","0.0-7.0-5.0-0.20","6","4","5","6","5","3","2","4","4","4","4","0","-2","0","-1","1","1","0","1","4","5","4","4","4","3","4","3","5","4","4","6","7","7","4","3","5","6","7","5","5","5","2","4","2","6","4","5","4","1","6","1","6","1","4","4","5","6","6","2","3","2","2","3","2","4","3","2","6","4","7","6","3","4","2","5","2","7","3","6","783652100818341890","张","269","Male","[""好我"",""坏他"",""好他"",""坏我""]","[""强我"",""弱他"",""强他"",""弱我""]","","","","","","","","0","","","","","","","","","SRET","SRET_math_calculate","","key","0","16.663227272727422","640","356","","","","","5*0= ?","0","1","","","","","","","",""
"2022","","0","psychophysics","124","374989","0.0-7.0-5.0-0.21","6","4","5","6","5","3","2","4","4","4","4","0","-2","0","-1","1","1","0","1","4","5","4","4","4","3","4","3","5","4","4","6","7","7","4","3","5","6","7","5","5","5","2","4","2","6","4","5","4","1","6","1","6","1","4","4","5","6","6","2","3","2","2","3","2","4","3","2","6","4","7","6","3","4","2","5","2","7","3","6","783652100818341890","张","269","Male","[""好我"",""坏他"",""好他"",""坏我""]","[""强我"",""弱他"",""强他"",""弱我""]","","","","","","","","0","","","","","","","","","SRET","SRET_math_calculate","","key","0","16.668966942148817","640","356","","","","","32-32= ?","0","1","","","","","","","",""
"2395","","5","psychophysics","125","377387","0.0-7.0-5.0-0.22","6","4","5","6","5","3","2","4","4","4","4","0","-2","0","-1","1","1","0","1","4","5","4","4","4","3","4","3","5","4","4","6","7","7","4","3","5","6","7","5","5","5","2","4","2","6","4","5","4","1","6","1","6","1","4","4","5","6","6","2","3","2","2","3","2","4","3","2","6","4","7","6","3","4","2","5","2","7","3","6","783652100818341890","张","269","Male","[""好我"",""坏他"",""好他"",""坏我""]","[""强我"",""弱他"",""强他"",""弱我""]","","","","","","","","5","","","","","","","","","SRET","SRET_math_calculate","","key","5","16.665169014084288","640","356","","","","","8-3= ? ","5","1","","","","","","","",""
"1954","","6","psychophysics","126","379345","0.0-7.0-5.0-0.23","6","4","5","6","5","3","2","4","4","4","4","0","-2","0","-1","1","1","0","1","4","5","4","4","4","3","4","3","5","4","4","6","7","7","4","3","5","6","7","5","5","5","2","4","2","6","4","5","4","1","6","1","6","1","4","4","5","6","6","2","3","2","2","3","2","4","3","2","6","4","7","6","3","4","2","5","2","7","3","6","783652100818341890","张","269","Male","[""好我"",""坏他"",""好他"",""坏我""]","[""强我"",""弱他"",""强他"",""弱我""]","","","","","","","","6","","","","","","","","","SRET","SRET_math_calculate","","key","6","16.669512820512686","640","356","","","","","2+4= ?","6","1","","","","","","","",""
"1817","","9","psychophysics","127","381163","0.0-7.0-5.0-0.24","6","4","5","6","5","3","2","4","4","4","4","0","-2","0","-1","1","1","0","1","4","5","4","4","4","3","4","3","5","4","4","6","7","7","4","3","5","6","7","5","5","5","2","4","2","6","4","5","4","1","6","1","6","1","4","4","5","6","6","2","3","2","2","3","2","4","3","2","6","4","7","6","3","4","2","5","2","7","3","6","783652100818341890","张","269","Male","[""好我"",""坏他"",""好他"",""坏我""]","[""强我"",""弱他"",""强他"",""弱我""]","","","","","","","","9","","","","","","","","","SRET","SRET_math_calculate","","key","9","16.66724074074052","640","356","","","","","4+5= ?","9","1","","","","","","","",""
"2215","","2","psychophysics","128","383379","0.0-7.0-5.0-0.25","6","4","5","6","5","3","2","4","4","4","4","0","-2","0","-1","1","1","0","1","4","5","4","4","4","3","4","3","5","4","4","6","7","7","4","3","5","6","7","5","5","5","2","4","2","6","4","5","4","1","6","1","6","1","4","4","5","6","6","2","3","2","2","3","2","4","3","2","6","4","7","6","3","4","2","5","2","7","3","6","783652100818341890","张","269","Male","[""好我"",""坏他"",""好他"",""坏我""]","[""强我"",""弱他"",""强他"",""弱我""]","","","","","","","","2","","","","","","","","","SRET","SRET_math_calculate","","key","2","16.66867424242435","640","356","","","","","18/9= ?","2","1","","","","","","","",""
"3971","","5","psychophysics","129","387352","0.0-7.0-5.0-0.26","6","4","5","6","5","3","2","4","4","4","4","0","-2","0","-1","1","1","0","1","4","5","4","4","4","3","4","3","5","4","4","6","7","7","4","3","5","6","7","5","5","5","2","4","2","6","4","5","4","1","6","1","6","1","4","4","5","6","6","2","3","2","2","3","2","4","3","2","6","4","7","6","3","4","2","5","2","7","3","6","783652100818341890","张","269","Male","[""好我"",""坏他"",""好他"",""坏我""]","[""强我"",""弱他"",""强他"",""弱我""]","","","","","","","","5","","","","","","","","","SRET","SRET_math_calculate","","key","5","16.667075949367128","640","356","","","","","12-7= ?","5","1","","","","","","","",""
"2936","","9","psychophysics","130","390294","0.0-7.0-5.0-0.27","6","4","5","6","5","3","2","4","4","4","4","0","-2","0","-1","1","1","0","1","4","5","4","4","4","3","4","3","5","4","4","6","7","7","4","3","5","6","7","5","5","5","2","4","2","6","4","5","4","1","6","1","6","1","4","4","5","6","6","2","3","2","2","3","2","4","3","2","6","4","7","6","3","4","2","5","2","7","3","6","783652100818341890","张","269","Male","[""好我"",""坏他"",""好他"",""坏我""]","[""强我"",""弱他"",""强他"",""弱我""]","","","","","","","","9","","","","","","","","","SRET","SRET_math_calculate","","key","9","16.6670681818184","640","356","","","","","32-23= ?","9","1","","","","","","","",""
"2230","","8","psychophysics","131","392525","0.0-7.0-5.0-0.28","6","4","5","6","5","3","2","4","4","4","4","0","-2","0","-1","1","1","0","1","4","5","4","4","4","3","4","3","5","4","4","6","7","7","4","3","5","6","7","5","5","5","2","4","2","6","4","5","4","1","6","1","6","1","4","4","5","6","6","2","3","2","2","3","2","4","3","2","6","4","7","6","3","4","2","5","2","7","3","6","783652100818341890","张","269","Male","[""好我"",""坏他"",""好他"",""坏我""]","[""强我"",""弱他"",""强他"",""弱我""]","","","","","","","","8","","","","","","","","","SRET","SRET_math_calculate","","key","8","16.666428571428643","640","356","","","","","1+7= ?","8","1","","","","","","","",""
"2369","","0","psychophysics","132","394896","0.0-7.0-5.0-0.29","6","4","5","6","5","3","2","4","4","4","4","0","-2","0","-1","1","1","0","1","4","5","4","4","4","3","4","3","5","4","4","6","7","7","4","3","5","6","7","5","5","5","2","4","2","6","4","5","4","1","6","1","6","1","4","4","5","6","6","2","3","2","2","3","2","4","3","2","6","4","7","6","3","4","2","5","2","7","3","6","783652100818341890","张","269","Male","[""好我"",""坏他"",""好他"",""坏我""]","[""强我"",""弱他"",""强他"",""弱我""]","","","","","","","","0","","","","","","","","","SRET","SRET_math_calculate","","key","0","16.66614893616998","640","356","","","","","30-29= ?","1","0","","","","","","","",""
"2015","","7","psychophysics","133","396912","0.0-7.0-5.0-0.30","6","4","5","6","5","3","2","4","4","4","4","0","-2","0","-1","1","1","0","1","4","5","4","4","4","3","4","3","5","4","4","6","7","7","4","3","5","6","7","5","5","5","2","4","2","6","4","5","4","1","6","1","6","1","4","4","5","6","6","2","3","2","2","3","2","4","3","2","6","4","7","6","3","4","2","5","2","7","3","6","783652100818341890","张","269","Male","[""好我"",""坏他"",""好他"",""坏我""]","[""强我"",""弱他"",""强他"",""弱我""]","","","","","","","","7","","","","","","","","","SRET","SRET_math_calculate","","key","7","16.666666666666668","640","356","","","","","3+4= ?","7","1","","","","","","","",""
"2325","","7","psychophysics","134","399238","0.0-7.0-5.0-0.31","6","4","5","6","5","3","2","4","4","4","4","0","-2","0","-1","1","1","0","1","4","5","4","4","4","3","4","3","5","4","4","6","7","7","4","3","5","6","7","5","5","5","2","4","2","6","4","5","4","1","6","1","6","1","4","4","5","6","6","2","3","2","2","3","2","4","3","2","6","4","7","6","3","4","2","5","2","7","3","6","783652100818341890","张","269","Male","[""好我"",""坏他"",""好他"",""坏我""]","[""强我"",""弱他"",""强他"",""弱我""]","","","","","","","","7","","","","","","","","","SRET","SRET_math_calculate","","key","7","16.668705035970888","640","356","","","","","12-5= ?","7","1","","","","","","","",""
"1909","","9","psychophysics","135","401151","0.0-7.0-5.0-0.32","6","4","5","6","5","3","2","4","4","4","4","0","-2","0","-1","1","1","0","1","4","5","4","4","4","3","4","3","5","4","4","6","7","7","4","3","5","6","7","5","5","5","2","4","2","6","4","5","4","1","6","1","6","1","4","4","5","6","6","2","3","2","2","3","2","4","3","2","6","4","7","6","3","4","2","5","2","7","3","6","783652100818341890","张","269","Male","[""好我"",""坏他"",""好他"",""坏我""]","[""强我"",""弱他"",""强他"",""弱我""]","","","","","","","","9","","","","","","","","","SRET","SRET_math_calculate","","key","9","16.6669469026553","640","356","","","","","5+4= ?","9","1","","","","","","","",""
"2080","","5","psychophysics","136","403235","0.0-7.0-5.0-0.33","6","4","5","6","5","3","2","4","4","4","4","0","-2","0","-1","1","1","0","1","4","5","4","4","4","3","4","3","5","4","4","6","7","7","4","3","5","6","7","5","5","5","2","4","2","6","4","5","4","1","6","1","6","1","4","4","5","6","6","2","3","2","2","3","2","4","3","2","6","4","7","6","3","4","2","5","2","7","3","6","783652100818341890","张","269","Male","[""好我"",""坏他"",""好他"",""坏我""]","[""强我"",""弱他"",""强他"",""弱我""]","","","","","","","","5","","","","","","","","","SRET","SRET_math_calculate","","key","5","16.665491935483935","640","356","","","","","2+3= ?","5","1","","","","","","","",""
"1846","","9","psychophysics","137","405086","0.0-7.0-5.0-0.34","6","4","5","6","5","3","2","4","4","4","4","0","-2","0","-1","1","1","0","1","4","5","4","4","4","3","4","3","5","4","4","6","7","7","4","3","5","6","7","5","5","5","2","4","2","6","4","5","4","1","6","1","6","1","4","4","5","6","6","2","3","2","2","3","2","4","3","2","6","4","7","6","3","4","2","5","2","7","3","6","783652100818341890","张","269","Male","[""好我"",""坏他"",""好他"",""坏我""]","[""强我"",""弱他"",""强他"",""弱我""]","","","","","","","","9","","","","","","","","","SRET","SRET_math_calculate","","key","9","16.667172727272423","640","356","","","","","2+7= ?","9","1","","","","","","","",""
"2012","","9","psychophysics","138","407103","0.0-7.0-5.0-0.35","6","4","5","6","5","3","2","4","4","4","4","0","-2","0","-1","1","1","0","1","4","5","4","4","4","3","4","3","5","4","4","6","7","7","4","3","5","6","7","5","5","5","2","4","2","6","4","5","4","1","6","1","6","1","4","4","5","6","6","2","3","2","2","3","2","4","3","2","6","4","7","6","3","4","2","5","2","7","3","6","783652100818341890","张","269","Male","[""好我"",""坏他"",""好他"",""坏我""]","[""强我"",""弱他"",""强他"",""弱我""]","","","","","","","","9","","","","","","","","","SRET","SRET_math_calculate","","key","9","16.66738842975171","640","356","","","","","7+2= ?","9","1","","","","","","","",""
"1941","","7","psychophysics","139","409047","0.0-7.0-5.0-0.36","6","4","5","6","5","3","2","4","4","4","4","0","-2","0","-1","1","1","0","1","4","5","4","4","4","3","4","3","5","4","4","6","7","7","4","3","5","6","7","5","5","5","2","4","2","6","4","5","4","1","6","1","6","1","4","4","5","6","6","2","3","2","2","3","2","4","3","2","6","4","7","6","3","4","2","5","2","7","3","6","783652100818341890","张","269","Male","[""好我"",""坏他"",""好他"",""坏我""]","[""强我"",""弱他"",""强他"",""弱我""]","","","","","","","","7","","","","","","","","","SRET","SRET_math_calculate","","key","7","16.668643478261124","640","356","","","","","6+1= ?","7","1","","","","","","","",""
"2127","","4","psychophysics","140","411176","0.0-7.0-5.0-0.37","6","4","5","6","5","3","2","4","4","4","4","0","-2","0","-1","1","1","0","1","4","5","4","4","4","3","4","3","5","4","4","6","7","7","4","3","5","6","7","5","5","5","2","4","2","6","4","5","4","1","6","1","6","1","4","4","5","6","6","2","3","2","2","3","2","4","3","2","6","4","7","6","3","4","2","5","2","7","3","6","783652100818341890","张","269","Male","[""好我"",""坏他"",""好他"",""坏我""]","[""强我"",""弱他"",""强他"",""弱我""]","","","","","","","","4","","","","","","","","","SRET","SRET_math_calculate","","key","4","16.669125984251906","640","356","","","","","9-5= ?","4","1","","","","","","","",""
"2021","","0","psychophysics","141","413199","0.0-7.0-5.0-0.38","6","4","5","6","5","3","2","4","4","4","4","0","-2","0","-1","1","1","0","1","4","5","4","4","4","3","4","3","5","4","4","6","7","7","4","3","5","6","7","5","5","5","2","4","2","6","4","5","4","1","6","1","6","1","4","4","5","6","6","2","3","2","2","3","2","4","3","2","6","4","7","6","3","4","2","5","2","7","3","6","783652100818341890","张","269","Male","[""好我"",""坏他"",""好他"",""坏我""]","[""强我"",""弱他"",""强他"",""弱我""]","","","","","","","","0","","","","","","","","","SRET","SRET_math_calculate","","key","0","16.667308333333253","640","356","","","","","22-22= ?","0","1","","","","","","","",""
"1875","","7","psychophysics","142","415075","0.0-7.0-5.0-0.39","6","4","5","6","5","3","2","4","4","4","4","0","-2","0","-1","1","1","0","1","4","5","4","4","4","3","4","3","5","4","4","6","7","7","4","3","5","6","7","5","5","5","2","4","2","6","4","5","4","1","6","1","6","1","4","4","5","6","6","2","3","2","2","3","2","4","3","2","6","4","7","6","3","4","2","5","2","7","3","6","783652100818341890","张","269","Male","[""好我"",""坏他"",""好他"",""坏我""]","[""强我"",""弱他"",""强他"",""弱我""]","","","","","","","","7","","","","","","","","","SRET","SRET_math_calculate","","key","7","16.666383928571513","640","356","","","","","4+3= ?","7","1","","","","","","","",""
