"rt","stimulus","response","trial_type","trial_index","time_elapsed","internal_node_id","swb_1","swb_2","swb_3","swb_4","swb_5","LOT_1","LOT_2","LOT_3","LOT_4","LOT_5","LOT_6","IPC_1","IPC_2","IPC_3","IPC_4","IPC_5","IPC_6","IPC_7","IPC_8","MorIden_1","MorIden_2","MorIden_3","MorIden_4","MorIden_5","MorIden_6","MorIden_7","MorIden_8","MorIden_9","MorIden_10","moralSeImag_1","moralSeImag_2","moralSeImag_3","moralSeImag_4","moralSeImag_5","moralSeImag_6","moralSeImag_7","moralSeImag_8","moralSeImag_9","sde_1","sde_2","sde_3","sde_4","sde_5","sde_6","sde_7","sde_8","sde_9","sde_10","trap2","sde_11","sde_12","sde_13","sde_14","sde_15","sde_16","sde_17","sde_18","sde_19","sde_20","IM_1","IM_2","IM_3","IM_4","IM_5","IM_6","IM_7","IM_8","IM_9","IM_10","IM_11","IM_12","IM_13","IM_14","IM_15","IM_16","IM_17","IM_18","IM_19","IM_20","subj_idx","friend_name","ParticipantID","Sex","Word","Word2","value","success","timeout","failed_images","failed_audio","failed_video","user_agent","responses","item_order","radio_event_ids","radio_event_times","key_event_times","mouse_event_times","straightlining","zigzagging","honeypot","view_history","response_type","key_press","avg_frame_time","center_x","center_y","correct_response","correct","identity","Image","word","condition","task_id","screen_id","time_stamp","person","valence","domain","math","status","duration","question_order","trap2_item"
"8957","
   <p><div style='color:white; font-size: 25px'>您好，欢迎参加本次实验。</div></p>
   <p><div style='color:white; font-size: 25px'>为充分保障您的权利，请确保您已经知晓并同意《参与实验同意书》以及《数据公开知情同意书》。</div></p>
   <p><div style='color:white; font-size: 25px'>如果您未见过上述内容，请咨询实验员。</div></p>
   <p style='color:white; font-size: 25px'>如果您选择继续实验，则表示您已经清楚两份知情同意书的内容并同意。</p>
   <p><div style = ""color: pink;font-size:30px;"">请确保您记得day0的实验编号，您将在本次实验输入该编号，若您忘记，请咨询实验员后作答。</div></p>
   <p><div style = ""color:lightblue;font-size:25px;"">请您尽可能认真地作答，我们将依据您在各问卷和按键任务中的作答质量发放报酬。</div></p>
   <p> <div style = ""color: green""><按空格键至下页></div> </p>
   "," ","html-keyboard-response","0","8958","0.0-0.0","6","6","6","6","4","3","2","4","4","3","4","1","0","1","0","-1","1","1","1","4","5","5","5","4","3","4","4","5","4","8","6","7","9","5","6","9","5","6","6","6","7","7","6","3","7","1","4","5","1","7","4","6","7","5","7","5","4","7","6","2","7","2","2","1","6","7","7","7","7","7","7","2","4","2","7","7","7","3","7","755482622574202882","陈","291","Male","[""好我"",""好他"",""坏他"",""坏我""]","[""强我"",""强他"",""弱他"",""弱我""]","","","","","","","","","","","","","","","","","","","","","","","","","","","","","","","","","","","","","","",""
"","","","call-function","1","8959","0.0-1.0-0.0","6","6","6","6","4","3","2","4","4","3","4","1","0","1","0","-1","1","1","1","4","5","5","5","4","3","4","4","5","4","8","6","7","9","5","6","9","5","6","6","6","7","7","6","3","7","1","4","5","1","7","4","6","7","5","7","5","4","7","6","2","7","2","2","1","6","7","7","7","7","7","7","2","4","2","7","7","7","3","7","755482622574202882","陈","291","Male","[""好我"",""好他"",""坏他"",""坏我""]","[""强我"",""强他"",""弱他"",""弱我""]","","","","","","","","","","","","","","","","","","","","","","","","","","","","","","","","","","","","","","",""
"23851","","[{""name"":""Sex"",""value"":""0""},{""name"":""friend_name"",""value"":""陈""},{""name"":""ParticipantID"",""value"":""291""}]","survey-html-form","2","32810","0.0-1.0-1.0","6","6","6","6","4","3","2","4","4","3","4","1","0","1","0","-1","1","1","1","4","5","5","5","4","3","4","4","5","4","8","6","7","9","5","6","9","5","6","6","6","7","7","6","3","7","1","4","5","1","7","4","6","7","5","7","5","4","7","6","2","7","2","2","1","6","7","7","7","7","7","7","2","4","2","7","7","7","3","7","755482622574202882","陈","291","Male","[""好我"",""好他"",""坏他"",""坏我""]","[""强我"",""强他"",""弱他"",""弱我""]","","","","","","","","","","","","","","","","","","","","","","","","","","","","","","","","","","","","","","",""
"","","","preload","3","33352","0.0-2.0","6","6","6","6","4","3","2","4","4","3","4","1","0","1","0","-1","1","1","1","4","5","5","5","4","3","4","4","5","4","8","6","7","9","5","6","9","5","6","6","6","7","7","6","3","7","1","4","5","1","7","4","6","7","5","7","5","4","7","6","2","7","2","2","1","6","7","7","7","7","7","7","2","4","2","7","7","7","3","7","755482622574202882","陈","291","Male","[""好我"",""好他"",""坏他"",""坏我""]","[""强我"",""强他"",""弱他"",""弱我""]","","true","false","[]","[]","[]","","","","","","","","","","","","","","","","","","","","","","","","","","","","","","","","",""
"","","","fullscreen","4","36280","0.0-3.0","6","6","6","6","4","3","2","4","4","3","4","1","0","1","0","-1","1","1","1","4","5","5","5","4","3","4","4","5","4","8","6","7","9","5","6","9","5","6","6","6","7","7","6","3","7","1","4","5","1","7","4","6","7","5","7","5","4","7","6","2","7","2","2","1","6","7","7","7","7","7","7","2","4","2","7","7","7","3","7","755482622574202882","陈","291","Male","[""好我"",""好他"",""坏他"",""坏我""]","[""强我"",""强他"",""弱他"",""弱我""]","","true","","","","","{}","","","","","","","","","","","","","","","","","","","","","","","","","","","","","","","",""
"17409.19999998808","","{""Q01"":""6"",""Q02"":""6"",""Q03"":""6"",""Q04"":""6"",""Q05"":""4""}","survey-template","5","53691","0.0-4.0","6","6","6","6","4","3","2","4","4","3","4","1","0","1","0","-1","1","1","1","4","5","5","5","4","3","4","4","5","4","8","6","7","9","5","6","9","5","6","6","6","7","7","6","3","7","1","4","5","1","7","4","6","7","5","7","5","4","7","6","2","7","2","2","1","6","7","7","7","7","7","7","2","4","2","7","7","7","3","7","755482622574202882","陈","291","Male","[""好我"",""好他"",""坏他"",""坏我""]","[""强我"",""强他"",""弱他"",""弱我""]","","","","","","","","{""Q01"":""6"",""Q02"":""6"",""Q03"":""6"",""Q04"":""6"",""Q05"":""4""}","[0,1,2,3,4]","[""Q01"",""Q02"",""Q03"",""Q03"",""Q04"",""Q05"",""Q05""]","[2608.5,6768.400000035763,8032.400000035763,9416.5,10384.400000035763,13017.5,16544.400000035763]","[]","[2608.5,6768.400000035763,8032.400000035763,9416.5,10384.400000035763,13017.5,15528.400000035763,16544.400000035763,17408.400000035763]","0.8","0","0","","","","","","","","","","","","","","","","","","","","","","",""
"32068.899999976158","","{""Q01"":""3"",""Q02"":""2"",""Q03"":""4"",""Q04"":""4"",""Q05"":""3"",""Q06"":""4""}","survey-template","6","85762","0.0-5.0","6","6","6","6","4","3","2","4","4","3","4","1","0","1","0","-1","1","1","1","4","5","5","5","4","3","4","4","5","4","8","6","7","9","5","6","9","5","6","6","6","7","7","6","3","7","1","4","5","1","7","4","6","7","5","7","5","4","7","6","2","7","2","2","1","6","7","7","7","7","7","7","2","4","2","7","7","7","3","7","755482622574202882","陈","291","Male","[""好我"",""好他"",""坏他"",""坏我""]","[""强我"",""强他"",""弱他"",""弱我""]","","","","","","","","{""Q01"":""3"",""Q02"":""2"",""Q03"":""4"",""Q04"":""4"",""Q05"":""3"",""Q06"":""4""}","[0,1,2,3,4,5]","[""Q01"",""Q02"",""Q03"",""Q04"",""Q04"",""Q04"",""Q05"",""Q06""]","[3716.300000011921,8836.300000011921,12604.399999976158,16260.199999988079,17468.30000001192,21324.399999976158,24908.19999998808,28396.399999976158]","[]","[3716.300000011921,8836.300000011921,11661.5,12028.399999976158,12604.399999976158,16260.199999988079,17468.30000001192,21324.399999976158,24908.19999998808,28396.399999976158,32068.399999976158]","0.5","0.6","0","","","","","","","","","","","","","","","","","","","","","","",""
"28182.100000023842","","{""Q01"":""1"",""Q02"":""0"",""Q03"":""1"",""Q04"":""0"",""Q05"":""-1"",""Q06"":""1"",""Q07"":""1"",""Q08"":""1""}","survey-template","7","113947","0.0-6.0","6","6","6","6","4","3","2","4","4","3","4","1","0","1","0","-1","1","1","1","4","5","5","5","4","3","4","4","5","4","8","6","7","9","5","6","9","5","6","6","6","7","7","6","3","7","1","4","5","1","7","4","6","7","5","7","5","4","7","6","2","7","2","2","1","6","7","7","7","7","7","7","2","4","2","7","7","7","3","7","755482622574202882","陈","291","Male","[""好我"",""好他"",""坏他"",""坏我""]","[""强我"",""强他"",""弱他"",""弱我""]","","","","","","","","{""Q01"":""1"",""Q02"":""0"",""Q03"":""1"",""Q04"":""0"",""Q05"":""-1"",""Q06"":""1"",""Q07"":""1"",""Q08"":""1""}","[0,1,2,3,4,5,6,7]","[""Q01"",""Q02"",""Q03"",""Q04"",""Q04"",""Q05"",""Q06"",""Q07"",""Q08""]","[2685.100000023842,7501.200000047684,11493.900000035763,14205.400000035763,16389.30000001192,19453.80000001192,21381.100000023842,23565.900000035763,25197.30000001192]","[]","[2685.100000023842,6349.400000035763,7205.400000035763,7501.200000047684,11493.900000035763,14205.400000035763,15886.700000047684,16389.30000001192,18910.30000001192,19453.80000001192,21381.100000023842,23565.900000035763,25197.30000001192,28181.200000047684]","0.625","0.5714285714285714","0","","","","","","","","","","","","","","","","","","","","","","",""
"14165","","","instructions","8","128114","0.0-7.0","6","6","6","6","4","3","2","4","4","3","4","1","0","1","0","-1","1","1","1","4","5","5","5","4","3","4","4","5","4","8","6","7","9","5","6","9","5","6","6","6","7","7","6","3","7","1","4","5","1","7","4","6","7","5","7","5","4","7","6","2","7","2","2","1","6","7","7","7","7","7","7","2","4","2","7","7","7","3","7","755482622574202882","陈","291","Male","[""好我"",""好他"",""坏他"",""坏我""]","[""强我"",""强他"",""弱他"",""弱我""]","","","","","","","","","","","","","","","","","[{""page_index"":0,""viewing_time"":14165}]","","","","","","","","","","","","","","","","","","","","","",""
"86567","","","instructions","9","214682","0.0-8.0-0.0-0.0","6","6","6","6","4","3","2","4","4","3","4","1","0","1","0","-1","1","1","1","4","5","5","5","4","3","4","4","5","4","8","6","7","9","5","6","9","5","6","6","6","7","7","6","3","7","1","4","5","1","7","4","6","7","5","7","5","4","7","6","2","7","2","2","1","6","7","7","7","7","7","7","2","4","2","7","7","7","3","7","755482622574202882","陈","291","Male","[""好我"",""好他"",""坏他"",""坏我""]","[""强我"",""强他"",""弱他"",""弱我""]","","","","","","","","","","","","","","","","","[{""page_index"":0,""viewing_time"":9878},{""page_index"":1,""viewing_time"":72040},{""page_index"":2,""viewing_time"":2168},{""page_index"":3,""viewing_time"":2480}]","","","","","","","","","","","","","","","","","","","","","",""
"794","","j","psychophysics","10","216480","0.0-8.0-0.0-1.0-0.0-0.0","6","6","6","6","4","3","2","4","4","3","4","1","0","1","0","-1","1","1","1","4","5","5","5","4","3","4","4","5","4","8","6","7","9","5","6","9","5","6","6","6","7","7","6","3","7","1","4","5","1","7","4","6","7","5","7","5","4","7","6","2","7","2","2","1","6","7","7","7","7","7","7","2","4","2","7","7","7","3","7","755482622574202882","陈","291","Male","[""好我"",""好他"",""坏他"",""坏我""]","[""强我"",""强他"",""弱他"",""弱我""]","","","","","","","","match","","","","","","","","","","key","j","6.943968871595353","853.3333333333334","476","j","true","match","img/trapezoid.png","好我","好我","prac_ALT2_moral","practice_moral","","","","","","","","",""
"null","<span style='color:GreenYellow; font-size: 70px;'>正确! </span>","null","html-keyboard-response","11","216981","0.0-8.0-0.0-1.0-0.0-1.0","6","6","6","6","4","3","2","4","4","3","4","1","0","1","0","-1","1","1","1","4","5","5","5","4","3","4","4","5","4","8","6","7","9","5","6","9","5","6","6","6","7","7","6","3","7","1","4","5","1","7","4","6","7","5","7","5","4","7","6","2","7","2","2","1","6","7","7","7","7","7","7","2","4","2","7","7","7","3","7","755482622574202882","陈","291","Male","[""好我"",""好他"",""坏他"",""坏我""]","[""强我"",""强他"",""弱他"",""弱我""]","","","","","","","","","","","","","","","","","","","","","","","","","","","","","","feedback_test","","","","","","","","",""
"975","","j","psychophysics","12","218958","0.0-8.0-0.0-1.0-0.0-0.1","6","6","6","6","4","3","2","4","4","3","4","1","0","1","0","-1","1","1","1","4","5","5","5","4","3","4","4","5","4","8","6","7","9","5","6","9","5","6","6","6","7","7","6","3","7","1","4","5","1","7","4","6","7","5","7","5","4","7","6","2","7","2","2","1","6","7","7","7","7","7","7","2","4","2","7","7","7","3","7","755482622574202882","陈","291","Male","[""好我"",""好他"",""坏他"",""坏我""]","[""强我"",""强他"",""弱他"",""弱我""]","","","","","","","","match","","","","","","","","","","key","j","6.9443661971830375","853.3333333333334","476","j","true","match","img/ellipse.png","坏他","坏他","prac_ALT2_moral","practice_moral","","","","","","","","",""
"null","<span style='color:GreenYellow; font-size: 70px;'>正确! </span>","null","html-keyboard-response","13","219458","0.0-8.0-0.0-1.0-0.0-1.1","6","6","6","6","4","3","2","4","4","3","4","1","0","1","0","-1","1","1","1","4","5","5","5","4","3","4","4","5","4","8","6","7","9","5","6","9","5","6","6","6","7","7","6","3","7","1","4","5","1","7","4","6","7","5","7","5","4","7","6","2","7","2","2","1","6","7","7","7","7","7","7","2","4","2","7","7","7","3","7","755482622574202882","陈","291","Male","[""好我"",""好他"",""坏他"",""坏我""]","[""强我"",""强他"",""弱他"",""弱我""]","","","","","","","","","","","","","","","","","","","","","","","","","","","","","","feedback_test","","","","","","","","",""
"1059","","f","psychophysics","14","221519","0.0-8.0-0.0-1.0-0.0-0.2","6","6","6","6","4","3","2","4","4","3","4","1","0","1","0","-1","1","1","1","4","5","5","5","4","3","4","4","5","4","8","6","7","9","5","6","9","5","6","6","6","7","7","6","3","7","1","4","5","1","7","4","6","7","5","7","5","4","7","6","2","7","2","2","1","6","7","7","7","7","7","7","2","4","2","7","7","7","3","7","755482622574202882","陈","291","Male","[""好我"",""好他"",""坏他"",""坏我""]","[""强我"",""强他"",""弱他"",""弱我""]","","","","","","","","nonmatch","","","","","","","","","","key","f","6.944745762711904","853.3333333333334","476","f","true","nonmatch","img/hexagon.png","坏我","好他","prac_ALT2_moral","practice_moral","","","","","","","","",""
"null","<span style='color:GreenYellow; font-size: 70px;'>正确! </span>","null","html-keyboard-response","15","222023","0.0-8.0-0.0-1.0-0.0-1.2","6","6","6","6","4","3","2","4","4","3","4","1","0","1","0","-1","1","1","1","4","5","5","5","4","3","4","4","5","4","8","6","7","9","5","6","9","5","6","6","6","7","7","6","3","7","1","4","5","1","7","4","6","7","5","7","5","4","7","6","2","7","2","2","1","6","7","7","7","7","7","7","2","4","2","7","7","7","3","7","755482622574202882","陈","291","Male","[""好我"",""好他"",""坏他"",""坏我""]","[""强我"",""强他"",""弱他"",""弱我""]","","","","","","","","","","","","","","","","","","","","","","","","","","","","","","feedback_test","","","","","","","","",""
"1143","","f","psychophysics","16","224168","0.0-8.0-0.0-1.0-0.0-0.3","6","6","6","6","4","3","2","4","4","3","4","1","0","1","0","-1","1","1","1","4","5","5","5","4","3","4","4","5","4","8","6","7","9","5","6","9","5","6","6","6","7","7","6","3","7","1","4","5","1","7","4","6","7","5","7","5","4","7","6","2","7","2","2","1","6","7","7","7","7","7","7","2","4","2","7","7","7","3","7","755482622574202882","陈","291","Male","[""好我"",""好他"",""坏他"",""坏我""]","[""强我"",""强他"",""弱他"",""弱我""]","","","","","","","","nonmatch","","","","","","","","","","key","f","6.945129870129889","853.3333333333334","476","f","true","nonmatch","img/hexagon.png","好我","好他","prac_ALT2_moral","practice_moral","","","","","","","","",""
"null","<span style='color:GreenYellow; font-size: 70px;'>正确! </span>","null","html-keyboard-response","17","224669","0.0-8.0-0.0-1.0-0.0-1.3","6","6","6","6","4","3","2","4","4","3","4","1","0","1","0","-1","1","1","1","4","5","5","5","4","3","4","4","5","4","8","6","7","9","5","6","9","5","6","6","6","7","7","6","3","7","1","4","5","1","7","4","6","7","5","7","5","4","7","6","2","7","2","2","1","6","7","7","7","7","7","7","2","4","2","7","7","7","3","7","755482622574202882","陈","291","Male","[""好我"",""好他"",""坏他"",""坏我""]","[""强我"",""强他"",""弱他"",""弱我""]","","","","","","","","","","","","","","","","","","","","","","","","","","","","","","feedback_test","","","","","","","","",""
"1014","","f","psychophysics","18","226686","0.0-8.0-0.0-1.0-0.0-0.4","6","6","6","6","4","3","2","4","4","3","4","1","0","1","0","-1","1","1","1","4","5","5","5","4","3","4","4","5","4","8","6","7","9","5","6","9","5","6","6","6","7","7","6","3","7","1","4","5","1","7","4","6","7","5","7","5","4","7","6","2","7","2","2","1","6","7","7","7","7","7","7","2","4","2","7","7","7","3","7","755482622574202882","陈","291","Male","[""好我"",""好他"",""坏他"",""坏我""]","[""强我"",""强他"",""弱他"",""弱我""]","","","","","","","","nonmatch","","","","","","","","","","key","f","6.944636678200692","853.3333333333334","476","f","true","nonmatch","img/square.png","坏他","坏我","prac_ALT2_moral","practice_moral","","","","","","","","",""
"null","<span style='color:GreenYellow; font-size: 70px;'>正确! </span>","null","html-keyboard-response","19","227187","0.0-8.0-0.0-1.0-0.0-1.4","6","6","6","6","4","3","2","4","4","3","4","1","0","1","0","-1","1","1","1","4","5","5","5","4","3","4","4","5","4","8","6","7","9","5","6","9","5","6","6","6","7","7","6","3","7","1","4","5","1","7","4","6","7","5","7","5","4","7","6","2","7","2","2","1","6","7","7","7","7","7","7","2","4","2","7","7","7","3","7","755482622574202882","陈","291","Male","[""好我"",""好他"",""坏他"",""坏我""]","[""强我"",""强他"",""弱他"",""弱我""]","","","","","","","","","","","","","","","","","","","","","","","","","","","","","","feedback_test","","","","","","","","",""
"719","","j","psychophysics","20","228907","0.0-8.0-0.0-1.0-0.0-0.5","6","6","6","6","4","3","2","4","4","3","4","1","0","1","0","-1","1","1","1","4","5","5","5","4","3","4","4","5","4","8","6","7","9","5","6","9","5","6","6","6","7","7","6","3","7","1","4","5","1","7","4","6","7","5","7","5","4","7","6","2","7","2","2","1","6","7","7","7","7","7","7","2","4","2","7","7","7","3","7","755482622574202882","陈","291","Male","[""好我"",""好他"",""坏他"",""坏我""]","[""强我"",""强他"",""弱他"",""弱我""]","","","","","","","","match","","","","","","","","","","key","j","6.944308943089384","853.3333333333334","476","j","true","match","img/square.png","坏我","坏我","prac_ALT2_moral","practice_moral","","","","","","","","",""
"null","<span style='color:GreenYellow; font-size: 70px;'>正确! </span>","null","html-keyboard-response","21","229409","0.0-8.0-0.0-1.0-0.0-1.5","6","6","6","6","4","3","2","4","4","3","4","1","0","1","0","-1","1","1","1","4","5","5","5","4","3","4","4","5","4","8","6","7","9","5","6","9","5","6","6","6","7","7","6","3","7","1","4","5","1","7","4","6","7","5","7","5","4","7","6","2","7","2","2","1","6","7","7","7","7","7","7","2","4","2","7","7","7","3","7","755482622574202882","陈","291","Male","[""好我"",""好他"",""坏他"",""坏我""]","[""强我"",""强他"",""弱他"",""弱我""]","","","","","","","","","","","","","","","","","","","","","","","","","","","","","","feedback_test","","","","","","","","",""
"702","","f","psychophysics","22","231113","0.0-8.0-0.0-1.0-0.0-0.6","6","6","6","6","4","3","2","4","4","3","4","1","0","1","0","-1","1","1","1","4","5","5","5","4","3","4","4","5","4","8","6","7","9","5","6","9","5","6","6","6","7","7","6","3","7","1","4","5","1","7","4","6","7","5","7","5","4","7","6","2","7","2","2","1","6","7","7","7","7","7","7","2","4","2","7","7","7","3","7","755482622574202882","陈","291","Male","[""好我"",""好他"",""坏他"",""坏我""]","[""强我"",""强他"",""弱他"",""弱我""]","","","","","","","","nonmatch","","","","","","","","","","key","f","6.944672131147541","853.3333333333334","476","f","true","nonmatch","img/ellipse.png","坏我","坏他","prac_ALT2_moral","practice_moral","","","","","","","","",""
"null","<span style='color:GreenYellow; font-size: 70px;'>正确! </span>","null","html-keyboard-response","23","231614","0.0-8.0-0.0-1.0-0.0-1.6","6","6","6","6","4","3","2","4","4","3","4","1","0","1","0","-1","1","1","1","4","5","5","5","4","3","4","4","5","4","8","6","7","9","5","6","9","5","6","6","6","7","7","6","3","7","1","4","5","1","7","4","6","7","5","7","5","4","7","6","2","7","2","2","1","6","7","7","7","7","7","7","2","4","2","7","7","7","3","7","755482622574202882","陈","291","Male","[""好我"",""好他"",""坏他"",""坏我""]","[""强我"",""强他"",""弱他"",""弱我""]","","","","","","","","","","","","","","","","","","","","","","","","","","","","","","feedback_test","","","","","","","","",""
"768","","f","psychophysics","24","233383","0.0-8.0-0.0-1.0-0.0-0.7","6","6","6","6","4","3","2","4","4","3","4","1","0","1","0","-1","1","1","1","4","5","5","5","4","3","4","4","5","4","8","6","7","9","5","6","9","5","6","6","6","7","7","6","3","7","1","4","5","1","7","4","6","7","5","7","5","4","7","6","2","7","2","2","1","6","7","7","7","7","7","7","2","4","2","7","7","7","3","7","755482622574202882","陈","291","Male","[""好我"",""好他"",""坏他"",""坏我""]","[""强我"",""强他"",""弱他"",""弱我""]","","","","","","","","nonmatch","","","","","","","","","","key","f","6.94488188976378","853.3333333333334","476","f","true","nonmatch","img/hexagon.png","坏他","好他","prac_ALT2_moral","practice_moral","","","","","","","","",""
"null","<span style='color:GreenYellow; font-size: 70px;'>正确! </span>","null","html-keyboard-response","25","233885","0.0-8.0-0.0-1.0-0.0-1.7","6","6","6","6","4","3","2","4","4","3","4","1","0","1","0","-1","1","1","1","4","5","5","5","4","3","4","4","5","4","8","6","7","9","5","6","9","5","6","6","6","7","7","6","3","7","1","4","5","1","7","4","6","7","5","7","5","4","7","6","2","7","2","2","1","6","7","7","7","7","7","7","2","4","2","7","7","7","3","7","755482622574202882","陈","291","Male","[""好我"",""好他"",""坏他"",""坏我""]","[""强我"",""强他"",""弱他"",""弱我""]","","","","","","","","","","","","","","","","","","","","","","","","","","","","","","feedback_test","","","","","","","","",""
"886","","f","psychophysics","26","235772","0.0-8.0-0.0-1.0-0.0-0.8","6","6","6","6","4","3","2","4","4","3","4","1","0","1","0","-1","1","1","1","4","5","5","5","4","3","4","4","5","4","8","6","7","9","5","6","9","5","6","6","6","7","7","6","3","7","1","4","5","1","7","4","6","7","5","7","5","4","7","6","2","7","2","2","1","6","7","7","7","7","7","7","2","4","2","7","7","7","3","7","755482622574202882","陈","291","Male","[""好我"",""好他"",""坏他"",""坏我""]","[""强我"",""强他"",""弱他"",""弱我""]","","","","","","","","nonmatch","","","","","","","","","","key","f","6.9442804428044065","853.3333333333334","476","f","true","nonmatch","img/square.png","好他","坏我","prac_ALT2_moral","practice_moral","","","","","","","","",""
"null","<span style='color:GreenYellow; font-size: 70px;'>正确! </span>","null","html-keyboard-response","27","236273","0.0-8.0-0.0-1.0-0.0-1.8","6","6","6","6","4","3","2","4","4","3","4","1","0","1","0","-1","1","1","1","4","5","5","5","4","3","4","4","5","4","8","6","7","9","5","6","9","5","6","6","6","7","7","6","3","7","1","4","5","1","7","4","6","7","5","7","5","4","7","6","2","7","2","2","1","6","7","7","7","7","7","7","2","4","2","7","7","7","3","7","755482622574202882","陈","291","Male","[""好我"",""好他"",""坏他"",""坏我""]","[""强我"",""强他"",""弱他"",""弱我""]","","","","","","","","","","","","","","","","","","","","","","","","","","","","","","feedback_test","","","","","","","","",""
"668","","j","psychophysics","28","237943","0.0-8.0-0.0-1.0-0.0-0.9","6","6","6","6","4","3","2","4","4","3","4","1","0","1","0","-1","1","1","1","4","5","5","5","4","3","4","4","5","4","8","6","7","9","5","6","9","5","6","6","6","7","7","6","3","7","1","4","5","1","7","4","6","7","5","7","5","4","7","6","2","7","2","2","1","6","7","7","7","7","7","7","2","4","2","7","7","7","3","7","755482622574202882","陈","291","Male","[""好我"",""好他"",""坏他"",""坏我""]","[""强我"",""强他"",""弱他"",""弱我""]","","","","","","","","match","","","","","","","","","","key","j","6.9447698744770605","853.3333333333334","476","j","true","match","img/trapezoid.png","好我","好我","prac_ALT2_moral","practice_moral","","","","","","","","",""
"null","<span style='color:GreenYellow; font-size: 70px;'>正确! </span>","null","html-keyboard-response","29","238444","0.0-8.0-0.0-1.0-0.0-1.9","6","6","6","6","4","3","2","4","4","3","4","1","0","1","0","-1","1","1","1","4","5","5","5","4","3","4","4","5","4","8","6","7","9","5","6","9","5","6","6","6","7","7","6","3","7","1","4","5","1","7","4","6","7","5","7","5","4","7","6","2","7","2","2","1","6","7","7","7","7","7","7","2","4","2","7","7","7","3","7","755482622574202882","陈","291","Male","[""好我"",""好他"",""坏他"",""坏我""]","[""强我"",""强他"",""弱他"",""弱我""]","","","","","","","","","","","","","","","","","","","","","","","","","","","","","","feedback_test","","","","","","","","",""
"1055","","f","psychophysics","30","240501","0.0-8.0-0.0-1.0-0.0-0.10","6","6","6","6","4","3","2","4","4","3","4","1","0","1","0","-1","1","1","1","4","5","5","5","4","3","4","4","5","4","8","6","7","9","5","6","9","5","6","6","6","7","7","6","3","7","1","4","5","1","7","4","6","7","5","7","5","4","7","6","2","7","2","2","1","6","7","7","7","7","7","7","2","4","2","7","7","7","3","7","755482622574202882","陈","291","Male","[""好我"",""好他"",""坏他"",""坏我""]","[""强我"",""强他"",""弱他"",""弱我""]","","","","","","","","nonmatch","","","","","","","","","","key","f","6.944406779661037","853.3333333333334","476","j","false","match","img/hexagon.png","好他","好他","prac_ALT2_moral","practice_moral","","","","","","","","",""
"null","<span style='color:red; font-size: 70px;'>错误! </span>","null","html-keyboard-response","31","241003","0.0-8.0-0.0-1.0-0.0-1.10","6","6","6","6","4","3","2","4","4","3","4","1","0","1","0","-1","1","1","1","4","5","5","5","4","3","4","4","5","4","8","6","7","9","5","6","9","5","6","6","6","7","7","6","3","7","1","4","5","1","7","4","6","7","5","7","5","4","7","6","2","7","2","2","1","6","7","7","7","7","7","7","2","4","2","7","7","7","3","7","755482622574202882","陈","291","Male","[""好我"",""好他"",""坏他"",""坏我""]","[""强我"",""强他"",""弱他"",""弱我""]","","","","","","","","","","","","","","","","","","","","","","","","","","","","","","feedback_test","","","","","","","","",""
"1032","","j","psychophysics","32","243036","0.0-8.0-0.0-1.0-0.0-0.11","6","6","6","6","4","3","2","4","4","3","4","1","0","1","0","-1","1","1","1","4","5","5","5","4","3","4","4","5","4","8","6","7","9","5","6","9","5","6","6","6","7","7","6","3","7","1","4","5","1","7","4","6","7","5","7","5","4","7","6","2","7","2","2","1","6","7","7","7","7","7","7","2","4","2","7","7","7","3","7","755482622574202882","陈","291","Male","[""好我"",""好他"",""坏他"",""坏我""]","[""强我"",""强他"",""弱他"",""弱我""]","","","","","","","","match","","","","","","","","","","key","j","6.9445205479451655","853.3333333333334","476","j","true","match","img/hexagon.png","好他","好他","prac_ALT2_moral","practice_moral","","","","","","","","",""
"null","<span style='color:GreenYellow; font-size: 70px;'>正确! </span>","null","html-keyboard-response","33","243537","0.0-8.0-0.0-1.0-0.0-1.11","6","6","6","6","4","3","2","4","4","3","4","1","0","1","0","-1","1","1","1","4","5","5","5","4","3","4","4","5","4","8","6","7","9","5","6","9","5","6","6","6","7","7","6","3","7","1","4","5","1","7","4","6","7","5","7","5","4","7","6","2","7","2","2","1","6","7","7","7","7","7","7","2","4","2","7","7","7","3","7","755482622574202882","陈","291","Male","[""好我"",""好他"",""坏他"",""坏我""]","[""强我"",""强他"",""弱他"",""弱我""]","","","","","","","","","","","","","","","","","","","","","","","","","","","","","","feedback_test","","","","","","","","",""
"null","","null","psychophysics","34","245739","0.0-8.0-0.0-1.0-0.0-0.12","6","6","6","6","4","3","2","4","4","3","4","1","0","1","0","-1","1","1","1","4","5","5","5","4","3","4","4","5","4","8","6","7","9","5","6","9","5","6","6","6","7","7","6","3","7","1","4","5","1","7","4","6","7","5","7","5","4","7","6","2","7","2","2","1","6","7","7","7","7","7","7","2","4","2","7","7","7","3","7","755482622574202882","陈","291","Male","[""好我"",""好他"",""坏他"",""坏我""]","[""强我"",""强他"",""弱他"",""弱我""]","","","","","","","","null","","","","","","","","","","key","null","6.944620253164557","853.3333333333334","476","j","false","match","img/square.png","坏我","坏我","prac_ALT2_moral","practice_moral","","","","","","","","",""
"null","<span class='add_' style='color:yellow; font-size: 70px;'> 太慢! </span>","null","html-keyboard-response","35","246241","0.0-8.0-0.0-1.0-0.0-1.12","6","6","6","6","4","3","2","4","4","3","4","1","0","1","0","-1","1","1","1","4","5","5","5","4","3","4","4","5","4","8","6","7","9","5","6","9","5","6","6","6","7","7","6","3","7","1","4","5","1","7","4","6","7","5","7","5","4","7","6","2","7","2","2","1","6","7","7","7","7","7","7","2","4","2","7","7","7","3","7","755482622574202882","陈","291","Male","[""好我"",""好他"",""坏他"",""坏我""]","[""强我"",""强他"",""弱他"",""弱我""]","","","","","","","","","","","","","","","","","","","","","","","","","","","","","","feedback_test","","","","","","","","",""
"null","","null","psychophysics","36","248443","0.0-8.0-0.0-1.0-0.0-0.13","6","6","6","6","4","3","2","4","4","3","4","1","0","1","0","-1","1","1","1","4","5","5","5","4","3","4","4","5","4","8","6","7","9","5","6","9","5","6","6","6","7","7","6","3","7","1","4","5","1","7","4","6","7","5","7","5","4","7","6","2","7","2","2","1","6","7","7","7","7","7","7","2","4","2","7","7","7","3","7","755482622574202882","陈","291","Male","[""好我"",""好他"",""坏他"",""坏我""]","[""强我"",""强他"",""弱他"",""弱我""]","","","","","","","","null","","","","","","","","","","key","null","6.94507936507931","853.3333333333334","476","j","false","match","img/ellipse.png","坏他","坏他","prac_ALT2_moral","practice_moral","","","","","","","","",""
"null","<span class='add_' style='color:yellow; font-size: 70px;'> 太慢! </span>","null","html-keyboard-response","37","248944","0.0-8.0-0.0-1.0-0.0-1.13","6","6","6","6","4","3","2","4","4","3","4","1","0","1","0","-1","1","1","1","4","5","5","5","4","3","4","4","5","4","8","6","7","9","5","6","9","5","6","6","6","7","7","6","3","7","1","4","5","1","7","4","6","7","5","7","5","4","7","6","2","7","2","2","1","6","7","7","7","7","7","7","2","4","2","7","7","7","3","7","755482622574202882","陈","291","Male","[""好我"",""好他"",""坏他"",""坏我""]","[""强我"",""强他"",""弱他"",""弱我""]","","","","","","","","","","","","","","","","","","","","","","","","","","","","","","feedback_test","","","","","","","","",""
"812","","j","psychophysics","38","250758","0.0-8.0-0.0-1.0-0.0-0.14","6","6","6","6","4","3","2","4","4","3","4","1","0","1","0","-1","1","1","1","4","5","5","5","4","3","4","4","5","4","8","6","7","9","5","6","9","5","6","6","6","7","7","6","3","7","1","4","5","1","7","4","6","7","5","7","5","4","7","6","2","7","2","2","1","6","7","7","7","7","7","7","2","4","2","7","7","7","3","7","755482622574202882","陈","291","Male","[""好我"",""好他"",""坏他"",""坏我""]","[""强我"",""强他"",""弱他"",""弱我""]","","","","","","","","match","","","","","","","","","","key","j","6.944615384615407","853.3333333333334","476","j","true","match","img/ellipse.png","坏他","坏他","prac_ALT2_moral","practice_moral","","","","","","","","",""
"null","<span style='color:GreenYellow; font-size: 70px;'>正确! </span>","null","html-keyboard-response","39","251259","0.0-8.0-0.0-1.0-0.0-1.14","6","6","6","6","4","3","2","4","4","3","4","1","0","1","0","-1","1","1","1","4","5","5","5","4","3","4","4","5","4","8","6","7","9","5","6","9","5","6","6","6","7","7","6","3","7","1","4","5","1","7","4","6","7","5","7","5","4","7","6","2","7","2","2","1","6","7","7","7","7","7","7","2","4","2","7","7","7","3","7","755482622574202882","陈","291","Male","[""好我"",""好他"",""坏他"",""坏我""]","[""强我"",""强他"",""弱他"",""弱我""]","","","","","","","","","","","","","","","","","","","","","","","","","","","","","","feedback_test","","","","","","","","",""
"870","","f","psychophysics","40","253130","0.0-8.0-0.0-1.0-0.0-0.15","6","6","6","6","4","3","2","4","4","3","4","1","0","1","0","-1","1","1","1","4","5","5","5","4","3","4","4","5","4","8","6","7","9","5","6","9","5","6","6","6","7","7","6","3","7","1","4","5","1","7","4","6","7","5","7","5","4","7","6","2","7","2","2","1","6","7","7","7","7","7","7","2","4","2","7","7","7","3","7","755482622574202882","陈","291","Male","[""好我"",""好他"",""坏他"",""坏我""]","[""强我"",""强他"",""弱他"",""弱我""]","","","","","","","","nonmatch","","","","","","","","","","key","f","6.94440298507454","853.3333333333334","476","j","false","match","img/hexagon.png","好他","好他","prac_ALT2_moral","practice_moral","","","","","","","","",""
"null","<span style='color:red; font-size: 70px;'>错误! </span>","null","html-keyboard-response","41","253631","0.0-8.0-0.0-1.0-0.0-1.15","6","6","6","6","4","3","2","4","4","3","4","1","0","1","0","-1","1","1","1","4","5","5","5","4","3","4","4","5","4","8","6","7","9","5","6","9","5","6","6","6","7","7","6","3","7","1","4","5","1","7","4","6","7","5","7","5","4","7","6","2","7","2","2","1","6","7","7","7","7","7","7","2","4","2","7","7","7","3","7","755482622574202882","陈","291","Male","[""好我"",""好他"",""坏他"",""坏我""]","[""强我"",""强他"",""弱他"",""弱我""]","","","","","","","","","","","","","","","","","","","","","","","","","","","","","","feedback_test","","","","","","","","",""
"724","","f","psychophysics","42","255356","0.0-8.0-0.0-1.0-0.0-0.16","6","6","6","6","4","3","2","4","4","3","4","1","0","1","0","-1","1","1","1","4","5","5","5","4","3","4","4","5","4","8","6","7","9","5","6","9","5","6","6","6","7","7","6","3","7","1","4","5","1","7","4","6","7","5","7","5","4","7","6","2","7","2","2","1","6","7","7","7","7","7","7","2","4","2","7","7","7","3","7","755482622574202882","陈","291","Male","[""好我"",""好他"",""坏他"",""坏我""]","[""强我"",""强他"",""弱他"",""弱我""]","","","","","","","","nonmatch","","","","","","","","","","key","f","6.944939271255037","853.3333333333334","476","f","true","nonmatch","img/square.png","好我","坏我","prac_ALT2_moral","practice_moral","","","","","","","","",""
"null","<span style='color:GreenYellow; font-size: 70px;'>正确! </span>","null","html-keyboard-response","43","255857","0.0-8.0-0.0-1.0-0.0-1.16","6","6","6","6","4","3","2","4","4","3","4","1","0","1","0","-1","1","1","1","4","5","5","5","4","3","4","4","5","4","8","6","7","9","5","6","9","5","6","6","6","7","7","6","3","7","1","4","5","1","7","4","6","7","5","7","5","4","7","6","2","7","2","2","1","6","7","7","7","7","7","7","2","4","2","7","7","7","3","7","755482622574202882","陈","291","Male","[""好我"",""好他"",""坏他"",""坏我""]","[""强我"",""强他"",""弱他"",""弱我""]","","","","","","","","","","","","","","","","","","","","","","","","","","","","","","feedback_test","","","","","","","","",""
"832","","f","psychophysics","44","257691","0.0-8.0-0.0-1.0-0.0-0.17","6","6","6","6","4","3","2","4","4","3","4","1","0","1","0","-1","1","1","1","4","5","5","5","4","3","4","4","5","4","8","6","7","9","5","6","9","5","6","6","6","7","7","6","3","7","1","4","5","1","7","4","6","7","5","7","5","4","7","6","2","7","2","2","1","6","7","7","7","7","7","7","2","4","2","7","7","7","3","7","755482622574202882","陈","291","Male","[""好我"",""好他"",""坏他"",""坏我""]","[""强我"",""强他"",""弱他"",""弱我""]","","","","","","","","nonmatch","","","","","","","","","","key","f","6.944866920152092","853.3333333333334","476","f","true","nonmatch","img/trapezoid.png","好他","好我","prac_ALT2_moral","practice_moral","","","","","","","","",""
"null","<span style='color:GreenYellow; font-size: 70px;'>正确! </span>","null","html-keyboard-response","45","258192","0.0-8.0-0.0-1.0-0.0-1.17","6","6","6","6","4","3","2","4","4","3","4","1","0","1","0","-1","1","1","1","4","5","5","5","4","3","4","4","5","4","8","6","7","9","5","6","9","5","6","6","6","7","7","6","3","7","1","4","5","1","7","4","6","7","5","7","5","4","7","6","2","7","2","2","1","6","7","7","7","7","7","7","2","4","2","7","7","7","3","7","755482622574202882","陈","291","Male","[""好我"",""好他"",""坏他"",""坏我""]","[""强我"",""强他"",""弱他"",""弱我""]","","","","","","","","","","","","","","","","","","","","","","","","","","","","","","feedback_test","","","","","","","","",""
"701","","j","psychophysics","46","259894","0.0-8.0-0.0-1.0-0.0-0.18","6","6","6","6","4","3","2","4","4","3","4","1","0","1","0","-1","1","1","1","4","5","5","5","4","3","4","4","5","4","8","6","7","9","5","6","9","5","6","6","6","7","7","6","3","7","1","4","5","1","7","4","6","7","5","7","5","4","7","6","2","7","2","2","1","6","7","7","7","7","7","7","2","4","2","7","7","7","3","7","755482622574202882","陈","291","Male","[""好我"",""好他"",""坏他"",""坏我""]","[""强我"",""强他"",""弱他"",""弱我""]","","","","","","","","match","","","","","","","","","","key","j","6.941152263374414","853.3333333333334","476","j","true","match","img/trapezoid.png","好我","好我","prac_ALT2_moral","practice_moral","","","","","","","","",""
"null","<span style='color:GreenYellow; font-size: 70px;'>正确! </span>","null","html-keyboard-response","47","260406","0.0-8.0-0.0-1.0-0.0-1.18","6","6","6","6","4","3","2","4","4","3","4","1","0","1","0","-1","1","1","1","4","5","5","5","4","3","4","4","5","4","8","6","7","9","5","6","9","5","6","6","6","7","7","6","3","7","1","4","5","1","7","4","6","7","5","7","5","4","7","6","2","7","2","2","1","6","7","7","7","7","7","7","2","4","2","7","7","7","3","7","755482622574202882","陈","291","Male","[""好我"",""好他"",""坏他"",""坏我""]","[""强我"",""强他"",""弱他"",""弱我""]","","","","","","","","","","","","","","","","","","","","","","","","","","","","","","feedback_test","","","","","","","","",""
"502","","j","psychophysics","48","261910","0.0-8.0-0.0-1.0-0.0-0.19","6","6","6","6","4","3","2","4","4","3","4","1","0","1","0","-1","1","1","1","4","5","5","5","4","3","4","4","5","4","8","6","7","9","5","6","9","5","6","6","6","7","7","6","3","7","1","4","5","1","7","4","6","7","5","7","5","4","7","6","2","7","2","2","1","6","7","7","7","7","7","7","2","4","2","7","7","7","3","7","755482622574202882","陈","291","Male","[""好我"",""好他"",""坏他"",""坏我""]","[""强我"",""强他"",""弱他"",""弱我""]","","","","","","","","match","","","","","","","","","","key","j","6.944444444444445","853.3333333333334","476","j","true","match","img/square.png","坏我","坏我","prac_ALT2_moral","practice_moral","","","","","","","","",""
"null","<span style='color:GreenYellow; font-size: 70px;'>正确! </span>","null","html-keyboard-response","49","262413","0.0-8.0-0.0-1.0-0.0-1.19","6","6","6","6","4","3","2","4","4","3","4","1","0","1","0","-1","1","1","1","4","5","5","5","4","3","4","4","5","4","8","6","7","9","5","6","9","5","6","6","6","7","7","6","3","7","1","4","5","1","7","4","6","7","5","7","5","4","7","6","2","7","2","2","1","6","7","7","7","7","7","7","2","4","2","7","7","7","3","7","755482622574202882","陈","291","Male","[""好我"",""好他"",""坏他"",""坏我""]","[""强我"",""强他"",""弱他"",""弱我""]","","","","","","","","","","","","","","","","","","","","","","","","","","","","","","feedback_test","","","","","","","","",""
"992","","j","psychophysics","50","264406","0.0-8.0-0.0-1.0-0.0-0.20","6","6","6","6","4","3","2","4","4","3","4","1","0","1","0","-1","1","1","1","4","5","5","5","4","3","4","4","5","4","8","6","7","9","5","6","9","5","6","6","6","7","7","6","3","7","1","4","5","1","7","4","6","7","5","7","5","4","7","6","2","7","2","2","1","6","7","7","7","7","7","7","2","4","2","7","7","7","3","7","755482622574202882","陈","291","Male","[""好我"",""好他"",""坏他"",""坏我""]","[""强我"",""强他"",""弱他"",""弱我""]","","","","","","","","match","","","","","","","","","","key","j","6.944405594405513","853.3333333333334","476","f","false","nonmatch","img/trapezoid.png","坏我","好我","prac_ALT2_moral","practice_moral","","","","","","","","",""
"null","<span style='color:red; font-size: 70px;'>错误! </span>","null","html-keyboard-response","51","264920","0.0-8.0-0.0-1.0-0.0-1.20","6","6","6","6","4","3","2","4","4","3","4","1","0","1","0","-1","1","1","1","4","5","5","5","4","3","4","4","5","4","8","6","7","9","5","6","9","5","6","6","6","7","7","6","3","7","1","4","5","1","7","4","6","7","5","7","5","4","7","6","2","7","2","2","1","6","7","7","7","7","7","7","2","4","2","7","7","7","3","7","755482622574202882","陈","291","Male","[""好我"",""好他"",""坏他"",""坏我""]","[""强我"",""强他"",""弱他"",""弱我""]","","","","","","","","","","","","","","","","","","","","","","","","","","","","","","feedback_test","","","","","","","","",""
"799","","f","psychophysics","52","266721","0.0-8.0-0.0-1.0-0.0-0.21","6","6","6","6","4","3","2","4","4","3","4","1","0","1","0","-1","1","1","1","4","5","5","5","4","3","4","4","5","4","8","6","7","9","5","6","9","5","6","6","6","7","7","6","3","7","1","4","5","1","7","4","6","7","5","7","5","4","7","6","2","7","2","2","1","6","7","7","7","7","7","7","2","4","2","7","7","7","3","7","755482622574202882","陈","291","Male","[""好我"",""好他"",""坏他"",""坏我""]","[""强我"",""强他"",""弱他"",""弱我""]","","","","","","","","nonmatch","","","","","","","","","","key","f","6.944186046511538","853.3333333333334","476","f","true","nonmatch","img/ellipse.png","好他","坏他","prac_ALT2_moral","practice_moral","","","","","","","","",""
"null","<span style='color:GreenYellow; font-size: 70px;'>正确! </span>","null","html-keyboard-response","53","267222","0.0-8.0-0.0-1.0-0.0-1.21","6","6","6","6","4","3","2","4","4","3","4","1","0","1","0","-1","1","1","1","4","5","5","5","4","3","4","4","5","4","8","6","7","9","5","6","9","5","6","6","6","7","7","6","3","7","1","4","5","1","7","4","6","7","5","7","5","4","7","6","2","7","2","2","1","6","7","7","7","7","7","7","2","4","2","7","7","7","3","7","755482622574202882","陈","291","Male","[""好我"",""好他"",""坏他"",""坏我""]","[""强我"",""强他"",""弱他"",""弱我""]","","","","","","","","","","","","","","","","","","","","","","","","","","","","","","feedback_test","","","","","","","","",""
"913","","f","psychophysics","54","269136","0.0-8.0-0.0-1.0-0.0-0.22","6","6","6","6","4","3","2","4","4","3","4","1","0","1","0","-1","1","1","1","4","5","5","5","4","3","4","4","5","4","8","6","7","9","5","6","9","5","6","6","6","7","7","6","3","7","1","4","5","1","7","4","6","7","5","7","5","4","7","6","2","7","2","2","1","6","7","7","7","7","7","7","2","4","2","7","7","7","3","7","755482622574202882","陈","291","Male","[""好我"",""好他"",""坏他"",""坏我""]","[""强我"",""强他"",""弱他"",""弱我""]","","","","","","","","nonmatch","","","","","","","","","","key","f","6.94489051094899","853.3333333333334","476","f","true","nonmatch","img/ellipse.png","好我","坏他","prac_ALT2_moral","practice_moral","","","","","","","","",""
"null","<span style='color:GreenYellow; font-size: 70px;'>正确! </span>","null","html-keyboard-response","55","269637","0.0-8.0-0.0-1.0-0.0-1.22","6","6","6","6","4","3","2","4","4","3","4","1","0","1","0","-1","1","1","1","4","5","5","5","4","3","4","4","5","4","8","6","7","9","5","6","9","5","6","6","6","7","7","6","3","7","1","4","5","1","7","4","6","7","5","7","5","4","7","6","2","7","2","2","1","6","7","7","7","7","7","7","2","4","2","7","7","7","3","7","755482622574202882","陈","291","Male","[""好我"",""好他"",""坏他"",""坏我""]","[""强我"",""强他"",""弱他"",""弱我""]","","","","","","","","","","","","","","","","","","","","","","","","","","","","","","feedback_test","","","","","","","","",""
"733","","f","psychophysics","56","271371","0.0-8.0-0.0-1.0-0.0-0.23","6","6","6","6","4","3","2","4","4","3","4","1","0","1","0","-1","1","1","1","4","5","5","5","4","3","4","4","5","4","8","6","7","9","5","6","9","5","6","6","6","7","7","6","3","7","1","4","5","1","7","4","6","7","5","7","5","4","7","6","2","7","2","2","1","6","7","7","7","7","7","7","2","4","2","7","7","7","3","7","755482622574202882","陈","291","Male","[""好我"",""好他"",""坏他"",""坏我""]","[""强我"",""强他"",""弱他"",""弱我""]","","","","","","","","nonmatch","","","","","","","","","","key","f","6.9443548387097245","853.3333333333334","476","f","true","nonmatch","img/trapezoid.png","坏他","好我","prac_ALT2_moral","practice_moral","","","","","","","","",""
"null","<span style='color:GreenYellow; font-size: 70px;'>正确! </span>","null","html-keyboard-response","57","271872","0.0-8.0-0.0-1.0-0.0-1.23","6","6","6","6","4","3","2","4","4","3","4","1","0","1","0","-1","1","1","1","4","5","5","5","4","3","4","4","5","4","8","6","7","9","5","6","9","5","6","6","6","7","7","6","3","7","1","4","5","1","7","4","6","7","5","7","5","4","7","6","2","7","2","2","1","6","7","7","7","7","7","7","2","4","2","7","7","7","3","7","755482622574202882","陈","291","Male","[""好我"",""好他"",""坏他"",""坏我""]","[""强我"",""强他"",""弱他"",""弱我""]","","","","","","","","","","","","","","","","","","","","","","","","","","","","","","feedback_test","","","","","","","","",""
"720","","j","psychophysics","58","273593","0.0-8.0-0.0-1.0-0.0-0.24","6","6","6","6","4","3","2","4","4","3","4","1","0","1","0","-1","1","1","1","4","5","5","5","4","3","4","4","5","4","8","6","7","9","5","6","9","5","6","6","6","7","7","6","3","7","1","4","5","1","7","4","6","7","5","7","5","4","7","6","2","7","2","2","1","6","7","7","7","7","7","7","2","4","2","7","7","7","3","7","755482622574202882","陈","291","Male","[""好我"",""好他"",""坏他"",""坏我""]","[""强我"",""强他"",""弱他"",""弱我""]","","","","","","","","match","","","","","","","","","","key","j","6.944534412955418","853.3333333333334","476","f","false","nonmatch","img/trapezoid.png","坏我","好我","prac_ALT2_moral","practice_moral","","","","","","","","",""
"null","<span style='color:red; font-size: 70px;'>错误! </span>","null","html-keyboard-response","59","274095","0.0-8.0-0.0-1.0-0.0-1.24","6","6","6","6","4","3","2","4","4","3","4","1","0","1","0","-1","1","1","1","4","5","5","5","4","3","4","4","5","4","8","6","7","9","5","6","9","5","6","6","6","7","7","6","3","7","1","4","5","1","7","4","6","7","5","7","5","4","7","6","2","7","2","2","1","6","7","7","7","7","7","7","2","4","2","7","7","7","3","7","755482622574202882","陈","291","Male","[""好我"",""好他"",""坏他"",""坏我""]","[""强我"",""强他"",""弱他"",""弱我""]","","","","","","","","","","","","","","","","","","","","","","","","","","","","","","feedback_test","","","","","","","","",""
"864","","f","psychophysics","60","275960","0.0-8.0-0.0-1.0-0.0-0.25","6","6","6","6","4","3","2","4","4","3","4","1","0","1","0","-1","1","1","1","4","5","5","5","4","3","4","4","5","4","8","6","7","9","5","6","9","5","6","6","6","7","7","6","3","7","1","4","5","1","7","4","6","7","5","7","5","4","7","6","2","7","2","2","1","6","7","7","7","7","7","7","2","4","2","7","7","7","3","7","755482622574202882","陈","291","Male","[""好我"",""好他"",""坏他"",""坏我""]","[""强我"",""强他"",""弱他"",""弱我""]","","","","","","","","nonmatch","","","","","","","","","","key","f","6.941947565543071","853.3333333333334","476","f","true","nonmatch","img/trapezoid.png","好他","好我","prac_ALT2_moral","practice_moral","","","","","","","","",""
"null","<span style='color:GreenYellow; font-size: 70px;'>正确! </span>","null","html-keyboard-response","61","276462","0.0-8.0-0.0-1.0-0.0-1.25","6","6","6","6","4","3","2","4","4","3","4","1","0","1","0","-1","1","1","1","4","5","5","5","4","3","4","4","5","4","8","6","7","9","5","6","9","5","6","6","6","7","7","6","3","7","1","4","5","1","7","4","6","7","5","7","5","4","7","6","2","7","2","2","1","6","7","7","7","7","7","7","2","4","2","7","7","7","3","7","755482622574202882","陈","291","Male","[""好我"",""好他"",""坏他"",""坏我""]","[""强我"",""强他"",""弱他"",""弱我""]","","","","","","","","","","","","","","","","","","","","","","","","","","","","","","feedback_test","","","","","","","","",""
"844","","j","psychophysics","62","278307","0.0-8.0-0.0-1.0-0.0-0.26","6","6","6","6","4","3","2","4","4","3","4","1","0","1","0","-1","1","1","1","4","5","5","5","4","3","4","4","5","4","8","6","7","9","5","6","9","5","6","6","6","7","7","6","3","7","1","4","5","1","7","4","6","7","5","7","5","4","7","6","2","7","2","2","1","6","7","7","7","7","7","7","2","4","2","7","7","7","3","7","755482622574202882","陈","291","Male","[""好我"",""好他"",""坏他"",""坏我""]","[""强我"",""强他"",""弱他"",""弱我""]","","","","","","","","match","","","","","","","","","","key","j","6.9445283018867485","853.3333333333334","476","j","true","match","img/square.png","坏我","坏我","prac_ALT2_moral","practice_moral","","","","","","","","",""
"null","<span style='color:GreenYellow; font-size: 70px;'>正确! </span>","null","html-keyboard-response","63","278808","0.0-8.0-0.0-1.0-0.0-1.26","6","6","6","6","4","3","2","4","4","3","4","1","0","1","0","-1","1","1","1","4","5","5","5","4","3","4","4","5","4","8","6","7","9","5","6","9","5","6","6","6","7","7","6","3","7","1","4","5","1","7","4","6","7","5","7","5","4","7","6","2","7","2","2","1","6","7","7","7","7","7","7","2","4","2","7","7","7","3","7","755482622574202882","陈","291","Male","[""好我"",""好他"",""坏他"",""坏我""]","[""强我"",""强他"",""弱他"",""弱我""]","","","","","","","","","","","","","","","","","","","","","","","","","","","","","","feedback_test","","","","","","","","",""
"832","","f","psychophysics","64","280642","0.0-8.0-0.0-1.0-0.0-0.27","6","6","6","6","4","3","2","4","4","3","4","1","0","1","0","-1","1","1","1","4","5","5","5","4","3","4","4","5","4","8","6","7","9","5","6","9","5","6","6","6","7","7","6","3","7","1","4","5","1","7","4","6","7","5","7","5","4","7","6","2","7","2","2","1","6","7","7","7","7","7","7","2","4","2","7","7","7","3","7","755482622574202882","陈","291","Male","[""好我"",""好他"",""坏他"",""坏我""]","[""强我"",""强他"",""弱他"",""弱我""]","","","","","","","","nonmatch","","","","","","","","","","key","f","6.944486692015298","853.3333333333334","476","j","false","match","img/hexagon.png","好他","好他","prac_ALT2_moral","practice_moral","","","","","","","","",""
"null","<span style='color:red; font-size: 70px;'>错误! </span>","null","html-keyboard-response","65","281143","0.0-8.0-0.0-1.0-0.0-1.27","6","6","6","6","4","3","2","4","4","3","4","1","0","1","0","-1","1","1","1","4","5","5","5","4","3","4","4","5","4","8","6","7","9","5","6","9","5","6","6","6","7","7","6","3","7","1","4","5","1","7","4","6","7","5","7","5","4","7","6","2","7","2","2","1","6","7","7","7","7","7","7","2","4","2","7","7","7","3","7","755482622574202882","陈","291","Male","[""好我"",""好他"",""坏他"",""坏我""]","[""强我"",""强他"",""弱他"",""弱我""]","","","","","","","","","","","","","","","","","","","","","","","","","","","","","","feedback_test","","","","","","","","",""
"1003","","f","psychophysics","66","283146","0.0-8.0-0.0-1.0-0.0-0.28","6","6","6","6","4","3","2","4","4","3","4","1","0","1","0","-1","1","1","1","4","5","5","5","4","3","4","4","5","4","8","6","7","9","5","6","9","5","6","6","6","7","7","6","3","7","1","4","5","1","7","4","6","7","5","7","5","4","7","6","2","7","2","2","1","6","7","7","7","7","7","7","2","4","2","7","7","7","3","7","755482622574202882","陈","291","Male","[""好我"",""好他"",""坏他"",""坏我""]","[""强我"",""强他"",""弱他"",""弱我""]","","","","","","","","nonmatch","","","","","","","","","","key","f","6.944444444444445","853.3333333333334","476","j","false","match","img/ellipse.png","坏他","坏他","prac_ALT2_moral","practice_moral","","","","","","","","",""
"null","<span style='color:red; font-size: 70px;'>错误! </span>","null","html-keyboard-response","67","283648","0.0-8.0-0.0-1.0-0.0-1.28","6","6","6","6","4","3","2","4","4","3","4","1","0","1","0","-1","1","1","1","4","5","5","5","4","3","4","4","5","4","8","6","7","9","5","6","9","5","6","6","6","7","7","6","3","7","1","4","5","1","7","4","6","7","5","7","5","4","7","6","2","7","2","2","1","6","7","7","7","7","7","7","2","4","2","7","7","7","3","7","755482622574202882","陈","291","Male","[""好我"",""好他"",""坏他"",""坏我""]","[""强我"",""强他"",""弱他"",""弱我""]","","","","","","","","","","","","","","","","","","","","","","","","","","","","","","feedback_test","","","","","","","","",""
"834","","j","psychophysics","68","285484","0.0-8.0-0.0-1.0-0.0-0.29","6","6","6","6","4","3","2","4","4","3","4","1","0","1","0","-1","1","1","1","4","5","5","5","4","3","4","4","5","4","8","6","7","9","5","6","9","5","6","6","6","7","7","6","3","7","1","4","5","1","7","4","6","7","5","7","5","4","7","6","2","7","2","2","1","6","7","7","7","7","7","7","2","4","2","7","7","7","3","7","755482622574202882","陈","291","Male","[""好我"",""好他"",""坏他"",""坏我""]","[""强我"",""强他"",""弱他"",""弱我""]","","","","","","","","match","","","","","","","","","","key","j","6.945627376425899","853.3333333333334","476","f","false","nonmatch","img/square.png","坏他","坏我","prac_ALT2_moral","practice_moral","","","","","","","","",""
"null","<span style='color:red; font-size: 70px;'>错误! </span>","null","html-keyboard-response","69","285986","0.0-8.0-0.0-1.0-0.0-1.29","6","6","6","6","4","3","2","4","4","3","4","1","0","1","0","-1","1","1","1","4","5","5","5","4","3","4","4","5","4","8","6","7","9","5","6","9","5","6","6","6","7","7","6","3","7","1","4","5","1","7","4","6","7","5","7","5","4","7","6","2","7","2","2","1","6","7","7","7","7","7","7","2","4","2","7","7","7","3","7","755482622574202882","陈","291","Male","[""好我"",""好他"",""坏他"",""坏我""]","[""强我"",""强他"",""弱他"",""弱我""]","","","","","","","","","","","","","","","","","","","","","","","","","","","","","","feedback_test","","","","","","","","",""
"717","","j","psychophysics","70","287705","0.0-8.0-0.0-1.0-0.0-0.30","6","6","6","6","4","3","2","4","4","3","4","1","0","1","0","-1","1","1","1","4","5","5","5","4","3","4","4","5","4","8","6","7","9","5","6","9","5","6","6","6","7","7","6","3","7","1","4","5","1","7","4","6","7","5","7","5","4","7","6","2","7","2","2","1","6","7","7","7","7","7","7","2","4","2","7","7","7","3","7","755482622574202882","陈","291","Male","[""好我"",""好他"",""坏他"",""坏我""]","[""强我"",""强他"",""弱他"",""弱我""]","","","","","","","","match","","","","","","","","","","key","j","6.94430894308962","853.3333333333334","476","j","true","match","img/trapezoid.png","好我","好我","prac_ALT2_moral","practice_moral","","","","","","","","",""
"null","<span style='color:GreenYellow; font-size: 70px;'>正确! </span>","null","html-keyboard-response","71","288205","0.0-8.0-0.0-1.0-0.0-1.30","6","6","6","6","4","3","2","4","4","3","4","1","0","1","0","-1","1","1","1","4","5","5","5","4","3","4","4","5","4","8","6","7","9","5","6","9","5","6","6","6","7","7","6","3","7","1","4","5","1","7","4","6","7","5","7","5","4","7","6","2","7","2","2","1","6","7","7","7","7","7","7","2","4","2","7","7","7","3","7","755482622574202882","陈","291","Male","[""好我"",""好他"",""坏他"",""坏我""]","[""强我"",""强他"",""弱他"",""弱我""]","","","","","","","","","","","","","","","","","","","","","","","","","","","","","","feedback_test","","","","","","","","",""
"994","","f","psychophysics","72","290200","0.0-8.0-0.0-1.0-0.0-0.31","6","6","6","6","4","3","2","4","4","3","4","1","0","1","0","-1","1","1","1","4","5","5","5","4","3","4","4","5","4","8","6","7","9","5","6","9","5","6","6","6","7","7","6","3","7","1","4","5","1","7","4","6","7","5","7","5","4","7","6","2","7","2","2","1","6","7","7","7","7","7","7","2","4","2","7","7","7","3","7","755482622574202882","陈","291","Male","[""好我"",""好他"",""坏他"",""坏我""]","[""强我"",""强他"",""弱他"",""弱我""]","","","","","","","","nonmatch","","","","","","","","","","key","f","6.944405594405513","853.3333333333334","476","f","true","nonmatch","img/ellipse.png","坏我","坏他","prac_ALT2_moral","practice_moral","","","","","","","","",""
"null","<span style='color:GreenYellow; font-size: 70px;'>正确! </span>","null","html-keyboard-response","73","290701","0.0-8.0-0.0-1.0-0.0-1.31","6","6","6","6","4","3","2","4","4","3","4","1","0","1","0","-1","1","1","1","4","5","5","5","4","3","4","4","5","4","8","6","7","9","5","6","9","5","6","6","6","7","7","6","3","7","1","4","5","1","7","4","6","7","5","7","5","4","7","6","2","7","2","2","1","6","7","7","7","7","7","7","2","4","2","7","7","7","3","7","755482622574202882","陈","291","Male","[""好我"",""好他"",""坏他"",""坏我""]","[""强我"",""强他"",""弱他"",""弱我""]","","","","","","","","","","","","","","","","","","","","","","","","","","","","","","feedback_test","","","","","","","","",""
"930","","j","psychophysics","74","292634","0.0-8.0-0.0-1.0-0.0-0.32","6","6","6","6","4","3","2","4","4","3","4","1","0","1","0","-1","1","1","1","4","5","5","5","4","3","4","4","5","4","8","6","7","9","5","6","9","5","6","6","6","7","7","6","3","7","1","4","5","1","7","4","6","7","5","7","5","4","7","6","2","7","2","2","1","6","7","7","7","7","7","7","2","4","2","7","7","7","3","7","755482622574202882","陈","291","Male","[""好我"",""好他"",""坏他"",""坏我""]","[""强我"",""强他"",""弱他"",""弱我""]","","","","","","","","match","","","","","","","","","","key","j","6.944043321299639","853.3333333333334","476","j","true","match","img/square.png","坏我","坏我","prac_ALT2_moral","practice_moral","","","","","","","","",""
"null","<span style='color:GreenYellow; font-size: 70px;'>正确! </span>","null","html-keyboard-response","75","293134","0.0-8.0-0.0-1.0-0.0-1.32","6","6","6","6","4","3","2","4","4","3","4","1","0","1","0","-1","1","1","1","4","5","5","5","4","3","4","4","5","4","8","6","7","9","5","6","9","5","6","6","6","7","7","6","3","7","1","4","5","1","7","4","6","7","5","7","5","4","7","6","2","7","2","2","1","6","7","7","7","7","7","7","2","4","2","7","7","7","3","7","755482622574202882","陈","291","Male","[""好我"",""好他"",""坏他"",""坏我""]","[""强我"",""强他"",""弱他"",""弱我""]","","","","","","","","","","","","","","","","","","","","","","","","","","","","","","feedback_test","","","","","","","","",""
"788","","j","psychophysics","76","294924","0.0-8.0-0.0-1.0-0.0-0.33","6","6","6","6","4","3","2","4","4","3","4","1","0","1","0","-1","1","1","1","4","5","5","5","4","3","4","4","5","4","8","6","7","9","5","6","9","5","6","6","6","7","7","6","3","7","1","4","5","1","7","4","6","7","5","7","5","4","7","6","2","7","2","2","1","6","7","7","7","7","7","7","2","4","2","7","7","7","3","7","755482622574202882","陈","291","Male","[""好我"",""好他"",""坏他"",""坏我""]","[""强我"",""强他"",""弱他"",""弱我""]","","","","","","","","match","","","","","","","","","","key","j","6.944357976653742","853.3333333333334","476","j","true","match","img/trapezoid.png","好我","好我","prac_ALT2_moral","practice_moral","","","","","","","","",""
"null","<span style='color:GreenYellow; font-size: 70px;'>正确! </span>","null","html-keyboard-response","77","295425","0.0-8.0-0.0-1.0-0.0-1.33","6","6","6","6","4","3","2","4","4","3","4","1","0","1","0","-1","1","1","1","4","5","5","5","4","3","4","4","5","4","8","6","7","9","5","6","9","5","6","6","6","7","7","6","3","7","1","4","5","1","7","4","6","7","5","7","5","4","7","6","2","7","2","2","1","6","7","7","7","7","7","7","2","4","2","7","7","7","3","7","755482622574202882","陈","291","Male","[""好我"",""好他"",""坏他"",""坏我""]","[""强我"",""强他"",""弱他"",""弱我""]","","","","","","","","","","","","","","","","","","","","","","","","","","","","","","feedback_test","","","","","","","","",""
"963","","f","psychophysics","78","297390","0.0-8.0-0.0-1.0-0.0-0.34","6","6","6","6","4","3","2","4","4","3","4","1","0","1","0","-1","1","1","1","4","5","5","5","4","3","4","4","5","4","8","6","7","9","5","6","9","5","6","6","6","7","7","6","3","7","1","4","5","1","7","4","6","7","5","7","5","4","7","6","2","7","2","2","1","6","7","7","7","7","7","7","2","4","2","7","7","7","3","7","755482622574202882","陈","291","Male","[""好我"",""好他"",""坏他"",""坏我""]","[""强我"",""强他"",""弱他"",""弱我""]","","","","","","","","nonmatch","","","","","","","","","","key","f","6.944876325088216","853.3333333333334","476","f","true","nonmatch","img/trapezoid.png","坏他","好我","prac_ALT2_moral","practice_moral","","","","","","","","",""
"null","<span style='color:GreenYellow; font-size: 70px;'>正确! </span>","null","html-keyboard-response","79","297891","0.0-8.0-0.0-1.0-0.0-1.34","6","6","6","6","4","3","2","4","4","3","4","1","0","1","0","-1","1","1","1","4","5","5","5","4","3","4","4","5","4","8","6","7","9","5","6","9","5","6","6","6","7","7","6","3","7","1","4","5","1","7","4","6","7","5","7","5","4","7","6","2","7","2","2","1","6","7","7","7","7","7","7","2","4","2","7","7","7","3","7","755482622574202882","陈","291","Male","[""好我"",""好他"",""坏他"",""坏我""]","[""强我"",""强他"",""弱他"",""弱我""]","","","","","","","","","","","","","","","","","","","","","","","","","","","","","","feedback_test","","","","","","","","",""
"952","","j","psychophysics","80","299845","0.0-8.0-0.0-1.0-0.0-0.35","6","6","6","6","4","3","2","4","4","3","4","1","0","1","0","-1","1","1","1","4","5","5","5","4","3","4","4","5","4","8","6","7","9","5","6","9","5","6","6","6","7","7","6","3","7","1","4","5","1","7","4","6","7","5","7","5","4","7","6","2","7","2","2","1","6","7","7","7","7","7","7","2","4","2","7","7","7","3","7","755482622574202882","陈","291","Male","[""好我"",""好他"",""坏他"",""坏我""]","[""强我"",""强他"",""弱他"",""弱我""]","","","","","","","","match","","","","","","","","","","key","j","6.944999999999917","853.3333333333334","476","j","true","match","img/ellipse.png","坏他","坏他","prac_ALT2_moral","practice_moral","","","","","","","","",""
"null","<span style='color:GreenYellow; font-size: 70px;'>正确! </span>","null","html-keyboard-response","81","300347","0.0-8.0-0.0-1.0-0.0-1.35","6","6","6","6","4","3","2","4","4","3","4","1","0","1","0","-1","1","1","1","4","5","5","5","4","3","4","4","5","4","8","6","7","9","5","6","9","5","6","6","6","7","7","6","3","7","1","4","5","1","7","4","6","7","5","7","5","4","7","6","2","7","2","2","1","6","7","7","7","7","7","7","2","4","2","7","7","7","3","7","755482622574202882","陈","291","Male","[""好我"",""好他"",""坏他"",""坏我""]","[""强我"",""强他"",""弱他"",""弱我""]","","","","","","","","","","","","","","","","","","","","","","","","","","","","","","feedback_test","","","","","","","","",""
"757","","f","psychophysics","82","302105","0.0-8.0-0.0-1.0-0.0-0.36","6","6","6","6","4","3","2","4","4","3","4","1","0","1","0","-1","1","1","1","4","5","5","5","4","3","4","4","5","4","8","6","7","9","5","6","9","5","6","6","6","7","7","6","3","7","1","4","5","1","7","4","6","7","5","7","5","4","7","6","2","7","2","2","1","6","7","7","7","7","7","7","2","4","2","7","7","7","3","7","755482622574202882","陈","291","Male","[""好我"",""好他"",""坏他"",""坏我""]","[""强我"",""强他"",""弱他"",""弱我""]","","","","","","","","nonmatch","","","","","","","","","","key","f","6.944047619047711","853.3333333333334","476","j","false","match","img/ellipse.png","坏他","坏他","prac_ALT2_moral","practice_moral","","","","","","","","",""
"null","<span style='color:red; font-size: 70px;'>错误! </span>","null","html-keyboard-response","83","302606","0.0-8.0-0.0-1.0-0.0-1.36","6","6","6","6","4","3","2","4","4","3","4","1","0","1","0","-1","1","1","1","4","5","5","5","4","3","4","4","5","4","8","6","7","9","5","6","9","5","6","6","6","7","7","6","3","7","1","4","5","1","7","4","6","7","5","7","5","4","7","6","2","7","2","2","1","6","7","7","7","7","7","7","2","4","2","7","7","7","3","7","755482622574202882","陈","291","Male","[""好我"",""好他"",""坏他"",""坏我""]","[""强我"",""强他"",""弱他"",""弱我""]","","","","","","","","","","","","","","","","","","","","","","","","","","","","","","feedback_test","","","","","","","","",""
"1086","","j","psychophysics","84","304693","0.0-8.0-0.0-1.0-0.0-0.37","6","6","6","6","4","3","2","4","4","3","4","1","0","1","0","-1","1","1","1","4","5","5","5","4","3","4","4","5","4","8","6","7","9","5","6","9","5","6","6","6","7","7","6","3","7","1","4","5","1","7","4","6","7","5","7","5","4","7","6","2","7","2","2","1","6","7","7","7","7","7","7","2","4","2","7","7","7","3","7","755482622574202882","陈","291","Male","[""好我"",""好他"",""坏他"",""坏我""]","[""强我"",""强他"",""弱他"",""弱我""]","","","","","","","","match","","","","","","","","","","key","j","6.944333333333295","853.3333333333334","476","j","true","match","img/hexagon.png","好他","好他","prac_ALT2_moral","practice_moral","","","","","","","","",""
"null","<span style='color:GreenYellow; font-size: 70px;'>正确! </span>","null","html-keyboard-response","85","305194","0.0-8.0-0.0-1.0-0.0-1.37","6","6","6","6","4","3","2","4","4","3","4","1","0","1","0","-1","1","1","1","4","5","5","5","4","3","4","4","5","4","8","6","7","9","5","6","9","5","6","6","6","7","7","6","3","7","1","4","5","1","7","4","6","7","5","7","5","4","7","6","2","7","2","2","1","6","7","7","7","7","7","7","2","4","2","7","7","7","3","7","755482622574202882","陈","291","Male","[""好我"",""好他"",""坏他"",""坏我""]","[""强我"",""强他"",""弱他"",""弱我""]","","","","","","","","","","","","","","","","","","","","","","","","","","","","","","feedback_test","","","","","","","","",""
"738","","f","psychophysics","86","306933","0.0-8.0-0.0-1.0-0.0-0.38","6","6","6","6","4","3","2","4","4","3","4","1","0","1","0","-1","1","1","1","4","5","5","5","4","3","4","4","5","4","8","6","7","9","5","6","9","5","6","6","6","7","7","6","3","7","1","4","5","1","7","4","6","7","5","7","5","4","7","6","2","7","2","2","1","6","7","7","7","7","7","7","2","4","2","7","7","7","3","7","755482622574202882","陈","291","Male","[""好我"",""好他"",""坏他"",""坏我""]","[""强我"",""强他"",""弱他"",""弱我""]","","","","","","","","nonmatch","","","","","","","","","","key","f","6.944578313253059","853.3333333333334","476","f","true","nonmatch","img/hexagon.png","坏他","好他","prac_ALT2_moral","practice_moral","","","","","","","","",""
"null","<span style='color:GreenYellow; font-size: 70px;'>正确! </span>","null","html-keyboard-response","87","307434","0.0-8.0-0.0-1.0-0.0-1.38","6","6","6","6","4","3","2","4","4","3","4","1","0","1","0","-1","1","1","1","4","5","5","5","4","3","4","4","5","4","8","6","7","9","5","6","9","5","6","6","6","7","7","6","3","7","1","4","5","1","7","4","6","7","5","7","5","4","7","6","2","7","2","2","1","6","7","7","7","7","7","7","2","4","2","7","7","7","3","7","755482622574202882","陈","291","Male","[""好我"",""好他"",""坏他"",""坏我""]","[""强我"",""强他"",""弱他"",""弱我""]","","","","","","","","","","","","","","","","","","","","","","","","","","","","","","feedback_test","","","","","","","","",""
"917","","f","psychophysics","88","309352","0.0-8.0-0.0-1.0-0.0-0.39","6","6","6","6","4","3","2","4","4","3","4","1","0","1","0","-1","1","1","1","4","5","5","5","4","3","4","4","5","4","8","6","7","9","5","6","9","5","6","6","6","7","7","6","3","7","1","4","5","1","7","4","6","7","5","7","5","4","7","6","2","7","2","2","1","6","7","7","7","7","7","7","2","4","2","7","7","7","3","7","755482622574202882","陈","291","Male","[""好我"",""好他"",""坏他"",""坏我""]","[""强我"",""强他"",""弱他"",""弱我""]","","","","","","","","nonmatch","","","","","","","","","","key","f","6.9447272727272304","853.3333333333334","476","f","true","nonmatch","img/square.png","好我","坏我","prac_ALT2_moral","practice_moral","","","","","","","","",""
"null","<span style='color:GreenYellow; font-size: 70px;'>正确! </span>","null","html-keyboard-response","89","309853","0.0-8.0-0.0-1.0-0.0-1.39","6","6","6","6","4","3","2","4","4","3","4","1","0","1","0","-1","1","1","1","4","5","5","5","4","3","4","4","5","4","8","6","7","9","5","6","9","5","6","6","6","7","7","6","3","7","1","4","5","1","7","4","6","7","5","7","5","4","7","6","2","7","2","2","1","6","7","7","7","7","7","7","2","4","2","7","7","7","3","7","755482622574202882","陈","291","Male","[""好我"",""好他"",""坏他"",""坏我""]","[""强我"",""强他"",""弱他"",""弱我""]","","","","","","","","","","","","","","","","","","","","","","","","","","","","","","feedback_test","","","","","","","","",""
"1045","","f","psychophysics","90","311898","0.0-8.0-0.0-1.0-0.0-0.40","6","6","6","6","4","3","2","4","4","3","4","1","0","1","0","-1","1","1","1","4","5","5","5","4","3","4","4","5","4","8","6","7","9","5","6","9","5","6","6","6","7","7","6","3","7","1","4","5","1","7","4","6","7","5","7","5","4","7","6","2","7","2","2","1","6","7","7","7","7","7","7","2","4","2","7","7","7","3","7","755482622574202882","陈","291","Male","[""好我"",""好他"",""坏他"",""坏我""]","[""强我"",""强他"",""弱他"",""弱我""]","","","","","","","","nonmatch","","","","","","","","","","key","f","6.944368600682435","853.3333333333334","476","f","true","nonmatch","img/ellipse.png","好他","坏他","prac_ALT2_moral","practice_moral","","","","","","","","",""
"null","<span style='color:GreenYellow; font-size: 70px;'>正确! </span>","null","html-keyboard-response","91","312398","0.0-8.0-0.0-1.0-0.0-1.40","6","6","6","6","4","3","2","4","4","3","4","1","0","1","0","-1","1","1","1","4","5","5","5","4","3","4","4","5","4","8","6","7","9","5","6","9","5","6","6","6","7","7","6","3","7","1","4","5","1","7","4","6","7","5","7","5","4","7","6","2","7","2","2","1","6","7","7","7","7","7","7","2","4","2","7","7","7","3","7","755482622574202882","陈","291","Male","[""好我"",""好他"",""坏他"",""坏我""]","[""强我"",""强他"",""弱他"",""弱我""]","","","","","","","","","","","","","","","","","","","","","","","","","","","","","","feedback_test","","","","","","","","",""
"953","","f","psychophysics","92","314352","0.0-8.0-0.0-1.0-0.0-0.41","6","6","6","6","4","3","2","4","4","3","4","1","0","1","0","-1","1","1","1","4","5","5","5","4","3","4","4","5","4","8","6","7","9","5","6","9","5","6","6","6","7","7","6","3","7","1","4","5","1","7","4","6","7","5","7","5","4","7","6","2","7","2","2","1","6","7","7","7","7","7","7","2","4","2","7","7","7","3","7","755482622574202882","陈","291","Male","[""好我"",""好他"",""坏他"",""坏我""]","[""强我"",""强他"",""弱他"",""弱我""]","","","","","","","","nonmatch","","","","","","","","","","key","f","6.944285714285797","853.3333333333334","476","f","true","nonmatch","img/square.png","好他","坏我","prac_ALT2_moral","practice_moral","","","","","","","","",""
"null","<span style='color:GreenYellow; font-size: 70px;'>正确! </span>","null","html-keyboard-response","93","314853","0.0-8.0-0.0-1.0-0.0-1.41","6","6","6","6","4","3","2","4","4","3","4","1","0","1","0","-1","1","1","1","4","5","5","5","4","3","4","4","5","4","8","6","7","9","5","6","9","5","6","6","6","7","7","6","3","7","1","4","5","1","7","4","6","7","5","7","5","4","7","6","2","7","2","2","1","6","7","7","7","7","7","7","2","4","2","7","7","7","3","7","755482622574202882","陈","291","Male","[""好我"",""好他"",""坏他"",""坏我""]","[""强我"",""强他"",""弱他"",""弱我""]","","","","","","","","","","","","","","","","","","","","","","","","","","","","","","feedback_test","","","","","","","","",""
"981","","j","psychophysics","94","316835","0.0-8.0-0.0-1.0-0.0-0.42","6","6","6","6","4","3","2","4","4","3","4","1","0","1","0","-1","1","1","1","4","5","5","5","4","3","4","4","5","4","8","6","7","9","5","6","9","5","6","6","6","7","7","6","3","7","1","4","5","1","7","4","6","7","5","7","5","4","7","6","2","7","2","2","1","6","7","7","7","7","7","7","2","4","2","7","7","7","3","7","755482622574202882","陈","291","Male","[""好我"",""好他"",""坏他"",""坏我""]","[""强我"",""强他"",""弱他"",""弱我""]","","","","","","","","match","","","","","","","","","","key","j","6.944014084506961","853.3333333333334","476","j","true","match","img/square.png","坏我","坏我","prac_ALT2_moral","practice_moral","","","","","","","","",""
"null","<span style='color:GreenYellow; font-size: 70px;'>正确! </span>","null","html-keyboard-response","95","317336","0.0-8.0-0.0-1.0-0.0-1.42","6","6","6","6","4","3","2","4","4","3","4","1","0","1","0","-1","1","1","1","4","5","5","5","4","3","4","4","5","4","8","6","7","9","5","6","9","5","6","6","6","7","7","6","3","7","1","4","5","1","7","4","6","7","5","7","5","4","7","6","2","7","2","2","1","6","7","7","7","7","7","7","2","4","2","7","7","7","3","7","755482622574202882","陈","291","Male","[""好我"",""好他"",""坏他"",""坏我""]","[""强我"",""强他"",""弱他"",""弱我""]","","","","","","","","","","","","","","","","","","","","","","","","","","","","","","feedback_test","","","","","","","","",""
"682","","f","psychophysics","96","319021","0.0-8.0-0.0-1.0-0.0-0.43","6","6","6","6","4","3","2","4","4","3","4","1","0","1","0","-1","1","1","1","4","5","5","5","4","3","4","4","5","4","8","6","7","9","5","6","9","5","6","6","6","7","7","6","3","7","1","4","5","1","7","4","6","7","5","7","5","4","7","6","2","7","2","2","1","6","7","7","7","7","7","7","2","4","2","7","7","7","3","7","755482622574202882","陈","291","Male","[""好我"",""好他"",""坏他"",""坏我""]","[""强我"",""强他"",""弱他"",""弱我""]","","","","","","","","nonmatch","","","","","","","","","","key","f","6.945041322314098","853.3333333333334","476","j","false","match","img/hexagon.png","好他","好他","prac_ALT2_moral","practice_moral","","","","","","","","",""
"null","<span style='color:red; font-size: 70px;'>错误! </span>","null","html-keyboard-response","97","319523","0.0-8.0-0.0-1.0-0.0-1.43","6","6","6","6","4","3","2","4","4","3","4","1","0","1","0","-1","1","1","1","4","5","5","5","4","3","4","4","5","4","8","6","7","9","5","6","9","5","6","6","6","7","7","6","3","7","1","4","5","1","7","4","6","7","5","7","5","4","7","6","2","7","2","2","1","6","7","7","7","7","7","7","2","4","2","7","7","7","3","7","755482622574202882","陈","291","Male","[""好我"",""好他"",""坏他"",""坏我""]","[""强我"",""强他"",""弱他"",""弱我""]","","","","","","","","","","","","","","","","","","","","","","","","","","","","","","feedback_test","","","","","","","","",""
"777","","f","psychophysics","98","321300","0.0-8.0-0.0-1.0-0.0-0.44","6","6","6","6","4","3","2","4","4","3","4","1","0","1","0","-1","1","1","1","4","5","5","5","4","3","4","4","5","4","8","6","7","9","5","6","9","5","6","6","6","7","7","6","3","7","1","4","5","1","7","4","6","7","5","7","5","4","7","6","2","7","2","2","1","6","7","7","7","7","7","7","2","4","2","7","7","7","3","7","755482622574202882","陈","291","Male","[""好我"",""好他"",""坏他"",""坏我""]","[""强我"",""强他"",""弱他"",""弱我""]","","","","","","","","nonmatch","","","","","","","","","","key","f","6.944313725490151","853.3333333333334","476","f","true","nonmatch","img/ellipse.png","好我","坏他","prac_ALT2_moral","practice_moral","","","","","","","","",""
"null","<span style='color:GreenYellow; font-size: 70px;'>正确! </span>","null","html-keyboard-response","99","321801","0.0-8.0-0.0-1.0-0.0-1.44","6","6","6","6","4","3","2","4","4","3","4","1","0","1","0","-1","1","1","1","4","5","5","5","4","3","4","4","5","4","8","6","7","9","5","6","9","5","6","6","6","7","7","6","3","7","1","4","5","1","7","4","6","7","5","7","5","4","7","6","2","7","2","2","1","6","7","7","7","7","7","7","2","4","2","7","7","7","3","7","755482622574202882","陈","291","Male","[""好我"",""好他"",""坏他"",""坏我""]","[""强我"",""强他"",""弱他"",""弱我""]","","","","","","","","","","","","","","","","","","","","","","","","","","","","","","feedback_test","","","","","","","","",""
"717","","j","psychophysics","100","323519","0.0-8.0-0.0-1.0-0.0-0.45","6","6","6","6","4","3","2","4","4","3","4","1","0","1","0","-1","1","1","1","4","5","5","5","4","3","4","4","5","4","8","6","7","9","5","6","9","5","6","6","6","7","7","6","3","7","1","4","5","1","7","4","6","7","5","7","5","4","7","6","2","7","2","2","1","6","7","7","7","7","7","7","2","4","2","7","7","7","3","7","755482622574202882","陈","291","Male","[""好我"",""好他"",""坏他"",""坏我""]","[""强我"",""强他"",""弱他"",""弱我""]","","","","","","","","match","","","","","","","","","","key","j","6.945121951219512","853.3333333333334","476","j","true","match","img/trapezoid.png","好我","好我","prac_ALT2_moral","practice_moral","","","","","","","","",""
"null","<span style='color:GreenYellow; font-size: 70px;'>正确! </span>","null","html-keyboard-response","101","324020","0.0-8.0-0.0-1.0-0.0-1.45","6","6","6","6","4","3","2","4","4","3","4","1","0","1","0","-1","1","1","1","4","5","5","5","4","3","4","4","5","4","8","6","7","9","5","6","9","5","6","6","6","7","7","6","3","7","1","4","5","1","7","4","6","7","5","7","5","4","7","6","2","7","2","2","1","6","7","7","7","7","7","7","2","4","2","7","7","7","3","7","755482622574202882","陈","291","Male","[""好我"",""好他"",""坏他"",""坏我""]","[""强我"",""强他"",""弱他"",""弱我""]","","","","","","","","","","","","","","","","","","","","","","","","","","","","","","feedback_test","","","","","","","","",""
"721","","f","psychophysics","102","325742","0.0-8.0-0.0-1.0-0.0-0.46","6","6","6","6","4","3","2","4","4","3","4","1","0","1","0","-1","1","1","1","4","5","5","5","4","3","4","4","5","4","8","6","7","9","5","6","9","5","6","6","6","7","7","6","3","7","1","4","5","1","7","4","6","7","5","7","5","4","7","6","2","7","2","2","1","6","7","7","7","7","7","7","2","4","2","7","7","7","3","7","755482622574202882","陈","291","Male","[""好我"",""好他"",""坏他"",""坏我""]","[""强我"",""强他"",""弱他"",""弱我""]","","","","","","","","nonmatch","","","","","","","","","","key","f","6.944715447154566","853.3333333333334","476","f","true","nonmatch","img/hexagon.png","坏我","好他","prac_ALT2_moral","practice_moral","","","","","","","","",""
"null","<span style='color:GreenYellow; font-size: 70px;'>正确! </span>","null","html-keyboard-response","103","326244","0.0-8.0-0.0-1.0-0.0-1.46","6","6","6","6","4","3","2","4","4","3","4","1","0","1","0","-1","1","1","1","4","5","5","5","4","3","4","4","5","4","8","6","7","9","5","6","9","5","6","6","6","7","7","6","3","7","1","4","5","1","7","4","6","7","5","7","5","4","7","6","2","7","2","2","1","6","7","7","7","7","7","7","2","4","2","7","7","7","3","7","755482622574202882","陈","291","Male","[""好我"",""好他"",""坏他"",""坏我""]","[""强我"",""强他"",""弱他"",""弱我""]","","","","","","","","","","","","","","","","","","","","","","","","","","","","","","feedback_test","","","","","","","","",""
"802","","j","psychophysics","104","328048","0.0-8.0-0.0-1.0-0.0-0.47","6","6","6","6","4","3","2","4","4","3","4","1","0","1","0","-1","1","1","1","4","5","5","5","4","3","4","4","5","4","8","6","7","9","5","6","9","5","6","6","6","7","7","6","3","7","1","4","5","1","7","4","6","7","5","7","5","4","7","6","2","7","2","2","1","6","7","7","7","7","7","7","2","4","2","7","7","7","3","7","755482622574202882","陈","291","Male","[""好我"",""好他"",""坏他"",""坏我""]","[""强我"",""强他"",""弱他"",""弱我""]","","","","","","","","match","","","","","","","","","","key","j","6.944015444015444","853.3333333333334","476","f","false","nonmatch","img/hexagon.png","好我","好他","prac_ALT2_moral","practice_moral","","","","","","","","",""
"null","<span style='color:red; font-size: 70px;'>错误! </span>","null","html-keyboard-response","105","328549","0.0-8.0-0.0-1.0-0.0-1.47","6","6","6","6","4","3","2","4","4","3","4","1","0","1","0","-1","1","1","1","4","5","5","5","4","3","4","4","5","4","8","6","7","9","5","6","9","5","6","6","6","7","7","6","3","7","1","4","5","1","7","4","6","7","5","7","5","4","7","6","2","7","2","2","1","6","7","7","7","7","7","7","2","4","2","7","7","7","3","7","755482622574202882","陈","291","Male","[""好我"",""好他"",""坏他"",""坏我""]","[""强我"",""强他"",""弱他"",""弱我""]","","","","","","","","","","","","","","","","","","","","","","","","","","","","","","feedback_test","","","","","","","","",""
"6444","<style>.context{color:white; font-size: 35px; line-height:40px}</style>                            <div><p class='context'>您正确回答了75% 的试次。</p><p class='context'>您的平均反应时为855毫秒。</p><p class='context'>恭喜您完成练习。按空格键进入正式实验。</p><p class='footer' style='font-size: 35px; line-height:40px;'>请在进入正式实验实验之前将您的<span style='color: lightgreen;'>食指</span>放在电脑键盘的相应键位上进行按键。</p>"," ","html-keyboard-response","106","334994","0.0-8.0-0.0-2.0","6","6","6","6","4","3","2","4","4","3","4","1","0","1","0","-1","1","1","1","4","5","5","5","4","3","4","4","5","4","8","6","7","9","5","6","9","5","6","6","6","7","7","6","3","7","1","4","5","1","7","4","6","7","5","7","5","4","7","6","2","7","2","2","1","6","7","7","7","7","7","7","2","4","2","7","7","7","3","7","755482622574202882","陈","291","Male","[""好我"",""好他"",""坏他"",""坏我""]","[""强我"",""强他"",""弱他"",""弱我""]","","","","","","","","","","","","","","","","","","","","","","","","","","","","","","","","","","","","","","",""
"1838","
    <p style='color: white; font-size: 22px'>请您将手指放在按键上，准备进入正式的匹配任务。</p>
    <p> <div style = ""color: green""><按空格键进入下一阶段的匹配任务></div></p>
    "," ","html-keyboard-response","107","336834","0.0-8.0-0.0-3.0","6","6","6","6","4","3","2","4","4","3","4","1","0","1","0","-1","1","1","1","4","5","5","5","4","3","4","4","5","4","8","6","7","9","5","6","9","5","6","6","6","7","7","6","3","7","1","4","5","1","7","4","6","7","5","7","5","4","7","6","2","7","2","2","1","6","7","7","7","7","7","7","2","4","2","7","7","7","3","7","755482622574202882","陈","291","Male","[""好我"",""好他"",""坏他"",""坏我""]","[""强我"",""强他"",""弱他"",""弱我""]","","","","","","","","","","","","","","","","","","","","","","","","","","","","","","","","","","","","","","",""
"712","","f","psychophysics","108","338548","0.0-8.0-0.0-4.0-0.0-0.0","6","6","6","6","4","3","2","4","4","3","4","1","0","1","0","-1","1","1","1","4","5","5","5","4","3","4","4","5","4","8","6","7","9","5","6","9","5","6","6","6","7","7","6","3","7","1","4","5","1","7","4","6","7","5","7","5","4","7","6","2","7","2","2","1","6","7","7","7","7","7","7","2","4","2","7","7","7","3","7","755482622574202882","陈","291","Male","[""好我"",""好他"",""坏他"",""坏我""]","[""强我"",""强他"",""弱他"",""弱我""]","","","","","","","","nonmatch","","","","","","","","","","key","f","6.944897959183673","853.3333333333334","476","f","true","nonmatch","img/ellipse.png","好我","坏他","ALT2","moral","","","","","","","","",""
"null","<span style='color:GreenYellow; font-size: 70px;'>正确! </span>","null","html-keyboard-response","109","339048","0.0-8.0-0.0-4.0-0.0-1.0","6","6","6","6","4","3","2","4","4","3","4","1","0","1","0","-1","1","1","1","4","5","5","5","4","3","4","4","5","4","8","6","7","9","5","6","9","5","6","6","6","7","7","6","3","7","1","4","5","1","7","4","6","7","5","7","5","4","7","6","2","7","2","2","1","6","7","7","7","7","7","7","2","4","2","7","7","7","3","7","755482622574202882","陈","291","Male","[""好我"",""好他"",""坏他"",""坏我""]","[""强我"",""强他"",""弱他"",""弱我""]","","","","","","","","","","","","","","","","","","","","","","","","","","","","","","feedback_test","","","","","","","","",""
"920","","f","psychophysics","110","340970","0.0-8.0-0.0-4.0-0.0-0.1","6","6","6","6","4","3","2","4","4","3","4","1","0","1","0","-1","1","1","1","4","5","5","5","4","3","4","4","5","4","8","6","7","9","5","6","9","5","6","6","6","7","7","6","3","7","1","4","5","1","7","4","6","7","5","7","5","4","7","6","2","7","2","2","1","6","7","7","7","7","7","7","2","4","2","7","7","7","3","7","755482622574202882","陈","291","Male","[""好我"",""好他"",""坏他"",""坏我""]","[""强我"",""强他"",""弱他"",""弱我""]","","","","","","","","nonmatch","","","","","","","","","","key","f","6.944363636363678","853.3333333333334","476","f","true","nonmatch","img/square.png","好他","坏我","ALT2","moral","","","","","","","","",""
"null","<span style='color:GreenYellow; font-size: 70px;'>正确! </span>","null","html-keyboard-response","111","341471","0.0-8.0-0.0-4.0-0.0-1.1","6","6","6","6","4","3","2","4","4","3","4","1","0","1","0","-1","1","1","1","4","5","5","5","4","3","4","4","5","4","8","6","7","9","5","6","9","5","6","6","6","7","7","6","3","7","1","4","5","1","7","4","6","7","5","7","5","4","7","6","2","7","2","2","1","6","7","7","7","7","7","7","2","4","2","7","7","7","3","7","755482622574202882","陈","291","Male","[""好我"",""好他"",""坏他"",""坏我""]","[""强我"",""强他"",""弱他"",""弱我""]","","","","","","","","","","","","","","","","","","","","","","","","","","","","","","feedback_test","","","","","","","","",""
"760","","f","psychophysics","112","343231","0.0-8.0-0.0-4.0-0.0-0.2","6","6","6","6","4","3","2","4","4","3","4","1","0","1","0","-1","1","1","1","4","5","5","5","4","3","4","4","5","4","8","6","7","9","5","6","9","5","6","6","6","7","7","6","3","7","1","4","5","1","7","4","6","7","5","7","5","4","7","6","2","7","2","2","1","6","7","7","7","7","7","7","2","4","2","7","7","7","3","7","755482622574202882","陈","291","Male","[""好我"",""好他"",""坏他"",""坏我""]","[""强我"",""强他"",""弱他"",""弱我""]","","","","","","","","nonmatch","","","","","","","","","","key","f","6.944444444444445","853.3333333333334","476","f","true","nonmatch","img/trapezoid.png","好他","好我","ALT2","moral","","","","","","","","",""
"null","<span style='color:GreenYellow; font-size: 70px;'>正确! </span>","null","html-keyboard-response","113","343734","0.0-8.0-0.0-4.0-0.0-1.2","6","6","6","6","4","3","2","4","4","3","4","1","0","1","0","-1","1","1","1","4","5","5","5","4","3","4","4","5","4","8","6","7","9","5","6","9","5","6","6","6","7","7","6","3","7","1","4","5","1","7","4","6","7","5","7","5","4","7","6","2","7","2","2","1","6","7","7","7","7","7","7","2","4","2","7","7","7","3","7","755482622574202882","陈","291","Male","[""好我"",""好他"",""坏他"",""坏我""]","[""强我"",""强他"",""弱他"",""弱我""]","","","","","","","","","","","","","","","","","","","","","","","","","","","","","","feedback_test","","","","","","","","",""
"693","","j","psychophysics","114","345429","0.0-8.0-0.0-4.0-0.0-0.3","6","6","6","6","4","3","2","4","4","3","4","1","0","1","0","-1","1","1","1","4","5","5","5","4","3","4","4","5","4","8","6","7","9","5","6","9","5","6","6","6","7","7","6","3","7","1","4","5","1","7","4","6","7","5","7","5","4","7","6","2","7","2","2","1","6","7","7","7","7","7","7","2","4","2","7","7","7","3","7","755482622574202882","陈","291","Male","[""好我"",""好他"",""坏他"",""坏我""]","[""强我"",""强他"",""弱他"",""弱我""]","","","","","","","","match","","","","","","","","","","key","j","6.940082644628099","853.3333333333334","476","j","true","match","img/trapezoid.png","好我","好我","ALT2","moral","","","","","","","","",""
"null","<span style='color:GreenYellow; font-size: 70px;'>正确! </span>","null","html-keyboard-response","115","345929","0.0-8.0-0.0-4.0-0.0-1.3","6","6","6","6","4","3","2","4","4","3","4","1","0","1","0","-1","1","1","1","4","5","5","5","4","3","4","4","5","4","8","6","7","9","5","6","9","5","6","6","6","7","7","6","3","7","1","4","5","1","7","4","6","7","5","7","5","4","7","6","2","7","2","2","1","6","7","7","7","7","7","7","2","4","2","7","7","7","3","7","755482622574202882","陈","291","Male","[""好我"",""好他"",""坏他"",""坏我""]","[""强我"",""强他"",""弱他"",""弱我""]","","","","","","","","","","","","","","","","","","","","","","","","","","","","","","feedback_test","","","","","","","","",""
"702","","j","psychophysics","116","347632","0.0-8.0-0.0-4.0-0.0-0.4","6","6","6","6","4","3","2","4","4","3","4","1","0","1","0","-1","1","1","1","4","5","5","5","4","3","4","4","5","4","8","6","7","9","5","6","9","5","6","6","6","7","7","6","3","7","1","4","5","1","7","4","6","7","5","7","5","4","7","6","2","7","2","2","1","6","7","7","7","7","7","7","2","4","2","7","7","7","3","7","755482622574202882","陈","291","Male","[""好我"",""好他"",""坏他"",""坏我""]","[""强我"",""强他"",""弱他"",""弱我""]","","","","","","","","match","","","","","","","","","","key","j","6.9438524590163455","853.3333333333334","476","j","true","match","img/square.png","坏我","坏我","ALT2","moral","","","","","","","","",""
"null","<span style='color:GreenYellow; font-size: 70px;'>正确! </span>","null","html-keyboard-response","117","348133","0.0-8.0-0.0-4.0-0.0-1.4","6","6","6","6","4","3","2","4","4","3","4","1","0","1","0","-1","1","1","1","4","5","5","5","4","3","4","4","5","4","8","6","7","9","5","6","9","5","6","6","6","7","7","6","3","7","1","4","5","1","7","4","6","7","5","7","5","4","7","6","2","7","2","2","1","6","7","7","7","7","7","7","2","4","2","7","7","7","3","7","755482622574202882","陈","291","Male","[""好我"",""好他"",""坏他"",""坏我""]","[""强我"",""强他"",""弱他"",""弱我""]","","","","","","","","","","","","","","","","","","","","","","","","","","","","","","feedback_test","","","","","","","","",""
"707","","j","psychophysics","118","349842","0.0-8.0-0.0-4.0-0.0-0.5","6","6","6","6","4","3","2","4","4","3","4","1","0","1","0","-1","1","1","1","4","5","5","5","4","3","4","4","5","4","8","6","7","9","5","6","9","5","6","6","6","7","7","6","3","7","1","4","5","1","7","4","6","7","5","7","5","4","7","6","2","7","2","2","1","6","7","7","7","7","7","7","2","4","2","7","7","7","3","7","755482622574202882","陈","291","Male","[""好我"",""好他"",""坏他"",""坏我""]","[""强我"",""强他"",""弱他"",""弱我""]","","","","","","","","match","","","","","","","","","","key","j","6.944897959183673","853.3333333333334","476","j","true","match","img/trapezoid.png","好我","好我","ALT2","moral","","","","","","","","",""
"null","<span style='color:GreenYellow; font-size: 70px;'>正确! </span>","null","html-keyboard-response","119","350344","0.0-8.0-0.0-4.0-0.0-1.5","6","6","6","6","4","3","2","4","4","3","4","1","0","1","0","-1","1","1","1","4","5","5","5","4","3","4","4","5","4","8","6","7","9","5","6","9","5","6","6","6","7","7","6","3","7","1","4","5","1","7","4","6","7","5","7","5","4","7","6","2","7","2","2","1","6","7","7","7","7","7","7","2","4","2","7","7","7","3","7","755482622574202882","陈","291","Male","[""好我"",""好他"",""坏他"",""坏我""]","[""强我"",""强他"",""弱他"",""弱我""]","","","","","","","","","","","","","","","","","","","","","","","","","","","","","","feedback_test","","","","","","","","",""
"779","","f","psychophysics","120","352125","0.0-8.0-0.0-4.0-0.0-0.6","6","6","6","6","4","3","2","4","4","3","4","1","0","1","0","-1","1","1","1","4","5","5","5","4","3","4","4","5","4","8","6","7","9","5","6","9","5","6","6","6","7","7","6","3","7","1","4","5","1","7","4","6","7","5","7","5","4","7","6","2","7","2","2","1","6","7","7","7","7","7","7","2","4","2","7","7","7","3","7","755482622574202882","陈","291","Male","[""好我"",""好他"",""坏他"",""坏我""]","[""强我"",""强他"",""弱他"",""弱我""]","","","","","","","","nonmatch","","","","","","","","","","key","f","6.9441406250000455","853.3333333333334","476","f","true","nonmatch","img/hexagon.png","坏我","好他","ALT2","moral","","","","","","","","",""
"null","<span style='color:GreenYellow; font-size: 70px;'>正确! </span>","null","html-keyboard-response","121","352627","0.0-8.0-0.0-4.0-0.0-1.6","6","6","6","6","4","3","2","4","4","3","4","1","0","1","0","-1","1","1","1","4","5","5","5","4","3","4","4","5","4","8","6","7","9","5","6","9","5","6","6","6","7","7","6","3","7","1","4","5","1","7","4","6","7","5","7","5","4","7","6","2","7","2","2","1","6","7","7","7","7","7","7","2","4","2","7","7","7","3","7","755482622574202882","陈","291","Male","[""好我"",""好他"",""坏他"",""坏我""]","[""强我"",""强他"",""弱他"",""弱我""]","","","","","","","","","","","","","","","","","","","","","","","","","","","","","","feedback_test","","","","","","","","",""
"944","","j","psychophysics","122","354572","0.0-8.0-0.0-4.0-0.0-0.7","6","6","6","6","4","3","2","4","4","3","4","1","0","1","0","-1","1","1","1","4","5","5","5","4","3","4","4","5","4","8","6","7","9","5","6","9","5","6","6","6","7","7","6","3","7","1","4","5","1","7","4","6","7","5","7","5","4","7","6","2","7","2","2","1","6","7","7","7","7","7","7","2","4","2","7","7","7","3","7","755482622574202882","陈","291","Male","[""好我"",""好他"",""坏他"",""坏我""]","[""强我"",""强他"",""弱他"",""弱我""]","","","","","","","","match","","","","","","","","","","key","j","6.944802867383429","853.3333333333334","476","j","true","match","img/ellipse.png","坏他","坏他","ALT2","moral","","","","","","","","",""
"null","<span style='color:GreenYellow; font-size: 70px;'>正确! </span>","null","html-keyboard-response","123","355072","0.0-8.0-0.0-4.0-0.0-1.7","6","6","6","6","4","3","2","4","4","3","4","1","0","1","0","-1","1","1","1","4","5","5","5","4","3","4","4","5","4","8","6","7","9","5","6","9","5","6","6","6","7","7","6","3","7","1","4","5","1","7","4","6","7","5","7","5","4","7","6","2","7","2","2","1","6","7","7","7","7","7","7","2","4","2","7","7","7","3","7","755482622574202882","陈","291","Male","[""好我"",""好他"",""坏他"",""坏我""]","[""强我"",""强他"",""弱他"",""弱我""]","","","","","","","","","","","","","","","","","","","","","","","","","","","","","","feedback_test","","","","","","","","",""
"929","","f","psychophysics","124","357003","0.0-8.0-0.0-4.0-0.0-0.8","6","6","6","6","4","3","2","4","4","3","4","1","0","1","0","-1","1","1","1","4","5","5","5","4","3","4","4","5","4","8","6","7","9","5","6","9","5","6","6","6","7","7","6","3","7","1","4","5","1","7","4","6","7","5","7","5","4","7","6","2","7","2","2","1","6","7","7","7","7","7","7","2","4","2","7","7","7","3","7","755482622574202882","陈","291","Male","[""好我"",""好他"",""坏他"",""坏我""]","[""强我"",""强他"",""弱他"",""弱我""]","","","","","","","","nonmatch","","","","","","","","","","key","f","6.94440433212988","853.3333333333334","476","f","true","nonmatch","img/square.png","好我","坏我","ALT2","moral","","","","","","","","",""
"null","<span style='color:GreenYellow; font-size: 70px;'>正确! </span>","null","html-keyboard-response","125","357504","0.0-8.0-0.0-4.0-0.0-1.8","6","6","6","6","4","3","2","4","4","3","4","1","0","1","0","-1","1","1","1","4","5","5","5","4","3","4","4","5","4","8","6","7","9","5","6","9","5","6","6","6","7","7","6","3","7","1","4","5","1","7","4","6","7","5","7","5","4","7","6","2","7","2","2","1","6","7","7","7","7","7","7","2","4","2","7","7","7","3","7","755482622574202882","陈","291","Male","[""好我"",""好他"",""坏他"",""坏我""]","[""强我"",""强他"",""弱他"",""弱我""]","","","","","","","","","","","","","","","","","","","","","","","","","","","","","","feedback_test","","","","","","","","",""
"947","","j","psychophysics","126","359452","0.0-8.0-0.0-4.0-0.0-0.9","6","6","6","6","4","3","2","4","4","3","4","1","0","1","0","-1","1","1","1","4","5","5","5","4","3","4","4","5","4","8","6","7","9","5","6","9","5","6","6","6","7","7","6","3","7","1","4","5","1","7","4","6","7","5","7","5","4","7","6","2","7","2","2","1","6","7","7","7","7","7","7","2","4","2","7","7","7","3","7","755482622574202882","陈","291","Male","[""好我"",""好他"",""坏他"",""坏我""]","[""强我"",""强他"",""弱他"",""弱我""]","","","","","","","","match","","","","","","","","","","key","j","6.945357142857184","853.3333333333334","476","j","true","match","img/square.png","坏我","坏我","ALT2","moral","","","","","","","","",""
"null","<span style='color:GreenYellow; font-size: 70px;'>正确! </span>","null","html-keyboard-response","127","359955","0.0-8.0-0.0-4.0-0.0-1.9","6","6","6","6","4","3","2","4","4","3","4","1","0","1","0","-1","1","1","1","4","5","5","5","4","3","4","4","5","4","8","6","7","9","5","6","9","5","6","6","6","7","7","6","3","7","1","4","5","1","7","4","6","7","5","7","5","4","7","6","2","7","2","2","1","6","7","7","7","7","7","7","2","4","2","7","7","7","3","7","755482622574202882","陈","291","Male","[""好我"",""好他"",""坏他"",""坏我""]","[""强我"",""强他"",""弱他"",""弱我""]","","","","","","","","","","","","","","","","","","","","","","","","","","","","","","feedback_test","","","","","","","","",""
"965","","f","psychophysics","128","361921","0.0-8.0-0.0-4.0-0.0-0.10","6","6","6","6","4","3","2","4","4","3","4","1","0","1","0","-1","1","1","1","4","5","5","5","4","3","4","4","5","4","8","6","7","9","5","6","9","5","6","6","6","7","7","6","3","7","1","4","5","1","7","4","6","7","5","7","5","4","7","6","2","7","2","2","1","6","7","7","7","7","7","7","2","4","2","7","7","7","3","7","755482622574202882","陈","291","Male","[""好我"",""好他"",""坏他"",""坏我""]","[""强我"",""强他"",""弱他"",""弱我""]","","","","","","","","nonmatch","","","","","","","","","","key","f","6.944326241134711","853.3333333333334","476","j","false","match","img/square.png","坏我","坏我","ALT2","moral","","","","","","","","",""
"null","<span style='color:red; font-size: 70px;'>错误! </span>","null","html-keyboard-response","129","362423","0.0-8.0-0.0-4.0-0.0-1.10","6","6","6","6","4","3","2","4","4","3","4","1","0","1","0","-1","1","1","1","4","5","5","5","4","3","4","4","5","4","8","6","7","9","5","6","9","5","6","6","6","7","7","6","3","7","1","4","5","1","7","4","6","7","5","7","5","4","7","6","2","7","2","2","1","6","7","7","7","7","7","7","2","4","2","7","7","7","3","7","755482622574202882","陈","291","Male","[""好我"",""好他"",""坏他"",""坏我""]","[""强我"",""强他"",""弱他"",""弱我""]","","","","","","","","","","","","","","","","","","","","","","","","","","","","","","feedback_test","","","","","","","","",""
"1050","","f","psychophysics","130","364475","0.0-8.0-0.0-4.0-0.0-0.11","6","6","6","6","4","3","2","4","4","3","4","1","0","1","0","-1","1","1","1","4","5","5","5","4","3","4","4","5","4","8","6","7","9","5","6","9","5","6","6","6","7","7","6","3","7","1","4","5","1","7","4","6","7","5","7","5","4","7","6","2","7","2","2","1","6","7","7","7","7","7","7","2","4","2","7","7","7","3","7","755482622574202882","陈","291","Male","[""好我"",""好他"",""坏他"",""坏我""]","[""强我"",""强他"",""弱他"",""弱我""]","","","","","","","","nonmatch","","","","","","","","","","key","f","6.9445578231292915","853.3333333333334","476","f","true","nonmatch","img/hexagon.png","坏他","好他","ALT2","moral","","","","","","","","",""
"null","<span style='color:GreenYellow; font-size: 70px;'>正确! </span>","null","html-keyboard-response","131","364977","0.0-8.0-0.0-4.0-0.0-1.11","6","6","6","6","4","3","2","4","4","3","4","1","0","1","0","-1","1","1","1","4","5","5","5","4","3","4","4","5","4","8","6","7","9","5","6","9","5","6","6","6","7","7","6","3","7","1","4","5","1","7","4","6","7","5","7","5","4","7","6","2","7","2","2","1","6","7","7","7","7","7","7","2","4","2","7","7","7","3","7","755482622574202882","陈","291","Male","[""好我"",""好他"",""坏他"",""坏我""]","[""强我"",""强他"",""弱他"",""弱我""]","","","","","","","","","","","","","","","","","","","","","","","","","","","","","","feedback_test","","","","","","","","",""
"981","","j","psychophysics","132","366959","0.0-8.0-0.0-4.0-0.0-0.12","6","6","6","6","4","3","2","4","4","3","4","1","0","1","0","-1","1","1","1","4","5","5","5","4","3","4","4","5","4","8","6","7","9","5","6","9","5","6","6","6","7","7","6","3","7","1","4","5","1","7","4","6","7","5","7","5","4","7","6","2","7","2","2","1","6","7","7","7","7","7","7","2","4","2","7","7","7","3","7","755482622574202882","陈","291","Male","[""好我"",""好他"",""坏他"",""坏我""]","[""强我"",""强他"",""弱他"",""弱我""]","","","","","","","","match","","","","","","","","","","key","j","6.943661971830986","853.3333333333334","476","j","true","match","img/hexagon.png","好他","好他","ALT2","moral","","","","","","","","",""
"null","<span style='color:GreenYellow; font-size: 70px;'>正确! </span>","null","html-keyboard-response","133","367460","0.0-8.0-0.0-4.0-0.0-1.12","6","6","6","6","4","3","2","4","4","3","4","1","0","1","0","-1","1","1","1","4","5","5","5","4","3","4","4","5","4","8","6","7","9","5","6","9","5","6","6","6","7","7","6","3","7","1","4","5","1","7","4","6","7","5","7","5","4","7","6","2","7","2","2","1","6","7","7","7","7","7","7","2","4","2","7","7","7","3","7","755482622574202882","陈","291","Male","[""好我"",""好他"",""坏他"",""坏我""]","[""强我"",""强他"",""弱他"",""弱我""]","","","","","","","","","","","","","","","","","","","","","","","","","","","","","","feedback_test","","","","","","","","",""
"789","","j","psychophysics","134","369250","0.0-8.0-0.0-4.0-0.0-0.13","6","6","6","6","4","3","2","4","4","3","4","1","0","1","0","-1","1","1","1","4","5","5","5","4","3","4","4","5","4","8","6","7","9","5","6","9","5","6","6","6","7","7","6","3","7","1","4","5","1","7","4","6","7","5","7","5","4","7","6","2","7","2","2","1","6","7","7","7","7","7","7","2","4","2","7","7","7","3","7","755482622574202882","陈","291","Male","[""好我"",""好他"",""坏他"",""坏我""]","[""强我"",""强他"",""弱他"",""弱我""]","","","","","","","","match","","","","","","","","","","key","j","6.944747081712017","853.3333333333334","476","j","true","match","img/trapezoid.png","好我","好我","ALT2","moral","","","","","","","","",""
"null","<span style='color:GreenYellow; font-size: 70px;'>正确! </span>","null","html-keyboard-response","135","369753","0.0-8.0-0.0-4.0-0.0-1.13","6","6","6","6","4","3","2","4","4","3","4","1","0","1","0","-1","1","1","1","4","5","5","5","4","3","4","4","5","4","8","6","7","9","5","6","9","5","6","6","6","7","7","6","3","7","1","4","5","1","7","4","6","7","5","7","5","4","7","6","2","7","2","2","1","6","7","7","7","7","7","7","2","4","2","7","7","7","3","7","755482622574202882","陈","291","Male","[""好我"",""好他"",""坏他"",""坏我""]","[""强我"",""强他"",""弱他"",""弱我""]","","","","","","","","","","","","","","","","","","","","","","","","","","","","","","feedback_test","","","","","","","","",""
"907","","f","psychophysics","136","371661","0.0-8.0-0.0-4.0-0.0-0.14","6","6","6","6","4","3","2","4","4","3","4","1","0","1","0","-1","1","1","1","4","5","5","5","4","3","4","4","5","4","8","6","7","9","5","6","9","5","6","6","6","7","7","6","3","7","1","4","5","1","7","4","6","7","5","7","5","4","7","6","2","7","2","2","1","6","7","7","7","7","7","7","2","4","2","7","7","7","3","7","755482622574202882","陈","291","Male","[""好我"",""好他"",""坏他"",""坏我""]","[""强我"",""强他"",""弱他"",""弱我""]","","","","","","","","nonmatch","","","","","","","","","","key","f","6.94489051094899","853.3333333333334","476","f","true","nonmatch","img/square.png","坏他","坏我","ALT2","moral","","","","","","","","",""
