"rt","stimulus","response","trial_type","trial_index","time_elapsed","internal_node_id","swb_1","swb_2","swb_3","swb_4","swb_5","LOT_1","LOT_2","LOT_3","LOT_4","LOT_5","LOT_6","IPC_1","IPC_2","IPC_3","IPC_4","IPC_5","IPC_6","IPC_7","IPC_8","MorIden_1","MorIden_2","MorIden_3","MorIden_4","MorIden_5","MorIden_6","MorIden_7","MorIden_8","MorIden_9","MorIden_10","moralSeImag_1","moralSeImag_2","moralSeImag_3","moralSeImag_4","moralSeImag_5","moralSeImag_6","moralSeImag_7","moralSeImag_8","moralSeImag_9","sde_1","sde_2","sde_3","sde_4","sde_5","sde_6","sde_7","sde_8","sde_9","sde_10","trap2","sde_11","sde_12","sde_13","sde_14","sde_15","sde_16","sde_17","sde_18","sde_19","sde_20","IM_1","IM_2","IM_3","IM_4","IM_5","IM_6","IM_7","IM_8","IM_9","IM_10","IM_11","IM_12","IM_13","IM_14","IM_15","IM_16","IM_17","IM_18","IM_19","IM_20","subj_idx","friend_name","ParticipantID","Sex","Word","Word2","value","success","timeout","failed_images","failed_audio","failed_video","user_agent","responses","item_order","radio_event_ids","radio_event_times","key_event_times","mouse_event_times","straightlining","zigzagging","honeypot","task_id","screen_id","time_stamp","response_type","key_press","avg_frame_time","center_x","center_y","person","word","valence","domain","math","correct_response","correct","status","view_history","identity","duration","Image","condition","question_order","trap2_item"
"9939","
   <p><div style='color:white; font-size: 25px'>您好，欢迎参加本次实验。</div></p>
   <p><div style='color:white; font-size: 25px'>为充分保障您的权利，请确保您已经知晓并同意《参与实验同意书》以及《数据公开知情同意书》。</div></p>
   <p><div style='color:white; font-size: 25px'>如果您未见过上述内容，请咨询实验员。</div></p>
   <p style='color:white; font-size: 25px'>如果您选择继续实验，则表示您已经清楚两份知情同意书的内容并同意。</p>
   <p><div style = ""color: pink;font-size:30px;"">请确保您记得day0的实验编号，您将在本次实验输入该编号，若您忘记，请咨询实验员后作答。</div></p>
   <p><div style = ""color:lightblue;font-size:25px;"">请您尽可能认真地作答，我们将依据您在各问卷和按键任务中的作答质量发放报酬。</div></p>
   <p> <div style = ""color: green""><按空格键至下页></div> </p>
   "," ","html-keyboard-response","0","9942","0.0-0.0","6","5","6","5","3","4","2","5","5","5","5","0","1","0","0","-1","1","0","1","5","4","5","5","4","4","4","4","5","4","4","6","5","6","4","5","5","6","6","5","6","5","5","6","3","5","6","5","5","1","3","3","6","2","5","3","6","3","5","5","2","5","3","3","2","5","2","6","5","6","5","5","3","6","2","5","2","7","3","5","766966737248980993","吴","697","Female","[""好我"",""坏我"",""坏她"",""好她""]","[""强我"",""弱我"",""弱她"",""强她""]","","","","","","","","","","","","","","","","","","","","","","","","","","","","","","","","","","","","","","",""
"","","","call-function","1","9948","0.0-1.0-0.0","6","5","6","5","3","4","2","5","5","5","5","0","1","0","0","-1","1","0","1","5","4","5","5","4","4","4","4","5","4","4","6","5","6","4","5","5","6","6","5","6","5","5","6","3","5","6","5","5","1","3","3","6","2","5","3","6","3","5","5","2","5","3","3","2","5","2","6","5","6","5","5","3","6","2","5","2","7","3","5","766966737248980993","吴","697","Female","[""好我"",""坏我"",""坏她"",""好她""]","[""强我"",""弱我"",""弱她"",""强她""]","","","","","","","","","","","","","","","","","","","","","","","","","","","","","","","","","","","","","","",""
"37705","","[{""name"":""Sex"",""value"":""1""},{""name"":""friend_name"",""value"":""吴""},{""name"":""ParticipantID"",""value"":""697""}]","survey-html-form","2","47656","0.0-1.0-1.0","6","5","6","5","3","4","2","5","5","5","5","0","1","0","0","-1","1","0","1","5","4","5","5","4","4","4","4","5","4","4","6","5","6","4","5","5","6","6","5","6","5","5","6","3","5","6","5","5","1","3","3","6","2","5","3","6","3","5","5","2","5","3","3","2","5","2","6","5","6","5","5","3","6","2","5","2","7","3","5","766966737248980993","吴","697","Female","[""好我"",""坏我"",""坏她"",""好她""]","[""强我"",""弱我"",""弱她"",""强她""]","","","","","","","","","","","","","","","","","","","","","","","","","","","","","","","","","","","","","","",""
"","","","preload","3","48238","0.0-2.0","6","5","6","5","3","4","2","5","5","5","5","0","1","0","0","-1","1","0","1","5","4","5","5","4","4","4","4","5","4","4","6","5","6","4","5","5","6","6","5","6","5","5","6","3","5","6","5","5","1","3","3","6","2","5","3","6","3","5","5","2","5","3","3","2","5","2","6","5","6","5","5","3","6","2","5","2","7","3","5","766966737248980993","吴","697","Female","[""好我"",""坏我"",""坏她"",""好她""]","[""强我"",""弱我"",""弱她"",""强她""]","","true","false","[]","[]","[]","","","","","","","","","","","","","","","","","","","","","","","","","","","","","","","","",""
"","","","fullscreen","4","54068","0.0-3.0","6","5","6","5","3","4","2","5","5","5","5","0","1","0","0","-1","1","0","1","5","4","5","5","4","4","4","4","5","4","4","6","5","6","4","5","5","6","6","5","6","5","5","6","3","5","6","5","5","1","3","3","6","2","5","3","6","3","5","5","2","5","3","3","2","5","2","6","5","6","5","5","3","6","2","5","2","7","3","5","766966737248980993","吴","697","Female","[""好我"",""坏我"",""坏她"",""好她""]","[""强我"",""弱我"",""弱她"",""强她""]","","true","","","","","{}","","","","","","","","","","","","","","","","","","","","","","","","","","","","","","","",""
"29129.30000000028","","{""Q01"":""6"",""Q02"":""5"",""Q03"":""6"",""Q04"":""5"",""Q05"":""3""}","survey-template","5","83213","0.0-4.0","6","5","6","5","3","4","2","5","5","5","5","0","1","0","0","-1","1","0","1","5","4","5","5","4","4","4","4","5","4","4","6","5","6","4","5","5","6","6","5","6","5","5","6","3","5","6","5","5","1","3","3","6","2","5","3","6","3","5","5","2","5","3","3","2","5","2","6","5","6","5","5","3","6","2","5","2","7","3","5","766966737248980993","吴","697","Female","[""好我"",""坏我"",""坏她"",""好她""]","[""强我"",""弱我"",""弱她"",""强她""]","","","","","","","","{""Q01"":""6"",""Q02"":""5"",""Q03"":""6"",""Q04"":""5"",""Q05"":""3""}","[0,1,2,3,4]","[""Q01"",""Q01"",""Q02"",""Q03"",""Q05"",""Q04""]","[7483.200000000186,9006.100000000093,10489.600000000093,11904.30000000028,23427.899999999907,25520.80000000028]","[]","[7483.200000000186,9006.100000000093,10489.600000000093,11904.30000000028,23427.899999999907,25520.80000000028,29125.80000000028]","0.4","0.75","0","","","","","","","","","","","","","","","","","","","","","","",""
"30001.600000000093","","{""Q01"":""4"",""Q02"":""2"",""Q03"":""5"",""Q04"":""5"",""Q05"":""5"",""Q06"":""5""}","survey-template","6","113231","0.0-5.0","6","5","6","5","3","4","2","5","5","5","5","0","1","0","0","-1","1","0","1","5","4","5","5","4","4","4","4","5","4","4","6","5","6","4","5","5","6","6","5","6","5","5","6","3","5","6","5","5","1","3","3","6","2","5","3","6","3","5","5","2","5","3","3","2","5","2","6","5","6","5","5","3","6","2","5","2","7","3","5","766966737248980993","吴","697","Female","[""好我"",""坏我"",""坏她"",""好她""]","[""强我"",""弱我"",""弱她"",""强她""]","","","","","","","","{""Q01"":""4"",""Q02"":""2"",""Q03"":""5"",""Q04"":""5"",""Q05"":""5"",""Q06"":""5""}","[0,1,2,3,4,5]","[""Q01"",""Q02"",""Q03"",""Q04"",""Q05"",""Q06""]","[5804.299999999814,10382.200000000186,13034.700000000186,17140.600000000093,21728.700000000186,28045]","[]","[5804.299999999814,10382.200000000186,13034.700000000186,17140.600000000093,21728.700000000186,28045,29999.5]","0.3333333333333333","0.6","0","","","","","","","","","","","","","","","","","","","","","","",""
"28169.400000000373","","{""Q01"":""0"",""Q02"":""1"",""Q03"":""0"",""Q04"":""0"",""Q05"":""-1"",""Q06"":""1"",""Q07"":""0"",""Q08"":""1""}","survey-template","7","141417","0.0-6.0","6","5","6","5","3","4","2","5","5","5","5","0","1","0","0","-1","1","0","1","5","4","5","5","4","4","4","4","5","4","4","6","5","6","4","5","5","6","6","5","6","5","5","6","3","5","6","5","5","1","3","3","6","2","5","3","6","3","5","5","2","5","3","3","2","5","2","6","5","6","5","5","3","6","2","5","2","7","3","5","766966737248980993","吴","697","Female","[""好我"",""坏我"",""坏她"",""好她""]","[""强我"",""弱我"",""弱她"",""强她""]","","","","","","","","{""Q01"":""0"",""Q02"":""1"",""Q03"":""0"",""Q04"":""0"",""Q05"":""-1"",""Q06"":""1"",""Q07"":""0"",""Q08"":""1""}","[0,1,2,3,4,5,6,7]","[""Q01"",""Q02"",""Q03"",""Q04"",""Q05"",""Q06"",""Q07"",""Q08""]","[4433.4000000003725,8578.700000000186,12959.80000000028,17596.400000000373,20297.5,22428.900000000373,25287.80000000028,26741.700000000186]","[]","[4433.4000000003725,8578.700000000186,12959.80000000028,17596.400000000373,20297.5,22428.900000000373,25287.80000000028,26741.700000000186,28166.200000000186]","0.5","0.7142857142857143","0","","","","","","","","","","","","","","","","","","","","","","",""
"22222","
    <p><div style='color:white;font-size:35px; line-height:20px;'>词汇评估任务</div></p><br>
    <p><div style='color:white;font-size:25px; line-height:20px;'>请再次回忆该亲密的朋友，你们至少2年前就认识了，并且最近2年经常见面。</div></p>
    <p><div style='color:white;font-size:25px; line-height:20px;'>在本实验中，您将会看到一些形容词。</div></p>
    <p><div style='color:yellow;font-size:25px; line-height:20px;'>您的任务是判断这些形容词是否符合对您自己或您的朋友的描述。</div></p><p style='font-size:35px'>符合按<span style=""color:lightgreen""> j 键</span>，不符合按<span style=""color:red""> f 键</span></p>","0","html-button-response","8","163653","0.0-7.0-0.0","6","5","6","5","3","4","2","5","5","5","5","0","1","0","0","-1","1","0","1","5","4","5","5","4","4","4","4","5","4","4","6","5","6","4","5","5","6","6","5","6","5","5","6","3","5","6","5","5","1","3","3","6","2","5","3","6","3","5","5","2","5","3","3","2","5","2","6","5","6","5","5","3","6","2","5","2","7","3","5","766966737248980993","吴","697","Female","[""好我"",""坏我"",""坏她"",""好她""]","[""强我"",""弱我"",""弱她"",""强她""]","","","","","","","","","","","","","","","","","SRET_EW","EW_instructions","Wed Jan 10 2024 18:13:36 GMT+0800 (中国标准时间)","","","","","","","","","","","","","","","","","","","",""
"null","","null","psychophysics","9","166679","0.0-7.0-1.0-0.0","6","5","6","5","3","4","2","5","5","5","5","0","1","0","0","-1","1","0","1","5","4","5","5","4","4","4","4","5","4","4","6","5","6","4","5","5","6","6","5","6","5","5","6","3","5","6","5","5","1","3","3","6","2","5","3","6","3","5","5","2","5","3","3","2","5","2","6","5","6","5","5","3","6","2","5","2","7","3","5","766966737248980993","吴","697","Female","[""好我"",""坏我"",""坏她"",""好她""]","[""强我"",""弱我"",""弱她"",""强她""]","","","","","","","","","","","","","","","","","SRET_EW","EW_practice","","key","null","17.059740112994312","683","380","自己","严谨","Positive","ability","","","","","","","","","","",""
"903","","f","psychophysics","10","168592","0.0-7.0-1.0-0.1","6","5","6","5","3","4","2","5","5","5","5","0","1","0","0","-1","1","0","1","5","4","5","5","4","4","4","4","5","4","4","6","5","6","4","5","5","6","6","5","6","5","5","6","3","5","6","5","5","1","3","3","6","2","5","3","6","3","5","5","2","5","3","3","2","5","2","6","5","6","5","5","3","6","2","5","2","7","3","5","766966737248980993","吴","697","Female","[""好我"",""坏我"",""坏她"",""好她""]","[""强我"",""弱我"",""弱她"",""强她""]","","","","","","","","no","","","","","","","","","SRET_EW","EW_practice","","key","f","16.829265486725618","683","380","自己","刻板","Negative","ability","","","","","","","","","","",""
"1027","","f","psychophysics","11","170626","0.0-7.0-1.0-0.2","6","5","6","5","3","4","2","5","5","5","5","0","1","0","0","-1","1","0","1","5","4","5","5","4","4","4","4","5","4","4","6","5","6","4","5","5","6","6","5","6","5","5","6","3","5","6","5","5","1","3","3","6","2","5","3","6","3","5","5","2","5","3","3","2","5","2","6","5","6","5","5","3","6","2","5","2","7","3","5","766966737248980993","吴","697","Female","[""好我"",""坏我"",""坏她"",""好她""]","[""强我"",""弱我"",""弱她"",""强她""]","","","","","","","","no","","","","","","","","","SRET_EW","EW_practice","","key","f","16.681570247933895","683","380","朋友","徇私","Negative","morality","","","","","","","","","","",""
"920","","f","psychophysics","12","172551","0.0-7.0-1.0-0.3","6","5","6","5","3","4","2","5","5","5","5","0","1","0","0","-1","1","0","1","5","4","5","5","4","4","4","4","5","4","4","6","5","6","4","5","5","6","6","5","6","5","5","6","3","5","6","5","5","1","3","3","6","2","5","3","6","3","5","5","2","5","3","3","2","5","2","6","5","6","5","5","3","6","2","5","2","7","3","5","766966737248980993","吴","697","Female","[""好我"",""坏我"",""坏她"",""好她""]","[""强我"",""弱我"",""弱她"",""强她""]","","","","","","","","no","","","","","","","","","SRET_EW","EW_practice","","key","f","16.681105263157708","683","380","朋友","忠实","Positive","morality","","","","","","","","","","",""
"8592","
    <p><div style='color:white;font-size:35px; line-height:20px;'>请您再次阅读实验要求</div></p><br>
    <p><div style='color:white;font-size:25px; line-height:20px;'>请回忆某一个亲密的朋友，你们至少2年前就认识了，并且最近2年经常见面。</div></p>
    <p><div style='color:white;font-size:25px; line-height:20px;'>在本实验中，您将会看到一些形容词。</div></p>
    <p><div style='color:yellow;font-size:25px; line-height:20px;'>您的任务是判断这些形容词是否符合对您自己或您的朋友的描述。</div></p>
    <p><div class='footer' style='font-size:25px; line-height:20px;'>如果对本实验还有不清楚之处，请立即向实验员咨询。</p><p style='font-size:25px; line-height:20px;'>如果您明白了规则：</p><p style='font-size:22px; line-height:20px;'>请按 继续 进入正式实验</p>
    </div>
    <p style='font-size:35px'>符合按<span style=""color:lightgreen""> j 键</span>，不符合按<span style=""color:red""> f 键</span></p>","0","html-button-response","13","181147","0.0-7.0-2.0","6","5","6","5","3","4","2","5","5","5","5","0","1","0","0","-1","1","0","1","5","4","5","5","4","4","4","4","5","4","4","6","5","6","4","5","5","6","6","5","6","5","5","6","3","5","6","5","5","1","3","3","6","2","5","3","6","3","5","5","2","5","3","3","2","5","2","6","5","6","5","5","3","6","2","5","2","7","3","5","766966737248980993","吴","697","Female","[""好我"",""坏我"",""坏她"",""好她""]","[""强我"",""弱我"",""弱她"",""强她""]","","","","","","","","","","","","","","","","","SRET_EW","prac_instructions","Wed Jan 10 2024 18:13:36 GMT+0800 (中国标准时间)","","","","","","","","","","","","","","","","","","","",""
"978","","j","psychophysics","14","183130","0.0-7.0-3.0-0.0","6","5","6","5","3","4","2","5","5","5","5","0","1","0","0","-1","1","0","1","5","4","5","5","4","4","4","4","5","4","4","6","5","6","4","5","5","6","6","5","6","5","5","6","3","5","6","5","5","1","3","3","6","2","5","3","6","3","5","5","2","5","3","3","2","5","2","6","5","6","5","5","3","6","2","5","2","7","3","5","766966737248980993","吴","697","Female","[""好我"",""坏我"",""坏她"",""好她""]","[""强我"",""弱我"",""弱她"",""强她""]","","","","","","","","yes","","","","","","","","","SRET","EW_formal","","key","j","16.824615384615473","683","380","自己","坚贞","Positive","morality","","","","","","","","","","",""
"888","","f","psychophysics","15","185026","0.0-7.0-3.0-0.1","6","5","6","5","3","4","2","5","5","5","5","0","1","0","0","-1","1","0","1","5","4","5","5","4","4","4","4","5","4","4","6","5","6","4","5","5","6","6","5","6","5","5","6","3","5","6","5","5","1","3","3","6","2","5","3","6","3","5","5","2","5","3","3","2","5","2","6","5","6","5","5","3","6","2","5","2","7","3","5","766966737248980993","吴","697","Female","[""好我"",""坏我"",""坏她"",""好她""]","[""强我"",""弱我"",""弱她"",""强她""]","","","","","","","","no","","","","","","","","","SRET","EW_formal","","key","f","16.829955357143003","683","380","自己","说谎","Negative","morality","","","","","","","","","","",""
"1004","","j","psychophysics","16","187035","0.0-7.0-3.0-0.2","6","5","6","5","3","4","2","5","5","5","5","0","1","0","0","-1","1","0","1","5","4","5","5","4","4","4","4","5","4","4","6","5","6","4","5","5","6","6","5","6","5","5","6","3","5","6","5","5","1","3","3","6","2","5","3","6","3","5","5","2","5","3","3","2","5","2","6","5","6","5","5","3","6","2","5","2","7","3","5","766966737248980993","吴","697","Female","[""好我"",""坏我"",""坏她"",""好她""]","[""强我"",""弱我"",""弱她"",""强她""]","","","","","","","","yes","","","","","","","","","SRET","EW_formal","","key","j","16.680344537814968","683","380","朋友","务实","Positive","ability","","","","","","","","","","",""
"778","","f","psychophysics","17","188819","0.0-7.0-3.0-0.3","6","5","6","5","3","4","2","5","5","5","5","0","1","0","0","-1","1","0","1","5","4","5","5","4","4","4","4","5","4","4","6","5","6","4","5","5","6","6","5","6","5","5","6","3","5","6","5","5","1","3","3","6","2","5","3","6","3","5","5","2","5","3","3","2","5","2","6","5","6","5","5","3","6","2","5","2","7","3","5","766966737248980993","吴","697","Female","[""好我"",""坏我"",""坏她"",""好她""]","[""强我"",""弱我"",""弱她"",""强她""]","","","","","","","","no","","","","","","","","","SRET","EW_formal","","key","f","16.68105660377368","683","380","朋友","迷糊","Negative","ability","","","","","","","","","","",""
"1070","","j","psychophysics","18","190899","0.0-7.0-3.0-0.4","6","5","6","5","3","4","2","5","5","5","5","0","1","0","0","-1","1","0","1","5","4","5","5","4","4","4","4","5","4","4","6","5","6","4","5","5","6","6","5","6","5","5","6","3","5","6","5","5","1","3","3","6","2","5","3","6","3","5","5","2","5","3","3","2","5","2","6","5","6","5","5","3","6","2","5","2","7","3","5","766966737248980993","吴","697","Female","[""好我"",""坏我"",""坏她"",""好她""]","[""强我"",""弱我"",""弱她"",""强她""]","","","","","","","","yes","","","","","","","","","SRET","EW_formal","","key","j","16.81648780487793","683","380","自己","远见","Positive","ability","","","","","","","","","","",""
"946","","j","psychophysics","19","192851","0.0-7.0-3.0-0.5","6","5","6","5","3","4","2","5","5","5","5","0","1","0","0","-1","1","0","1","5","4","5","5","4","4","4","4","5","4","4","6","5","6","4","5","5","6","6","5","6","5","5","6","3","5","6","5","5","1","3","3","6","2","5","3","6","3","5","5","2","5","3","3","2","5","2","6","5","6","5","5","3","6","2","5","2","7","3","5","766966737248980993","吴","697","Female","[""好我"",""坏我"",""坏她"",""好她""]","[""强我"",""弱我"",""弱她"",""强她""]","","","","","","","","yes","","","","","","","","","SRET","EW_formal","","key","j","16.681508620689595","683","380","朋友","精干","Positive","ability","","","","","","","","","","",""
"739","","j","psychophysics","20","194596","0.0-7.0-3.0-0.6","6","5","6","5","3","4","2","5","5","5","5","0","1","0","0","-1","1","0","1","5","4","5","5","4","4","4","4","5","4","4","6","5","6","4","5","5","6","6","5","6","5","5","6","3","5","6","5","5","1","3","3","6","2","5","3","6","3","5","5","2","5","3","3","2","5","2","6","5","6","5","5","3","6","2","5","2","7","3","5","766966737248980993","吴","697","Female","[""好我"",""坏我"",""坏她"",""好她""]","[""强我"",""弱我"",""弱她"",""强她""]","","","","","","","","yes","","","","","","","","","SRET","EW_formal","","key","j","16.84204854368932","683","380","自己","守信","Positive","morality","","","","","","","","","","",""
"930","","f","psychophysics","21","196531","0.0-7.0-3.0-0.7","6","5","6","5","3","4","2","5","5","5","5","0","1","0","0","-1","1","0","1","5","4","5","5","4","4","4","4","5","4","4","6","5","6","4","5","5","6","6","5","6","5","5","6","3","5","6","5","5","1","3","3","6","2","5","3","6","3","5","5","2","5","3","3","2","5","2","6","5","6","5","5","3","6","2","5","2","7","3","5","766966737248980993","吴","697","Female","[""好我"",""坏我"",""坏她"",""好她""]","[""强我"",""弱我"",""弱她"",""强她""]","","","","","","","","no","","","","","","","","","SRET","EW_formal","","key","f","16.828035087719368","683","380","朋友","驽钝","Negative","ability","","","","","","","","","","",""
"1308","","j","psychophysics","22","198845","0.0-7.0-3.0-0.8","6","5","6","5","3","4","2","5","5","5","5","0","1","0","0","-1","1","0","1","5","4","5","5","4","4","4","4","5","4","4","6","5","6","4","5","5","6","6","5","6","5","5","6","3","5","6","5","5","1","3","3","6","2","5","3","6","3","5","5","2","5","3","3","2","5","2","6","5","6","5","5","3","6","2","5","2","7","3","5","766966737248980993","吴","697","Female","[""好我"",""坏我"",""坏她"",""好她""]","[""强我"",""弱我"",""弱她"",""强她""]","","","","","","","","yes","","","","","","","","","SRET","EW_formal","","key","j","16.68174452554727","683","380","朋友","利己","Negative","morality","","","","","","","","","","",""
"830","","f","psychophysics","23","200678","0.0-7.0-3.0-0.9","6","5","6","5","3","4","2","5","5","5","5","0","1","0","0","-1","1","0","1","5","4","5","5","4","4","4","4","5","4","4","6","5","6","4","5","5","6","6","5","6","5","5","6","3","5","6","5","5","1","3","3","6","2","5","3","6","3","5","5","2","5","3","3","2","5","2","6","5","6","5","5","3","6","2","5","2","7","3","5","766966737248980993","吴","697","Female","[""好我"",""坏我"",""坏她"",""好她""]","[""强我"",""弱我"",""弱她"",""强她""]","","","","","","","","no","","","","","","","","","SRET","EW_formal","","key","f","16.835787037037168","683","380","自己","贪腐","Negative","morality","","","","","","","","","","",""
"772","","j","psychophysics","24","202454","0.0-7.0-3.0-0.10","6","5","6","5","3","4","2","5","5","5","5","0","1","0","0","-1","1","0","1","5","4","5","5","4","4","4","4","5","4","4","6","5","6","4","5","5","6","6","5","6","5","5","6","3","5","6","5","5","1","3","3","6","2","5","3","6","3","5","5","2","5","3","3","2","5","2","6","5","6","5","5","3","6","2","5","2","7","3","5","766966737248980993","吴","697","Female","[""好我"",""坏我"",""坏她"",""好她""]","[""强我"",""弱我"",""弱她"",""强她""]","","","","","","","","yes","","","","","","","","","SRET","EW_formal","","key","j","16.681745283019","683","380","朋友","聪明","Positive","ability","","","","","","","","","","",""
"799","","f","psychophysics","25","204256","0.0-7.0-3.0-0.11","6","5","6","5","3","4","2","5","5","5","5","0","1","0","0","-1","1","0","1","5","4","5","5","4","4","4","4","5","4","4","6","5","6","4","5","5","6","6","5","6","5","5","6","3","5","6","5","5","1","3","3","6","2","5","3","6","3","5","5","2","5","3","3","2","5","2","6","5","6","5","5","3","6","2","5","2","7","3","5","766966737248980993","吴","697","Female","[""好我"",""坏我"",""坏她"",""好她""]","[""强我"",""弱我"",""弱她"",""强她""]","","","","","","","","no","","","","","","","","","SRET","EW_formal","","key","f","16.836641509434042","683","380","朋友","伪善","Negative","morality","","","","","","","","","","",""
"864","","f","psychophysics","26","206130","0.0-7.0-3.0-0.12","6","5","6","5","3","4","2","5","5","5","5","0","1","0","0","-1","1","0","1","5","4","5","5","4","4","4","4","5","4","4","6","5","6","4","5","5","6","6","5","6","5","5","6","3","5","6","5","5","1","3","3","6","2","5","3","6","3","5","5","2","5","3","3","2","5","2","6","5","6","5","5","3","6","2","5","2","7","3","5","766966737248980993","吴","697","Female","[""好我"",""坏我"",""坏她"",""好她""]","[""强我"",""弱我"",""弱她"",""强她""]","","","","","","","","no","","","","","","","","","SRET","EW_formal","","key","f","16.680729729729876","683","380","自己","无知","Negative","ability","","","","","","","","","","",""
"829","","j","psychophysics","27","207970","0.0-7.0-3.0-0.13","6","5","6","5","3","4","2","5","5","5","5","0","1","0","0","-1","1","0","1","5","4","5","5","4","4","4","4","5","4","4","6","5","6","4","5","5","6","6","5","6","5","5","6","3","5","6","5","5","1","3","3","6","2","5","3","6","3","5","5","2","5","3","3","2","5","2","6","5","6","5","5","3","6","2","5","2","7","3","5","766966737248980993","吴","697","Female","[""好我"",""坏我"",""坏她"",""好她""]","[""强我"",""弱我"",""弱她"",""强她""]","","","","","","","","yes","","","","","","","","","SRET","EW_formal","","key","j","16.681128440367125","683","380","朋友","坚持","Positive","ability","","","","","","","","","","",""
"797","","j","psychophysics","28","209774","0.0-7.0-3.0-0.14","6","5","6","5","3","4","2","5","5","5","5","0","1","0","0","-1","1","0","1","5","4","5","5","4","4","4","4","5","4","4","6","5","6","4","5","5","6","6","5","6","5","5","6","3","5","6","5","5","1","3","3","6","2","5","3","6","3","5","5","2","5","3","3","2","5","2","6","5","6","5","5","3","6","2","5","2","7","3","5","766966737248980993","吴","697","Female","[""好我"",""坏我"",""坏她"",""好她""]","[""强我"",""弱我"",""弱她"",""强她""]","","","","","","","","yes","","","","","","","","","SRET","EW_formal","","key","j","16.83933018867908","683","380","朋友","廉明","Positive","morality","","","","","","","","","","",""
"1026","","j","psychophysics","29","211805","0.0-7.0-3.0-0.15","6","5","6","5","3","4","2","5","5","5","5","0","1","0","0","-1","1","0","1","5","4","5","5","4","4","4","4","5","4","4","6","5","6","4","5","5","6","6","5","6","5","5","6","3","5","6","5","5","1","3","3","6","2","5","3","6","3","5","5","2","5","3","3","2","5","2","6","5","6","5","5","3","6","2","5","2","7","3","5","766966737248980993","吴","697","Female","[""好我"",""坏我"",""坏她"",""好她""]","[""强我"",""弱我"",""弱她"",""强她""]","","","","","","","","yes","","","","","","","","","SRET","EW_formal","","key","j","16.819708333333498","683","380","朋友","正气","Positive","morality","","","","","","","","","","",""
"899","","f","psychophysics","30","213709","0.0-7.0-3.0-0.16","6","5","6","5","3","4","2","5","5","5","5","0","1","0","0","-1","1","0","1","5","4","5","5","4","4","4","4","5","4","4","6","5","6","4","5","5","6","6","5","6","5","5","6","3","5","6","5","5","1","3","3","6","2","5","3","6","3","5","5","2","5","3","3","2","5","2","6","5","6","5","5","3","6","2","5","2","7","3","5","766966737248980993","吴","697","Female","[""好我"",""坏我"",""坏她"",""好她""]","[""强我"",""弱我"",""弱她"",""强她""]","","","","","","","","no","","","","","","","","","SRET","EW_formal","","key","f","16.68176991150424","683","380","朋友","自私","Negative","morality","","","","","","","","","","",""
"893","","f","psychophysics","31","215650","0.0-7.0-3.0-0.17","6","5","6","5","3","4","2","5","5","5","5","0","1","0","0","-1","1","0","1","5","4","5","5","4","4","4","4","5","4","4","6","5","6","4","5","5","6","6","5","6","5","5","6","3","5","6","5","5","1","3","3","6","2","5","3","6","3","5","5","2","5","3","3","2","5","2","6","5","6","5","5","3","6","2","5","2","7","3","5","766966737248980993","吴","697","Female","[""好我"",""坏我"",""坏她"",""好她""]","[""强我"",""弱我"",""弱她"",""强她""]","","","","","","","","no","","","","","","","","","SRET","EW_formal","","key","f","16.827113043478406","683","380","自己","窝囊","Negative","ability","","","","","","","","","","",""
"793","","j","psychophysics","32","217450","0.0-7.0-3.0-0.18","6","5","6","5","3","4","2","5","5","5","5","0","1","0","0","-1","1","0","1","5","4","5","5","4","4","4","4","5","4","4","6","5","6","4","5","5","6","6","5","6","5","5","6","3","5","6","5","5","1","3","3","6","2","5","3","6","3","5","5","2","5","3","3","2","5","2","6","5","6","5","5","3","6","2","5","2","7","3","5","766966737248980993","吴","697","Female","[""好我"",""坏我"",""坏她"",""好她""]","[""强我"",""弱我"",""弱她"",""强她""]","","","","","","","","yes","","","","","","","","","SRET","EW_formal","","key","j","16.680934579439395","683","380","朋友","热心","Positive","morality","","","","","","","","","","",""
"711","","j","psychophysics","33","219168","0.0-7.0-3.0-0.19","6","5","6","5","3","4","2","5","5","5","5","0","1","0","0","-1","1","0","1","5","4","5","5","4","4","4","4","5","4","4","6","5","6","4","5","5","6","6","5","6","5","5","6","3","5","6","5","5","1","3","3","6","2","5","3","6","3","5","5","2","5","3","3","2","5","2","6","5","6","5","5","3","6","2","5","2","7","3","5","766966737248980993","吴","697","Female","[""好我"",""坏我"",""坏她"",""好她""]","[""强我"",""弱我"",""弱她"",""强她""]","","","","","","","","yes","","","","","","","","","SRET","EW_formal","","key","j","16.681107843137237","683","380","朋友","忠诚","Positive","morality","","","","","","","","","","",""
"788","","f","psychophysics","34","220965","0.0-7.0-3.0-0.20","6","5","6","5","3","4","2","5","5","5","5","0","1","0","0","-1","1","0","1","5","4","5","5","4","4","4","4","5","4","4","6","5","6","4","5","5","6","6","5","6","5","5","6","3","5","6","5","5","1","3","3","6","2","5","3","6","3","5","5","2","5","3","3","2","5","2","6","5","6","5","5","3","6","2","5","2","7","3","5","766966737248980993","吴","697","Female","[""好我"",""坏我"",""坏她"",""好她""]","[""强我"",""弱我"",""弱她"",""强她""]","","","","","","","","no","","","","","","","","","SRET","EW_formal","","key","f","16.681216981131826","683","380","朋友","短视","Negative","ability","","","","","","","","","","",""
"1007","","j","psychophysics","35","222980","0.0-7.0-3.0-0.21","6","5","6","5","3","4","2","5","5","5","5","0","1","0","0","-1","1","0","1","5","4","5","5","4","4","4","4","5","4","4","6","5","6","4","5","5","6","6","5","6","5","5","6","3","5","6","5","5","1","3","3","6","2","5","3","6","3","5","5","2","5","3","3","2","5","2","6","5","6","5","5","3","6","2","5","2","7","3","5","766966737248980993","吴","697","Female","[""好我"",""坏我"",""坏她"",""好她""]","[""强我"",""弱我"",""弱她"",""强她""]","","","","","","","","yes","","","","","","","","","SRET","EW_formal","","key","j","16.681058333333205","683","380","自己","慈悲","Positive","morality","","","","","","","","","","",""
"777","","f","psychophysics","36","224762","0.0-7.0-3.0-0.22","6","5","6","5","3","4","2","5","5","5","5","0","1","0","0","-1","1","0","1","5","4","5","5","4","4","4","4","5","4","4","6","5","6","4","5","5","6","6","5","6","5","5","6","3","5","6","5","5","1","3","3","6","2","5","3","6","3","5","5","2","5","3","3","2","5","2","6","5","6","5","5","3","6","2","5","2","7","3","5","766966737248980993","吴","697","Female","[""好我"",""坏我"",""坏她"",""好她""]","[""强我"",""弱我"",""弱她"",""强她""]","","","","","","","","no","","","","","","","","","SRET","EW_formal","","key","f","16.680877358490385","683","380","自己","屈才","Negative","ability","","","","","","","","","","",""
"918","","j","psychophysics","37","226687","0.0-7.0-3.0-0.23","6","5","6","5","3","4","2","5","5","5","5","0","1","0","0","-1","1","0","1","5","4","5","5","4","4","4","4","5","4","4","6","5","6","4","5","5","6","6","5","6","5","5","6","3","5","6","5","5","1","3","3","6","2","5","3","6","3","5","5","2","5","3","3","2","5","2","6","5","6","5","5","3","6","2","5","2","7","3","5","766966737248980993","吴","697","Female","[""好我"",""坏我"",""坏她"",""好她""]","[""强我"",""弱我"",""弱她"",""强她""]","","","","","","","","yes","","","","","","","","","SRET","EW_formal","","key","j","16.828548672566534","683","380","朋友","淡泊","Positive","morality","","","","","","","","","","",""
"846","","j","psychophysics","38","228540","0.0-7.0-3.0-0.24","6","5","6","5","3","4","2","5","5","5","5","0","1","0","0","-1","1","0","1","5","4","5","5","4","4","4","4","5","4","4","6","5","6","4","5","5","6","6","5","6","5","5","6","3","5","6","5","5","1","3","3","6","2","5","3","6","3","5","5","2","5","3","3","2","5","2","6","5","6","5","5","3","6","2","5","2","7","3","5","766966737248980993","吴","697","Female","[""好我"",""坏我"",""坏她"",""好她""]","[""强我"",""弱我"",""弱她"",""强她""]","","","","","","","","yes","","","","","","","","","SRET","EW_formal","","key","j","16.834697247706323","683","380","朋友","君子","Positive","morality","","","","","","","","","","",""
"990","","f","psychophysics","39","230535","0.0-7.0-3.0-0.25","6","5","6","5","3","4","2","5","5","5","5","0","1","0","0","-1","1","0","1","5","4","5","5","4","4","4","4","5","4","4","6","5","6","4","5","5","6","6","5","6","5","5","6","3","5","6","5","5","1","3","3","6","2","5","3","6","3","5","5","2","5","3","3","2","5","2","6","5","6","5","5","3","6","2","5","2","7","3","5","766966737248980993","吴","697","Female","[""好我"",""坏我"",""坏她"",""好她""]","[""强我"",""弱我"",""弱她"",""强她""]","","","","","","","","no","","","","","","","","","SRET","EW_formal","","key","f","16.680907563025137","683","380","自己","无助","Negative","ability","","","","","","","","","","",""
"829","","j","psychophysics","40","232376","0.0-7.0-3.0-0.26","6","5","6","5","3","4","2","5","5","5","5","0","1","0","0","-1","1","0","1","5","4","5","5","4","4","4","4","5","4","4","6","5","6","4","5","5","6","6","5","6","5","5","6","3","5","6","5","5","1","3","3","6","2","5","3","6","3","5","5","2","5","3","3","2","5","2","6","5","6","5","5","3","6","2","5","2","7","3","5","766966737248980993","吴","697","Female","[""好我"",""坏我"",""坏她"",""好她""]","[""强我"",""弱我"",""弱她"",""强她""]","","","","","","","","yes","","","","","","","","","SRET","EW_formal","","key","j","16.680954128440252","683","380","朋友","干练","Positive","ability","","","","","","","","","","",""
"1124","","j","psychophysics","41","234506","0.0-7.0-3.0-0.27","6","5","6","5","3","4","2","5","5","5","5","0","1","0","0","-1","1","0","1","5","4","5","5","4","4","4","4","5","4","4","6","5","6","4","5","5","6","6","5","6","5","5","6","3","5","6","5","5","1","3","3","6","2","5","3","6","3","5","5","2","5","3","3","2","5","2","6","5","6","5","5","3","6","2","5","2","7","3","5","766966737248980993","吴","697","Female","[""好我"",""坏我"",""坏她"",""好她""]","[""强我"",""弱我"",""弱她"",""强她""]","","","","","","","","yes","","","","","","","","","SRET","EW_formal","","key","j","16.681614173228365","683","380","朋友","业余","Negative","ability","","","","","","","","","","",""
"773","","f","psychophysics","42","236286","0.0-7.0-3.0-0.28","6","5","6","5","3","4","2","5","5","5","5","0","1","0","0","-1","1","0","1","5","4","5","5","4","4","4","4","5","4","4","6","5","6","4","5","5","6","6","5","6","5","5","6","3","5","6","5","5","1","3","3","6","2","5","3","6","3","5","5","2","5","3","3","2","5","2","6","5","6","5","5","3","6","2","5","2","7","3","5","766966737248980993","吴","697","Female","[""好我"",""坏我"",""坏她"",""好她""]","[""强我"",""弱我"",""弱她"",""强她""]","","","","","","","","no","","","","","","","","","SRET","EW_formal","","key","f","17.000711538461474","683","380","朋友","迟钝","Negative","ability","","","","","","","","","","",""
"824","","f","psychophysics","43","238113","0.0-7.0-3.0-0.29","6","5","6","5","3","4","2","5","5","5","5","0","1","0","0","-1","1","0","1","5","4","5","5","4","4","4","4","5","4","4","6","5","6","4","5","5","6","6","5","6","5","5","6","3","5","6","5","5","1","3","3","6","2","5","3","6","3","5","5","2","5","3","3","2","5","2","6","5","6","5","5","3","6","2","5","2","7","3","5","766966737248980993","吴","697","Female","[""好我"",""坏我"",""坏她"",""好她""]","[""强我"",""弱我"",""弱她"",""强她""]","","","","","","","","no","","","","","","","","","SRET","EW_formal","","key","f","16.681509259259286","683","380","朋友","无为","Negative","ability","","","","","","","","","","",""
"null","","null","psychophysics","44","241121","0.0-7.0-3.0-0.30","6","5","6","5","3","4","2","5","5","5","5","0","1","0","0","-1","1","0","1","5","4","5","5","4","4","4","4","5","4","4","6","5","6","4","5","5","6","6","5","6","5","5","6","3","5","6","5","5","1","3","3","6","2","5","3","6","3","5","5","2","5","3","3","2","5","2","6","5","6","5","5","3","6","2","5","2","7","3","5","766966737248980993","吴","697","Female","[""好我"",""坏我"",""坏她"",""好她""]","[""强我"",""弱我"",""弱她"",""强她""]","","","","","","","","","","","","","","","","","SRET","EW_formal","","key","null","29.72895049504932","683","380","自己","骁勇","Positive","ability","","","","","","","","","","",""
"686","","f","psychophysics","45","242815","0.0-7.0-3.0-0.31","6","5","6","5","3","4","2","5","5","5","5","0","1","0","0","-1","1","0","1","5","4","5","5","4","4","4","4","5","4","4","6","5","6","4","5","5","6","6","5","6","5","5","6","3","5","6","5","5","1","3","3","6","2","5","3","6","3","5","5","2","5","3","3","2","5","2","6","5","6","5","5","3","6","2","5","2","7","3","5","766966737248980993","吴","697","Female","[""好我"",""坏我"",""坏她"",""好她""]","[""强我"",""弱我"",""弱她"",""强她""]","","","","","","","","no","","","","","","","","","SRET","EW_formal","","key","f","16.682670000000215","683","380","自己","邪恶","Negative","morality","","","","","","","","","","",""
"669","","j","psychophysics","46","244489","0.0-7.0-3.0-0.32","6","5","6","5","3","4","2","5","5","5","5","0","1","0","0","-1","1","0","1","5","4","5","5","4","4","4","4","5","4","4","6","5","6","4","5","5","6","6","5","6","5","5","6","3","5","6","5","5","1","3","3","6","2","5","3","6","3","5","5","2","5","3","3","2","5","2","6","5","6","5","5","3","6","2","5","2","7","3","5","766966737248980993","吴","697","Female","[""好我"",""坏我"",""坏她"",""好她""]","[""强我"",""弱我"",""弱她"",""强她""]","","","","","","","","yes","","","","","","","","","SRET","EW_formal","","key","j","16.681579999999958","683","380","自己","刚正","Positive","morality","","","","","","","","","","",""
"1113","","j","psychophysics","47","246611","0.0-7.0-3.0-0.33","6","5","6","5","3","4","2","5","5","5","5","0","1","0","0","-1","1","0","1","5","4","5","5","4","4","4","4","5","4","4","6","5","6","4","5","5","6","6","5","6","5","5","6","3","5","6","5","5","1","3","3","6","2","5","3","6","3","5","5","2","5","3","3","2","5","2","6","5","6","5","5","3","6","2","5","2","7","3","5","766966737248980993","吴","697","Female","[""好我"",""坏我"",""坏她"",""好她""]","[""强我"",""弱我"",""弱她"",""强她""]","","","","","","","","yes","","","","","","","","","SRET","EW_formal","","key","j","16.681142857142802","683","380","朋友","敏捷","Positive","ability","","","","","","","","","","",""
"819","","f","psychophysics","48","248436","0.0-7.0-3.0-0.34","6","5","6","5","3","4","2","5","5","5","5","0","1","0","0","-1","1","0","1","5","4","5","5","4","4","4","4","5","4","4","6","5","6","4","5","5","6","6","5","6","5","5","6","3","5","6","5","5","1","3","3","6","2","5","3","6","3","5","5","2","5","3","3","2","5","2","6","5","6","5","5","3","6","2","5","2","7","3","5","766966737248980993","吴","697","Female","[""好我"",""坏我"",""坏她"",""好她""]","[""强我"",""弱我"",""弱她"",""强她""]","","","","","","","","no","","","","","","","","","SRET","EW_formal","","key","f","16.681555555555626","683","380","朋友","背叛","Negative","morality","","","","","","","","","","",""
"821","","j","psychophysics","49","250262","0.0-7.0-3.0-0.35","6","5","6","5","3","4","2","5","5","5","5","0","1","0","0","-1","1","0","1","5","4","5","5","4","4","4","4","5","4","4","6","5","6","4","5","5","6","6","5","6","5","5","6","3","5","6","5","5","1","3","3","6","2","5","3","6","3","5","5","2","5","3","3","2","5","2","6","5","6","5","5","3","6","2","5","2","7","3","5","766966737248980993","吴","697","Female","[""好我"",""坏我"",""坏她"",""好她""]","[""强我"",""弱我"",""弱她"",""强她""]","","","","","","","","yes","","","","","","","","","SRET","EW_formal","","key","j","16.681293577981638","683","380","朋友","中用","Positive","ability","","","","","","","","","","",""
"730","","j","psychophysics","50","251996","0.0-7.0-3.0-0.36","6","5","6","5","3","4","2","5","5","5","5","0","1","0","0","-1","1","0","1","5","4","5","5","4","4","4","4","5","4","4","6","5","6","4","5","5","6","6","5","6","5","5","6","3","5","6","5","5","1","3","3","6","2","5","3","6","3","5","5","2","5","3","3","2","5","2","6","5","6","5","5","3","6","2","5","2","7","3","5","766966737248980993","吴","697","Female","[""好我"",""坏我"",""坏她"",""好她""]","[""强我"",""弱我"",""弱她"",""强她""]","","","","","","","","yes","","","","","","","","","SRET","EW_formal","","key","j","16.680598039215706","683","380","自己","宽容","Positive","morality","","","","","","","","","","",""
"706","","j","psychophysics","51","253705","0.0-7.0-3.0-0.37","6","5","6","5","3","4","2","5","5","5","5","0","1","0","0","-1","1","0","1","5","4","5","5","4","4","4","4","5","4","4","6","5","6","4","5","5","6","6","5","6","5","5","6","3","5","6","5","5","1","3","3","6","2","5","3","6","3","5","5","2","5","3","3","2","5","2","6","5","6","5","5","3","6","2","5","2","7","3","5","766966737248980993","吴","697","Female","[""好我"",""坏我"",""坏她"",""好她""]","[""强我"",""弱我"",""弱她"",""强她""]","","","","","","","","yes","","","","","","","","","SRET","EW_formal","","key","j","16.84651485148536","683","380","自己","博识","Positive","ability","","","","","","","","","","",""
"971","","f","psychophysics","52","255724","0.0-7.0-3.0-0.38","6","5","6","5","3","4","2","5","5","5","5","0","1","0","0","-1","1","0","1","5","4","5","5","4","4","4","4","5","4","4","6","5","6","4","5","5","6","6","5","6","5","5","6","3","5","6","5","5","1","3","3","6","2","5","3","6","3","5","5","2","5","3","3","2","5","2","6","5","6","5","5","3","6","2","5","2","7","3","5","766966737248980993","吴","697","Female","[""好我"",""坏我"",""坏她"",""好她""]","[""强我"",""弱我"",""弱她"",""强她""]","","","","","","","","no","","","","","","","","","SRET","EW_formal","","key","f","16.82110084033622","683","380","自己","畏难","Negative","ability","","","","","","","","","","",""
"683","","j","psychophysics","53","257413","0.0-7.0-3.0-0.39","6","5","6","5","3","4","2","5","5","5","5","0","1","0","0","-1","1","0","1","5","4","5","5","4","4","4","4","5","4","4","6","5","6","4","5","5","6","6","5","6","5","5","6","3","5","6","5","5","1","3","3","6","2","5","3","6","3","5","5","2","5","3","3","2","5","2","6","5","6","5","5","3","6","2","5","2","7","3","5","766966737248980993","吴","697","Female","[""好我"",""坏我"",""坏她"",""好她""]","[""强我"",""弱我"",""弱她"",""强她""]","","","","","","","","yes","","","","","","","","","SRET","EW_formal","","key","j","16.680890000000073","683","380","朋友","文明","Positive","morality","","","","","","","","","","",""
"811","","f","psychophysics","54","259233","0.0-7.0-3.0-0.40","6","5","6","5","3","4","2","5","5","5","5","0","1","0","0","-1","1","0","1","5","4","5","5","4","4","4","4","5","4","4","6","5","6","4","5","5","6","6","5","6","5","5","6","3","5","6","5","5","1","3","3","6","2","5","3","6","3","5","5","2","5","3","3","2","5","2","6","5","6","5","5","3","6","2","5","2","7","3","5","766966737248980993","吴","697","Female","[""好我"",""坏我"",""坏她"",""好她""]","[""强我"",""弱我"",""弱她"",""强她""]","","","","","","","","no","","","","","","","","","SRET","EW_formal","","key","f","16.680777777777823","683","380","朋友","下流","Negative","morality","","","","","","","","","","",""
"816","","f","psychophysics","55","261056","0.0-7.0-3.0-0.41","6","5","6","5","3","4","2","5","5","5","5","0","1","0","0","-1","1","0","1","5","4","5","5","4","4","4","4","5","4","4","6","5","6","4","5","5","6","6","5","6","5","5","6","3","5","6","5","5","1","3","3","6","2","5","3","6","3","5","5","2","5","3","3","2","5","2","6","5","6","5","5","3","6","2","5","2","7","3","5","766966737248980993","吴","697","Female","[""好我"",""坏我"",""坏她"",""好她""]","[""强我"",""弱我"",""弱她"",""强她""]","","","","","","","","no","","","","","","","","","SRET","EW_formal","","key","f","16.681330275229485","683","380","自己","歹毒","Negative","morality","","","","","","","","","","",""
"1029","","f","psychophysics","56","263096","0.0-7.0-3.0-0.42","6","5","6","5","3","4","2","5","5","5","5","0","1","0","0","-1","1","0","1","5","4","5","5","4","4","4","4","5","4","4","6","5","6","4","5","5","6","6","5","6","5","5","6","3","5","6","5","5","1","3","3","6","2","5","3","6","3","5","5","2","5","3","3","2","5","2","6","5","6","5","5","3","6","2","5","2","7","3","5","766966737248980993","吴","697","Female","[""好我"",""坏我"",""坏她"",""好她""]","[""强我"",""弱我"",""弱她"",""强她""]","","","","","","","","no","","","","","","","","","SRET","EW_formal","","key","f","19.407673076922947","683","380","自己","淫乱","Negative","morality","","","","","","","","","","",""
"729","","f","psychophysics","57","264828","0.0-7.0-3.0-0.43","6","5","6","5","3","4","2","5","5","5","5","0","1","0","0","-1","1","0","1","5","4","5","5","4","4","4","4","5","4","4","6","5","6","4","5","5","6","6","5","6","5","5","6","3","5","6","5","5","1","3","3","6","2","5","3","6","3","5","5","2","5","3","3","2","5","2","6","5","6","5","5","3","6","2","5","2","7","3","5","766966737248980993","吴","697","Female","[""好我"",""坏我"",""坏她"",""好她""]","[""强我"",""弱我"",""弱她"",""强她""]","","","","","","","","no","","","","","","","","","SRET","EW_formal","","key","f","16.680940594059635","683","380","自己","不端","Negative","morality","","","","","","","","","","",""
"622","","f","psychophysics","58","266480","0.0-7.0-3.0-0.44","6","5","6","5","3","4","2","5","5","5","5","0","1","0","0","-1","1","0","1","5","4","5","5","4","4","4","4","5","4","4","6","5","6","4","5","5","6","6","5","6","5","5","6","3","5","6","5","5","1","3","3","6","2","5","3","6","3","5","5","2","5","3","3","2","5","2","6","5","6","5","5","3","6","2","5","2","7","3","5","766966737248980993","吴","697","Female","[""好我"",""坏我"",""坏她"",""好她""]","[""强我"",""弱我"",""弱她"",""强她""]","","","","","","","","no","","","","","","","","","SRET","EW_formal","","key","f","17.020857142857086","683","380","自己","龌龊","Negative","morality","","","","","","","","","","",""
"996","","j","psychophysics","59","268478","0.0-7.0-3.0-0.45","6","5","6","5","3","4","2","5","5","5","5","0","1","0","0","-1","1","0","1","5","4","5","5","4","4","4","4","5","4","4","6","5","6","4","5","5","6","6","5","6","5","5","6","3","5","6","5","5","1","3","3","6","2","5","3","6","3","5","5","2","5","3","3","2","5","2","6","5","6","5","5","3","6","2","5","2","7","3","5","766966737248980993","吴","697","Female","[""好我"",""坏我"",""坏她"",""好她""]","[""强我"",""弱我"",""弱她"",""强她""]","","","","","","","","yes","","","","","","","","","SRET","EW_formal","","key","j","16.681235294117485","683","380","自己","刻苦","Positive","ability","","","","","","","","","","",""
"636","","j","psychophysics","60","270118","0.0-7.0-3.0-0.46","6","5","6","5","3","4","2","5","5","5","5","0","1","0","0","-1","1","0","1","5","4","5","5","4","4","4","4","5","4","4","6","5","6","4","5","5","6","6","5","6","5","5","6","3","5","6","5","5","1","3","3","6","2","5","3","6","3","5","5","2","5","3","3","2","5","2","6","5","6","5","5","3","6","2","5","2","7","3","5","766966737248980993","吴","697","Female","[""好我"",""坏我"",""坏她"",""好她""]","[""强我"",""弱我"",""弱她"",""强她""]","","","","","","","","yes","","","","","","","","","SRET","EW_formal","","key","j","16.68140206185587","683","380","自己","上进","Positive","ability","","","","","","","","","","",""
"676","","f","psychophysics","61","271798","0.0-7.0-3.0-0.47","6","5","6","5","3","4","2","5","5","5","5","0","1","0","0","-1","1","0","1","5","4","5","5","4","4","4","4","5","4","4","6","5","6","4","5","5","6","6","5","6","5","5","6","3","5","6","5","5","1","3","3","6","2","5","3","6","3","5","5","2","5","3","3","2","5","2","6","5","6","5","5","3","6","2","5","2","7","3","5","766966737248980993","吴","697","Female","[""好我"",""坏我"",""坏她"",""好她""]","[""强我"",""弱我"",""弱她"",""强她""]","","","","","","","","no","","","","","","","","","SRET","EW_formal","","key","f","16.679899999999908","683","380","朋友","虚假","Negative","morality","","","","","","","","","","",""
"688","","f","psychophysics","62","273490","0.0-7.0-3.0-0.48","6","5","6","5","3","4","2","5","5","5","5","0","1","0","0","-1","1","0","1","5","4","5","5","4","4","4","4","5","4","4","6","5","6","4","5","5","6","6","5","6","5","5","6","3","5","6","5","5","1","3","3","6","2","5","3","6","3","5","5","2","5","3","3","2","5","2","6","5","6","5","5","3","6","2","5","2","7","3","5","766966737248980993","吴","697","Female","[""好我"",""坏我"",""坏她"",""好她""]","[""强我"",""弱我"",""弱她"",""强她""]","","","","","","","","no","","","","","","","","","SRET","EW_formal","","key","f","16.84947474747473","683","380","朋友","贪污","Negative","morality","","","","","","","","","","",""
"745","","f","psychophysics","63","275242","0.0-7.0-3.0-0.49","6","5","6","5","3","4","2","5","5","5","5","0","1","0","0","-1","1","0","1","5","4","5","5","4","4","4","4","5","4","4","6","5","6","4","5","5","6","6","5","6","5","5","6","3","5","6","5","5","1","3","3","6","2","5","3","6","3","5","5","2","5","3","3","2","5","2","6","5","6","5","5","3","6","2","5","2","7","3","5","766966737248980993","吴","697","Female","[""好我"",""坏我"",""坏她"",""好她""]","[""强我"",""弱我"",""弱她"",""强她""]","","","","","","","","no","","","","","","","","","SRET","EW_formal","","key","f","16.68151923076892","683","380","朋友","外行","Negative","ability","","","","","","","","","","",""
"649","","j","psychophysics","64","276904","0.0-7.0-3.0-0.50","6","5","6","5","3","4","2","5","5","5","5","0","1","0","0","-1","1","0","1","5","4","5","5","4","4","4","4","5","4","4","6","5","6","4","5","5","6","6","5","6","5","5","6","3","5","6","5","5","1","3","3","6","2","5","3","6","3","5","5","2","5","3","3","2","5","2","6","5","6","5","5","3","6","2","5","2","7","3","5","766966737248980993","吴","697","Female","[""好我"",""坏我"",""坏她"",""好她""]","[""强我"",""弱我"",""弱她"",""强她""]","","","","","","","","yes","","","","","","","","","SRET","EW_formal","","key","j","16.680242424242252","683","380","自己","独立","Positive","ability","","","","","","","","","","",""
"664","","j","psychophysics","65","278578","0.0-7.0-3.0-0.51","6","5","6","5","3","4","2","5","5","5","5","0","1","0","0","-1","1","0","1","5","4","5","5","4","4","4","4","5","4","4","6","5","6","4","5","5","6","6","5","6","5","5","6","3","5","6","5","5","1","3","3","6","2","5","3","6","3","5","5","2","5","3","3","2","5","2","6","5","6","5","5","3","6","2","5","2","7","3","5","766966737248980993","吴","697","Female","[""好我"",""坏我"",""坏她"",""好她""]","[""强我"",""弱我"",""弱她"",""强她""]","","","","","","","","yes","","","","","","","","","SRET","EW_formal","","key","j","16.681181818182168","683","380","朋友","忠义","Positive","morality","","","","","","","","","","",""
"647","","f","psychophysics","66","280233","0.0-7.0-3.0-0.52","6","5","6","5","3","4","2","5","5","5","5","0","1","0","0","-1","1","0","1","5","4","5","5","4","4","4","4","5","4","4","6","5","6","4","5","5","6","6","5","6","5","5","6","3","5","6","5","5","1","3","3","6","2","5","3","6","3","5","5","2","5","3","3","2","5","2","6","5","6","5","5","3","6","2","5","2","7","3","5","766966737248980993","吴","697","Female","[""好我"",""坏我"",""坏她"",""好她""]","[""强我"",""弱我"",""弱她"",""强她""]","","","","","","","","no","","","","","","","","","SRET","EW_formal","","key","f","16.853268041237037","683","380","自己","虚伪","Negative","morality","","","","","","","","","","",""
"777","","j","psychophysics","67","282014","0.0-7.0-3.0-0.53","6","5","6","5","3","4","2","5","5","5","5","0","1","0","0","-1","1","0","1","5","4","5","5","4","4","4","4","5","4","4","6","5","6","4","5","5","6","6","5","6","5","5","6","3","5","6","5","5","1","3","3","6","2","5","3","6","3","5","5","2","5","3","3","2","5","2","6","5","6","5","5","3","6","2","5","2","7","3","5","766966737248980993","吴","697","Female","[""好我"",""坏我"",""坏她"",""好她""]","[""强我"",""弱我"",""弱她"",""强她""]","","","","","","","","yes","","","","","","","","","SRET","EW_formal","","key","j","16.83999047619069","683","380","自己","毅力","Positive","ability","","","","","","","","","","",""
"663","","j","psychophysics","68","283680","0.0-7.0-3.0-0.54","6","5","6","5","3","4","2","5","5","5","5","0","1","0","0","-1","1","0","1","5","4","5","5","4","4","4","4","5","4","4","6","5","6","4","5","5","6","6","5","6","5","5","6","3","5","6","5","5","1","3","3","6","2","5","3","6","3","5","5","2","5","3","3","2","5","2","6","5","6","5","5","3","6","2","5","2","7","3","5","766966737248980993","吴","697","Female","[""好我"",""坏我"",""坏她"",""好她""]","[""强我"",""弱我"",""弱她"",""强她""]","","","","","","","","yes","","","","","","","","","SRET","EW_formal","","key","j","16.681454545454326","683","380","朋友","诚信","Positive","morality","","","","","","","","","","",""
"589","","j","psychophysics","69","285279","0.0-7.0-3.0-0.55","6","5","6","5","3","4","2","5","5","5","5","0","1","0","0","-1","1","0","1","5","4","5","5","4","4","4","4","5","4","4","6","5","6","4","5","5","6","6","5","6","5","5","6","3","5","6","5","5","1","3","3","6","2","5","3","6","3","5","5","2","5","3","3","2","5","2","6","5","6","5","5","3","6","2","5","2","7","3","5","766966737248980993","吴","697","Female","[""好我"",""坏我"",""坏她"",""好她""]","[""强我"",""弱我"",""弱她"",""强她""]","","","","","","","","yes","","","","","","","","","SRET","EW_formal","","key","j","16.680989473683784","683","380","自己","博学","Positive","ability","","","","","","","","","","",""
"701","","f","psychophysics","70","286983","0.0-7.0-3.0-0.56","6","5","6","5","3","4","2","5","5","5","5","0","1","0","0","-1","1","0","1","5","4","5","5","4","4","4","4","5","4","4","6","5","6","4","5","5","6","6","5","6","5","5","6","3","5","6","5","5","1","3","3","6","2","5","3","6","3","5","5","2","5","3","3","2","5","2","6","5","6","5","5","3","6","2","5","2","7","3","5","766966737248980993","吴","697","Female","[""好我"",""坏我"",""坏她"",""好她""]","[""强我"",""弱我"",""弱她"",""强她""]","","","","","","","","no","","","","","","","","","SRET","EW_formal","","key","f","16.680891089109096","683","380","朋友","腐败","Negative","morality","","","","","","","","","","",""
"752","","j","psychophysics","71","288738","0.0-7.0-3.0-0.57","6","5","6","5","3","4","2","5","5","5","5","0","1","0","0","-1","1","0","1","5","4","5","5","4","4","4","4","5","4","4","6","5","6","4","5","5","6","6","5","6","5","5","6","3","5","6","5","5","1","3","3","6","2","5","3","6","3","5","5","2","5","3","3","2","5","2","6","5","6","5","5","3","6","2","5","2","7","3","5","766966737248980993","吴","697","Female","[""好我"",""坏我"",""坏她"",""好她""]","[""强我"",""弱我"",""弱她"",""强她""]","","","","","","","","yes","","","","","","","","","SRET","EW_formal","","key","j","16.681951923077015","683","380","自己","娴熟","Positive","ability","","","","","","","","","","",""
"593","","j","psychophysics","72","290342","0.0-7.0-3.0-0.58","6","5","6","5","3","4","2","5","5","5","5","0","1","0","0","-1","1","0","1","5","4","5","5","4","4","4","4","5","4","4","6","5","6","4","5","5","6","6","5","6","5","5","6","3","5","6","5","5","1","3","3","6","2","5","3","6","3","5","5","2","5","3","3","2","5","2","6","5","6","5","5","3","6","2","5","2","7","3","5","766966737248980993","吴","697","Female","[""好我"",""坏我"",""坏她"",""好她""]","[""强我"",""弱我"",""弱她"",""强她""]","","","","","","","","yes","","","","","","","","","SRET","EW_formal","","key","j","16.680926315789723","683","380","自己","仗义","Positive","morality","","","","","","","","","","",""
"677","","f","psychophysics","73","292026","0.0-7.0-3.0-0.59","6","5","6","5","3","4","2","5","5","5","5","0","1","0","0","-1","1","0","1","5","4","5","5","4","4","4","4","5","4","4","6","5","6","4","5","5","6","6","5","6","5","5","6","3","5","6","5","5","1","3","3","6","2","5","3","6","3","5","5","2","5","3","3","2","5","2","6","5","6","5","5","3","6","2","5","2","7","3","5","766966737248980993","吴","697","Female","[""好我"",""坏我"",""坏她"",""好她""]","[""强我"",""弱我"",""弱她"",""强她""]","","","","","","","","no","","","","","","","","","SRET","EW_formal","","key","f","16.681330000000308","683","380","自己","无耻","Negative","morality","","","","","","","","","","",""
"700","","f","psychophysics","74","293734","0.0-7.0-3.0-0.60","6","5","6","5","3","4","2","5","5","5","5","0","1","0","0","-1","1","0","1","5","4","5","5","4","4","4","4","5","4","4","6","5","6","4","5","5","6","6","5","6","5","5","6","3","5","6","5","5","1","3","3","6","2","5","3","6","3","5","5","2","5","3","3","2","5","2","6","5","6","5","5","3","6","2","5","2","7","3","5","766966737248980993","吴","697","Female","[""好我"",""坏我"",""坏她"",""好她""]","[""强我"",""弱我"",""弱她"",""强她""]","","","","","","","","no","","","","","","","","","SRET","EW_formal","","key","f","16.8459801980194","683","380","朋友","黑心","Negative","morality","","","","","","","","","","",""
"686","","j","psychophysics","75","295424","0.0-7.0-3.0-0.61","6","5","6","5","3","4","2","5","5","5","5","0","1","0","0","-1","1","0","1","5","4","5","5","4","4","4","4","5","4","4","6","5","6","4","5","5","6","6","5","6","5","5","6","3","5","6","5","5","1","3","3","6","2","5","3","6","3","5","5","2","5","3","3","2","5","2","6","5","6","5","5","3","6","2","5","2","7","3","5","766966737248980993","吴","697","Female","[""好我"",""坏我"",""坏她"",""好她""]","[""强我"",""弱我"",""弱她"",""强她""]","","","","","","","","yes","","","","","","","","","SRET","EW_formal","","key","j","16.68246000000043","683","380","自己","专注","Positive","ability","","","","","","","","","","",""
"797","","f","psychophysics","76","297230","0.0-7.0-3.0-0.62","6","5","6","5","3","4","2","5","5","5","5","0","1","0","0","-1","1","0","1","5","4","5","5","4","4","4","4","5","4","4","6","5","6","4","5","5","6","6","5","6","5","5","6","3","5","6","5","5","1","3","3","6","2","5","3","6","3","5","5","2","5","3","3","2","5","2","6","5","6","5","5","3","6","2","5","2","7","3","5","766966737248980993","吴","697","Female","[""好我"",""坏我"",""坏她"",""好她""]","[""强我"",""弱我"",""弱她"",""强她""]","","","","","","","","no","","","","","","","","","SRET","EW_formal","","key","f","16.68195327102842","683","380","朋友","废物","Negative","ability","","","","","","","","","","",""
"772","","f","psychophysics","77","299007","0.0-7.0-3.0-0.63","6","5","6","5","3","4","2","5","5","5","5","0","1","0","0","-1","1","0","1","5","4","5","5","4","4","4","4","5","4","4","6","5","6","4","5","5","6","6","5","6","5","5","6","3","5","6","5","5","1","3","3","6","2","5","3","6","3","5","5","2","5","3","3","2","5","2","6","5","6","5","5","3","6","2","5","2","7","3","5","766966737248980993","吴","697","Female","[""好我"",""坏我"",""坏她"",""好她""]","[""强我"",""弱我"",""弱她"",""强她""]","","","","","","","","no","","","","","","","","","SRET","EW_formal","","key","f","16.68149056603785","683","380","朋友","拖拉","Negative","ability","","","","","","","","","","",""
"1010","","j","psychophysics","78","301020","0.0-7.0-3.0-0.64","6","5","6","5","3","4","2","5","5","5","5","0","1","0","0","-1","1","0","1","5","4","5","5","4","4","4","4","5","4","4","6","5","6","4","5","5","6","6","5","6","5","5","6","3","5","6","5","5","1","3","3","6","2","5","3","6","3","5","5","2","5","3","3","2","5","2","6","5","6","5","5","3","6","2","5","2","7","3","5","766966737248980993","吴","697","Female","[""好我"",""坏我"",""坏她"",""好她""]","[""强我"",""弱我"",""弱她"",""强她""]","","","","","","","","yes","","","","","","","","","SRET","EW_formal","","key","j","16.681647058823362","683","380","朋友","拖延","Negative","ability","","","","","","","","","","",""
"969","","f","psychophysics","79","302996","0.0-7.0-3.0-0.65","6","5","6","5","3","4","2","5","5","5","5","0","1","0","0","-1","1","0","1","5","4","5","5","4","4","4","4","5","4","4","6","5","6","4","5","5","6","6","5","6","5","5","6","3","5","6","5","5","1","3","3","6","2","5","3","6","3","5","5","2","5","3","3","2","5","2","6","5","6","5","5","3","6","2","5","2","7","3","5","766966737248980993","吴","697","Female","[""好我"",""坏我"",""坏她"",""好她""]","[""强我"",""弱我"",""弱她"",""强她""]","","","","","","","","no","","","","","","","","","SRET","EW_formal","","key","f","16.682262711864265","683","380","自己","迂拙","Negative","ability","","","","","","","","","","",""
"624","","j","psychophysics","80","304627","0.0-7.0-3.0-0.66","6","5","6","5","3","4","2","5","5","5","5","0","1","0","0","-1","1","0","1","5","4","5","5","4","4","4","4","5","4","4","6","5","6","4","5","5","6","6","5","6","5","5","6","3","5","6","5","5","1","3","3","6","2","5","3","6","3","5","5","2","5","3","3","2","5","2","6","5","6","5","5","3","6","2","5","2","7","3","5","766966737248980993","吴","697","Female","[""好我"",""坏我"",""坏她"",""好她""]","[""强我"",""弱我"",""弱她"",""强她""]","","","","","","","","yes","","","","","","","","","SRET","EW_formal","","key","j","16.85502083333328","683","380","自己","好心","Positive","morality","","","","","","","","","","",""
"743","","j","psychophysics","81","306378","0.0-7.0-3.0-0.67","6","5","6","5","3","4","2","5","5","5","5","0","1","0","0","-1","1","0","1","5","4","5","5","4","4","4","4","5","4","4","6","5","6","4","5","5","6","6","5","6","5","5","6","3","5","6","5","5","1","3","3","6","2","5","3","6","3","5","5","2","5","3","3","2","5","2","6","5","6","5","5","3","6","2","5","2","7","3","5","766966737248980993","吴","697","Female","[""好我"",""坏我"",""坏她"",""好她""]","[""强我"",""弱我"",""弱她"",""强她""]","","","","","","","","yes","","","","","","","","","SRET","EW_formal","","key","j","16.681230769231313","683","380","自己","厚道","Positive","morality","","","","","","","","","","",""
"949","","f","psychophysics","82","308336","0.0-7.0-3.0-0.68","6","5","6","5","3","4","2","5","5","5","5","0","1","0","0","-1","1","0","1","5","4","5","5","4","4","4","4","5","4","4","6","5","6","4","5","5","6","6","5","6","5","5","6","3","5","6","5","5","1","3","3","6","2","5","3","6","3","5","5","2","5","3","3","2","5","2","6","5","6","5","5","3","6","2","5","2","7","3","5","766966737248980993","吴","697","Female","[""好我"",""坏我"",""坏她"",""好她""]","[""强我"",""弱我"",""弱她"",""强她""]","","","","","","","","no","","","","","","","","","SRET","EW_formal","","key","f","16.68106034482781","683","380","朋友","罪恶","Negative","morality","","","","","","","","","","",""
"971","","j","psychophysics","83","310310","0.0-7.0-3.0-0.69","6","5","6","5","3","4","2","5","5","5","5","0","1","0","0","-1","1","0","1","5","4","5","5","4","4","4","4","5","4","4","6","5","6","4","5","5","6","6","5","6","5","5","6","3","5","6","5","5","1","3","3","6","2","5","3","6","3","5","5","2","5","3","3","2","5","2","6","5","6","5","5","3","6","2","5","2","7","3","5","766966737248980993","吴","697","Female","[""好我"",""坏我"",""坏她"",""好她""]","[""强我"",""弱我"",""弱她"",""强她""]","","","","","","","","yes","","","","","","","","","SRET","EW_formal","","key","j","16.681102564102677","683","380","朋友","顶事","Positive","ability","","","","","","","","","","",""
"1019","","j","psychophysics","84","312337","0.0-7.0-3.0-0.70","6","5","6","5","3","4","2","5","5","5","5","0","1","0","0","-1","1","0","1","5","4","5","5","4","4","4","4","5","4","4","6","5","6","4","5","5","6","6","5","6","5","5","6","3","5","6","5","5","1","3","3","6","2","5","3","6","3","5","5","2","5","3","3","2","5","2","6","5","6","5","5","3","6","2","5","2","7","3","5","766966737248980993","吴","697","Female","[""好我"",""坏我"",""坏她"",""好她""]","[""强我"",""弱我"",""弱她"",""强她""]","","","","","","","","yes","","","","","","","","","SRET","EW_formal","","key","j","16.82087500000004","683","380","自己","仁爱","Positive","morality","","","","","","","","","","",""
"1191","","j","psychophysics","85","314539","0.0-7.0-3.0-0.71","6","5","6","5","3","4","2","5","5","5","5","0","1","0","0","-1","1","0","1","5","4","5","5","4","4","4","4","5","4","4","6","5","6","4","5","5","6","6","5","6","5","5","6","3","5","6","5","5","1","3","3","6","2","5","3","6","3","5","5","2","5","3","3","2","5","2","6","5","6","5","5","3","6","2","5","2","7","3","5","766966737248980993","吴","697","Female","[""好我"",""坏我"",""坏她"",""好她""]","[""强我"",""弱我"",""弱她"",""强她""]","","","","","","","","yes","","","","","","","","","SRET","EW_formal","","key","j","16.681206106869876","683","380","朋友","有力","Positive","ability","","","","","","","","","","",""
"1249","","j","psychophysics","86","316796","0.0-7.0-3.0-0.72","6","5","6","5","3","4","2","5","5","5","5","0","1","0","0","-1","1","0","1","5","4","5","5","4","4","4","4","5","4","4","6","5","6","4","5","5","6","6","5","6","5","5","6","3","5","6","5","5","1","3","3","6","2","5","3","6","3","5","5","2","5","3","3","2","5","2","6","5","6","5","5","3","6","2","5","2","7","3","5","766966737248980993","吴","697","Female","[""好我"",""坏我"",""坏她"",""好她""]","[""强我"",""弱我"",""弱她"",""强她""]","","","","","","","","yes","","","","","","","","","SRET","EW_formal","","key","j","16.681880597014732","683","380","自己","逞能","Negative","ability","","","","","","","","","","",""
"790","","f","psychophysics","87","318593","0.0-7.0-3.0-0.73","6","5","6","5","3","4","2","5","5","5","5","0","1","0","0","-1","1","0","1","5","4","5","5","4","4","4","4","5","4","4","6","5","6","4","5","5","6","6","5","6","5","5","6","3","5","6","5","5","1","3","3","6","2","5","3","6","3","5","5","2","5","3","3","2","5","2","6","5","6","5","5","3","6","2","5","2","7","3","5","766966737248980993","吴","697","Female","[""好我"",""坏我"",""坏她"",""好她""]","[""强我"",""弱我"",""弱她"",""强她""]","","","","","","","","no","","","","","","","","","SRET","EW_formal","","key","f","16.838632075471875","683","380","自己","短浅","Negative","ability","","","","","","","","","","",""
"908","","f","psychophysics","88","320504","0.0-7.0-3.0-0.74","6","5","6","5","3","4","2","5","5","5","5","0","1","0","0","-1","1","0","1","5","4","5","5","4","4","4","4","5","4","4","6","5","6","4","5","5","6","6","5","6","5","5","6","3","5","6","5","5","1","3","3","6","2","5","3","6","3","5","5","2","5","3","3","2","5","2","6","5","6","5","5","3","6","2","5","2","7","3","5","766966737248980993","吴","697","Female","[""好我"",""坏我"",""坏她"",""好她""]","[""强我"",""弱我"",""弱她"",""强她""]","","","","","","","","no","","","","","","","","","SRET","EW_formal","","key","f","16.681318584070294","683","380","自己","失信","Negative","morality","","","","","","","","","","",""
"736","","j","psychophysics","89","322244","0.0-7.0-3.0-0.75","6","5","6","5","3","4","2","5","5","5","5","0","1","0","0","-1","1","0","1","5","4","5","5","4","4","4","4","5","4","4","6","5","6","4","5","5","6","6","5","6","5","5","6","3","5","6","5","5","1","3","3","6","2","5","3","6","3","5","5","2","5","3","3","2","5","2","6","5","6","5","5","3","6","2","5","2","7","3","5","766966737248980993","吴","697","Female","[""好我"",""坏我"",""坏她"",""好她""]","[""强我"",""弱我"",""弱她"",""强她""]","","","","","","","","yes","","","","","","","","","SRET","EW_formal","","key","j","16.8428058252428","683","380","朋友","善心","Positive","morality","","","","","","","","","","",""
"1263","","f","psychophysics","90","324515","0.0-7.0-3.0-0.76","6","5","6","5","3","4","2","5","5","5","5","0","1","0","0","-1","1","0","1","5","4","5","5","4","4","4","4","5","4","4","6","5","6","4","5","5","6","6","5","6","5","5","6","3","5","6","5","5","1","3","3","6","2","5","3","6","3","5","5","2","5","3","3","2","5","2","6","5","6","5","5","3","6","2","5","2","7","3","5","766966737248980993","吴","697","Female","[""好我"",""坏我"",""坏她"",""好她""]","[""强我"",""弱我"",""弱她"",""强她""]","","","","","","","","no","","","","","","","","","SRET","EW_formal","","key","f","16.681222222222413","683","380","自己","无能","Negative","ability","","","","","","","","","","",""
"916","","f","psychophysics","91","326439","0.0-7.0-3.0-0.77","6","5","6","5","3","4","2","5","5","5","5","0","1","0","0","-1","1","0","1","5","4","5","5","4","4","4","4","5","4","4","6","5","6","4","5","5","6","6","5","6","5","5","6","3","5","6","5","5","1","3","3","6","2","5","3","6","3","5","5","2","5","3","3","2","5","2","6","5","6","5","5","3","6","2","5","2","7","3","5","766966737248980993","吴","697","Female","[""好我"",""坏我"",""坏她"",""好她""]","[""强我"",""弱我"",""弱她"",""强她""]","","","","","","","","no","","","","","","","","","SRET","EW_formal","","key","f","16.680649122807377","683","380","朋友","昏庸","Negative","ability","","","","","","","","","","",""
"697","","j","psychophysics","92","328141","0.0-7.0-3.0-0.78","6","5","6","5","3","4","2","5","5","5","5","0","1","0","0","-1","1","0","1","5","4","5","5","4","4","4","4","5","4","4","6","5","6","4","5","5","6","6","5","6","5","5","6","3","5","6","5","5","1","3","3","6","2","5","3","6","3","5","5","2","5","3","3","2","5","2","6","5","6","5","5","3","6","2","5","2","7","3","5","766966737248980993","吴","697","Female","[""好我"",""坏我"",""坏她"",""好她""]","[""强我"",""弱我"",""弱她"",""强她""]","","","","","","","","yes","","","","","","","","","SRET","EW_formal","","key","j","16.68142574257448","683","380","自己","勤恳","Positive","morality","","","","","","","","","","",""
"985","","f","psychophysics","93","330135","0.0-7.0-3.0-0.79","6","5","6","5","3","4","2","5","5","5","5","0","1","0","0","-1","1","0","1","5","4","5","5","4","4","4","4","5","4","4","6","5","6","4","5","5","6","6","5","6","5","5","6","3","5","6","5","5","1","3","3","6","2","5","3","6","3","5","5","2","5","3","3","2","5","2","6","5","6","5","5","3","6","2","5","2","7","3","5","766966737248980993","吴","697","Female","[""好我"",""坏我"",""坏她"",""好她""]","[""强我"",""弱我"",""弱她"",""强她""]","","","","","","","","no","","","","","","","","","SRET","EW_formal","","key","f","16.681521008403077","683","380","自己","愚钝","Negative","ability","","","","","","","","","","",""
"1232","","j","psychophysics","94","332372","0.0-7.0-3.0-0.80","6","5","6","5","3","4","2","5","5","5","5","0","1","0","0","-1","1","0","1","5","4","5","5","4","4","4","4","5","4","4","6","5","6","4","5","5","6","6","5","6","5","5","6","3","5","6","5","5","1","3","3","6","2","5","3","6","3","5","5","2","5","3","3","2","5","2","6","5","6","5","5","3","6","2","5","2","7","3","5","766966737248980993","吴","697","Female","[""好我"",""坏我"",""坏她"",""好她""]","[""强我"",""弱我"",""弱她"",""强她""]","","","","","","","","yes","","","","","","","","","SRET","EW_formal","","key","j","16.681165413533623","683","380","朋友","智慧","Positive","ability","","","","","","","","","","",""
"641","","j","psychophysics","95","334021","0.0-7.0-3.0-0.81","6","5","6","5","3","4","2","5","5","5","5","0","1","0","0","-1","1","0","1","5","4","5","5","4","4","4","4","5","4","4","6","5","6","4","5","5","6","6","5","6","5","5","6","3","5","6","5","5","1","3","3","6","2","5","3","6","3","5","5","2","5","3","3","2","5","2","6","5","6","5","5","3","6","2","5","2","7","3","5","766966737248980993","吴","697","Female","[""好我"",""坏我"",""坏她"",""好她""]","[""强我"",""弱我"",""弱她"",""强她""]","","","","","","","","yes","","","","","","","","","SRET","EW_formal","","key","j","16.681418367347334","683","380","自己","礼貌","Positive","morality","","","","","","","","","","",""
"782","","f","psychophysics","96","335809","0.0-7.0-3.0-0.82","6","5","6","5","3","4","2","5","5","5","5","0","1","0","0","-1","1","0","1","5","4","5","5","4","4","4","4","5","4","4","6","5","6","4","5","5","6","6","5","6","5","5","6","3","5","6","5","5","1","3","3","6","2","5","3","6","3","5","5","2","5","3","3","2","5","2","6","5","6","5","5","3","6","2","5","2","7","3","5","766966737248980993","吴","697","Female","[""好我"",""坏我"",""坏她"",""好她""]","[""强我"",""弱我"",""弱她"",""强她""]","","","","","","","","no","","","","","","","","","SRET","EW_formal","","key","f","16.68127358490535","683","380","自己","势利","Negative","morality","","","","","","","","","","",""
"621","","j","psychophysics","97","337433","0.0-7.0-3.0-0.83","6","5","6","5","3","4","2","5","5","5","5","0","1","0","0","-1","1","0","1","5","4","5","5","4","4","4","4","5","4","4","6","5","6","4","5","5","6","6","5","6","5","5","6","3","5","6","5","5","1","3","3","6","2","5","3","6","3","5","5","2","5","3","3","2","5","2","6","5","6","5","5","3","6","2","5","2","7","3","5","766966737248980993","吴","697","Female","[""好我"",""坏我"",""坏她"",""好她""]","[""强我"",""弱我"",""弱她"",""强她""]","","","","","","","","yes","","","","","","","","","SRET","EW_formal","","key","j","16.681791666666566","683","380","朋友","自律","Positive","ability","","","","","","","","","","",""
"960","","j","psychophysics","98","339396","0.0-7.0-3.0-0.84","6","5","6","5","3","4","2","5","5","5","5","0","1","0","0","-1","1","0","1","5","4","5","5","4","4","4","4","5","4","4","6","5","6","4","5","5","6","6","5","6","5","5","6","3","5","6","5","5","1","3","3","6","2","5","3","6","3","5","5","2","5","3","3","2","5","2","6","5","6","5","5","3","6","2","5","2","7","3","5","766966737248980993","吴","697","Female","[""好我"",""坏我"",""坏她"",""好她""]","[""强我"",""弱我"",""弱她"",""强她""]","","","","","","","","yes","","","","","","","","","SRET","EW_formal","","key","j","16.6814017094016","683","380","朋友","素养","Positive","morality","","","","","","","","","","",""
"763","","f","psychophysics","99","341167","0.0-7.0-3.0-0.85","6","5","6","5","3","4","2","5","5","5","5","0","1","0","0","-1","1","0","1","5","4","5","5","4","4","4","4","5","4","4","6","5","6","4","5","5","6","6","5","6","5","5","6","3","5","6","5","5","1","3","3","6","2","5","3","6","3","5","5","2","5","3","3","2","5","2","6","5","6","5","5","3","6","2","5","2","7","3","5","766966737248980993","吴","697","Female","[""好我"",""坏我"",""坏她"",""好她""]","[""强我"",""弱我"",""弱她"",""强她""]","","","","","","","","no","","","","","","","","","SRET","EW_formal","","key","f","16.680895238095296","683","380","朋友","低俗","Negative","morality","","","","","","","","","","",""
"676","","j","psychophysics","100","342848","0.0-7.0-3.0-0.86","6","5","6","5","3","4","2","5","5","5","5","0","1","0","0","-1","1","0","1","5","4","5","5","4","4","4","4","5","4","4","6","5","6","4","5","5","6","6","5","6","5","5","6","3","5","6","5","5","1","3","3","6","2","5","3","6","3","5","5","2","5","3","3","2","5","2","6","5","6","5","5","3","6","2","5","2","7","3","5","766966737248980993","吴","697","Female","[""好我"",""坏我"",""坏她"",""好她""]","[""强我"",""弱我"",""弱她"",""强她""]","","","","","","","","yes","","","","","","","","","SRET","EW_formal","","key","j","16.849717171716907","683","380","自己","主见","Positive","ability","","","","","","","","","","",""
"973","","f","psychophysics","101","344825","0.0-7.0-3.0-0.87","6","5","6","5","3","4","2","5","5","5","5","0","1","0","0","-1","1","0","1","5","4","5","5","4","4","4","4","5","4","4","6","5","6","4","5","5","6","6","5","6","5","5","6","3","5","6","5","5","1","3","3","6","2","5","3","6","3","5","5","2","5","3","3","2","5","2","6","5","6","5","5","3","6","2","5","2","7","3","5","766966737248980993","吴","697","Female","[""好我"",""坏我"",""坏她"",""好她""]","[""强我"",""弱我"",""弱她"",""强她""]","","","","","","","","no","","","","","","","","","SRET","EW_formal","","key","f","16.68082051282066","683","380","自己","缓慢","Negative","ability","","","","","","","","","","",""
"11071","
    <p><div style='color:white;font-size:35px; line-height:20px;'>计算任务</div></p><br>
    <p><div style='color:red;font-size:25px; line-height:20px;'>接下来，您将看到一些四则运算题，<b>请从键盘选择 0-9 进行反应。</b></div></p>
    <p><div style='color:red;font-size:25px; line-height:20px;'>请尽可能快地进行计算，计算的速度和正确率将影响报酬的发放。</div></p>
    <p><div class='footer' style='color:white;font-size:25px; line-height:20px;'>如果对本实验还有不清楚之处，请立即向实验员咨询。</p><p style='color:white;font-size:25px; line-height:20px;'>如果您明白了规则：</p><p style='color:white;font-size:22px; line-height:20px;'>请按 继续 进入练习</p>
    </div>
    ","0","html-button-response","102","355900","0.0-7.0-4.0","6","5","6","5","3","4","2","5","5","5","5","0","1","0","0","-1","1","0","1","5","4","5","5","4","4","4","4","5","4","4","6","5","6","4","5","5","6","6","5","6","5","5","6","3","5","6","5","5","1","3","3","6","2","5","3","6","3","5","5","2","5","3","3","2","5","2","6","5","6","5","5","3","6","2","5","2","7","3","5","766966737248980993","吴","697","Female","[""好我"",""坏我"",""坏她"",""好她""]","[""强我"",""弱我"",""弱她"",""强她""]","","","","","","","","","","","","","","","","","SRET_math","math_instructions","Wed Jan 10 2024 18:13:36 GMT+0800 (中国标准时间)","","","","","","","","","","","","","","","","","","","",""
"2206","","2","psychophysics","103","358116","0.0-7.0-5.0-0.0","6","5","6","5","3","4","2","5","5","5","5","0","1","0","0","-1","1","0","1","5","4","5","5","4","4","4","4","5","4","4","6","5","6","4","5","5","6","6","5","6","5","5","6","3","5","6","5","5","1","3","3","6","2","5","3","6","3","5","5","2","5","3","3","2","5","2","6","5","6","5","5","3","6","2","5","2","7","3","5","766966737248980993","吴","697","Female","[""好我"",""坏我"",""坏她"",""好她""]","[""强我"",""弱我"",""弱她"",""强她""]","","","","","","","","2","","","","","","","","","SRET","SRET_math_calculate","","key","2","16.80788636363639","683","380","","","","","8-6= ?","2","1","","","","","","","",""
"2476","","9","psychophysics","104","360628","0.0-7.0-5.0-0.1","6","5","6","5","3","4","2","5","5","5","5","0","1","0","0","-1","1","0","1","5","4","5","5","4","4","4","4","5","4","4","6","5","6","4","5","5","6","6","5","6","5","5","6","3","5","6","5","5","1","3","3","6","2","5","3","6","3","5","5","2","5","3","3","2","5","2","6","5","6","5","5","3","6","2","5","2","7","3","5","766966737248980993","吴","697","Female","[""好我"",""坏我"",""坏她"",""好她""]","[""强我"",""弱我"",""弱她"",""强她""]","","","","","","","","9","","","","","","","","","SRET","SRET_math_calculate","","key","9","16.680820000000143","683","380","","","","","18/2= ?","9","1","","","","","","","",""
"1893","","3","psychophysics","105","362524","0.0-7.0-5.0-0.2","6","5","6","5","3","4","2","5","5","5","5","0","1","0","0","-1","1","0","1","5","4","5","5","4","4","4","4","5","4","4","6","5","6","4","5","5","6","6","5","6","5","5","6","3","5","6","5","5","1","3","3","6","2","5","3","6","3","5","5","2","5","3","3","2","5","2","6","5","6","5","5","3","6","2","5","2","7","3","5","766966737248980993","吴","697","Female","[""好我"",""坏我"",""坏她"",""好她""]","[""强我"",""弱我"",""弱她"",""强她""]","","","","","","","","3","","","","","","","","","SRET","SRET_math_calculate","","key","3","16.679053571428604","683","380","","","","","1+2= ?","3","1","","","","","","","",""
"2305","","5","psychophysics","106","364836","0.0-7.0-5.0-0.3","6","5","6","5","3","4","2","5","5","5","5","0","1","0","0","-1","1","0","1","5","4","5","5","4","4","4","4","5","4","4","6","5","6","4","5","5","6","6","5","6","5","5","6","3","5","6","5","5","1","3","3","6","2","5","3","6","3","5","5","2","5","3","3","2","5","2","6","5","6","5","5","3","6","2","5","2","7","3","5","766966737248980993","吴","697","Female","[""好我"",""坏我"",""坏她"",""好她""]","[""强我"",""弱我"",""弱她"",""强她""]","","","","","","","","5","","","","","","","","","SRET","SRET_math_calculate","","key","5","16.680666666666884","683","380","","","","","16-11= ?","5","1","","","","","","","",""
"1968","","5","psychophysics","107","366808","0.0-7.0-5.0-0.4","6","5","6","5","3","4","2","5","5","5","5","0","1","0","0","-1","1","0","1","5","4","5","5","4","4","4","4","5","4","4","6","5","6","4","5","5","6","6","5","6","5","5","6","3","5","6","5","5","1","3","3","6","2","5","3","6","3","5","5","2","5","3","3","2","5","2","6","5","6","5","5","3","6","2","5","2","7","3","5","766966737248980993","吴","697","Female","[""好我"",""坏我"",""坏她"",""好她""]","[""强我"",""弱我"",""弱她"",""强她""]","","","","","","","","5","","","","","","","","","SRET","SRET_math_calculate","","key","5","16.681136752136997","683","380","","","","","2+3= ?","5","1","","","","","","","",""
"2635","","8","psychophysics","108","369447","0.0-7.0-5.0-0.5","6","5","6","5","3","4","2","5","5","5","5","0","1","0","0","-1","1","0","1","5","4","5","5","4","4","4","4","5","4","4","6","5","6","4","5","5","6","6","5","6","5","5","6","3","5","6","5","5","1","3","3","6","2","5","3","6","3","5","5","2","5","3","3","2","5","2","6","5","6","5","5","3","6","2","5","2","7","3","5","766966737248980993","吴","697","Female","[""好我"",""坏我"",""坏她"",""好她""]","[""强我"",""弱我"",""弱她"",""强她""]","","","","","","","","8","","","","","","","","","SRET","SRET_math_calculate","","key","8","16.6814394904457","683","380","","","","","4/4= ?","1","0","","","","","","","",""
"2159","","9","psychophysics","109","371617","0.0-7.0-5.0-0.6","6","5","6","5","3","4","2","5","5","5","5","0","1","0","0","-1","1","0","1","5","4","5","5","4","4","4","4","5","4","4","6","5","6","4","5","5","6","6","5","6","5","5","6","3","5","6","5","5","1","3","3","6","2","5","3","6","3","5","5","2","5","3","3","2","5","2","6","5","6","5","5","3","6","2","5","2","7","3","5","766966737248980993","吴","697","Female","[""好我"",""坏我"",""坏她"",""好她""]","[""强我"",""弱我"",""弱她"",""强她""]","","","","","","","","9","","","","","","","","","SRET","SRET_math_calculate","","key","9","16.68031007751945","683","380","","","","","5+4= ?","9","1","","","","","","","",""
"2232","","4","psychophysics","110","373886","0.0-7.0-5.0-0.7","6","5","6","5","3","4","2","5","5","5","5","0","1","0","0","-1","1","0","1","5","4","5","5","4","4","4","4","5","4","4","6","5","6","4","5","5","6","6","5","6","5","5","6","3","5","6","5","5","1","3","3","6","2","5","3","6","3","5","5","2","5","3","3","2","5","2","6","5","6","5","5","3","6","2","5","2","7","3","5","766966737248980993","吴","697","Female","[""好我"",""坏我"",""坏她"",""好她""]","[""强我"",""弱我"",""弱她"",""强她""]","","","","","","","","4","","","","","","","","","SRET","SRET_math_calculate","","key","4","16.8055522388061","683","380","","","","","4*1= ?","4","1","","","","","","","",""
"2049","","8","psychophysics","111","375971","0.0-7.0-5.0-0.8","6","5","6","5","3","4","2","5","5","5","5","0","1","0","0","-1","1","0","1","5","4","5","5","4","4","4","4","5","4","4","6","5","6","4","5","5","6","6","5","6","5","5","6","3","5","6","5","5","1","3","3","6","2","5","3","6","3","5","5","2","5","3","3","2","5","2","6","5","6","5","5","3","6","2","5","2","7","3","5","766966737248980993","吴","697","Female","[""好我"",""坏我"",""坏她"",""好她""]","[""强我"",""弱我"",""弱她"",""强她""]","","","","","","","","8","","","","","","","","","SRET","SRET_math_calculate","","key","8","16.817243902438616","683","380","","","","","4+4= ?","8","1","","","","","","","",""
"2006","","0","psychophysics","112","377983","0.0-7.0-5.0-0.9","6","5","6","5","3","4","2","5","5","5","5","0","1","0","0","-1","1","0","1","5","4","5","5","4","4","4","4","5","4","4","6","5","6","4","5","5","6","6","5","6","5","5","6","3","5","6","5","5","1","3","3","6","2","5","3","6","3","5","5","2","5","3","3","2","5","2","6","5","6","5","5","3","6","2","5","2","7","3","5","766966737248980993","吴","697","Female","[""好我"",""坏我"",""坏她"",""好她""]","[""强我"",""弱我"",""弱她"",""强她""]","","","","","","","","0","","","","","","","","","SRET","SRET_math_calculate","","key","0","16.681574999999913","683","380","","","","","9-9= ?","0","1","","","","","","","",""
"2047","","1","psychophysics","113","380034","0.0-7.0-5.0-0.10","6","5","6","5","3","4","2","5","5","5","5","0","1","0","0","-1","1","0","1","5","4","5","5","4","4","4","4","5","4","4","6","5","6","4","5","5","6","6","5","6","5","5","6","3","5","6","5","5","1","3","3","6","2","5","3","6","3","5","5","2","5","3","3","2","5","2","6","5","6","5","5","3","6","2","5","2","7","3","5","766966737248980993","吴","697","Female","[""好我"",""坏我"",""坏她"",""好她""]","[""强我"",""弱我"",""弱她"",""强她""]","","","","","","","","1","","","","","","","","","SRET","SRET_math_calculate","","key","1","16.818702479339038","683","380","","","","","9-8= ?","1","1","","","","","","","",""
"2171","","0","psychophysics","114","382207","0.0-7.0-5.0-0.11","6","5","6","5","3","4","2","5","5","5","5","0","1","0","0","-1","1","0","1","5","4","5","5","4","4","4","4","5","4","4","6","5","6","4","5","5","6","6","5","6","5","5","6","3","5","6","5","5","1","3","3","6","2","5","3","6","3","5","5","2","5","3","3","2","5","2","6","5","6","5","5","3","6","2","5","2","7","3","5","766966737248980993","吴","697","Female","[""好我"",""坏我"",""坏她"",""好她""]","[""强我"",""弱我"",""弱她"",""强她""]","","","","","","","","0","","","","","","","","","SRET","SRET_math_calculate","","key","0","16.811257812500116","683","380","","","","","5*0= ?","0","1","","","","","","","",""
"2603","","5","psychophysics","115","384846","0.0-7.0-5.0-0.12","6","5","6","5","3","4","2","5","5","5","5","0","1","0","0","-1","1","0","1","5","4","5","5","4","4","4","4","5","4","4","6","5","6","4","5","5","6","6","5","6","5","5","6","3","5","6","5","5","1","3","3","6","2","5","3","6","3","5","5","2","5","3","3","2","5","2","6","5","6","5","5","3","6","2","5","2","7","3","5","766966737248980993","吴","697","Female","[""好我"",""坏我"",""坏她"",""好她""]","[""强我"",""弱我"",""弱她"",""强她""]","","","","","","","","5","","","","","","","","","SRET","SRET_math_calculate","","key","5","16.68117834394909","683","380","","","","","14-9= ?","5","1","","","","","","","",""
"1978","","8","psychophysics","116","386869","0.0-7.0-5.0-0.13","6","5","6","5","3","4","2","5","5","5","5","0","1","0","0","-1","1","0","1","5","4","5","5","4","4","4","4","5","4","4","6","5","6","4","5","5","6","6","5","6","5","5","6","3","5","6","5","5","1","3","3","6","2","5","3","6","3","5","5","2","5","3","3","2","5","2","6","5","6","5","5","3","6","2","5","2","7","3","5","766966737248980993","吴","697","Female","[""好我"",""坏我"",""坏她"",""好她""]","[""强我"",""弱我"",""弱她"",""强她""]","","","","","","","","8","","","","","","","","","SRET","SRET_math_calculate","","key","8","16.819391666666586","683","380","","","","","6+2= ?","8","1","","","","","","","",""
"2103","","8","psychophysics","117","388975","0.0-7.0-5.0-0.14","6","5","6","5","3","4","2","5","5","5","5","0","1","0","0","-1","1","0","1","5","4","5","5","4","4","4","4","5","4","4","6","5","6","4","5","5","6","6","5","6","5","5","6","3","5","6","5","5","1","3","3","6","2","5","3","6","3","5","5","2","5","3","3","2","5","2","6","5","6","5","5","3","6","2","5","2","7","3","5","766966737248980993","吴","697","Female","[""好我"",""坏我"",""坏她"",""好她""]","[""强我"",""弱我"",""弱她"",""强她""]","","","","","","","","8","","","","","","","","","SRET","SRET_math_calculate","","key","8","16.680976000000257","683","380","","","","","8*1= ?","8","1","","","","","","","",""
"2956","","8","psychophysics","118","391934","0.0-7.0-5.0-0.15","6","5","6","5","3","4","2","5","5","5","5","0","1","0","0","-1","1","0","1","5","4","5","5","4","4","4","4","5","4","4","6","5","6","4","5","5","6","6","5","6","5","5","6","3","5","6","5","5","1","3","3","6","2","5","3","6","3","5","5","2","5","3","3","2","5","2","6","5","6","5","5","3","6","2","5","2","7","3","5","766966737248980993","吴","697","Female","[""好我"",""坏我"",""坏她"",""好她""]","[""强我"",""弱我"",""弱她"",""强她""]","","","","","","","","8","","","","","","","","","SRET","SRET_math_calculate","","key","8","16.680954545454536","683","380","","","","","13-5= ?","8","1","","","","","","","",""
"2563","","6","psychophysics","119","394505","0.0-7.0-5.0-0.16","6","5","6","5","3","4","2","5","5","5","5","0","1","0","0","-1","1","0","1","5","4","5","5","4","4","4","4","5","4","4","6","5","6","4","5","5","6","6","5","6","5","5","6","3","5","6","5","5","1","3","3","6","2","5","3","6","3","5","5","2","5","3","3","2","5","2","6","5","6","5","5","3","6","2","5","2","7","3","5","766966737248980993","吴","697","Female","[""好我"",""坏我"",""坏她"",""好她""]","[""强我"",""弱我"",""弱她"",""强她""]","","","","","","","","6","","","","","","","","","SRET","SRET_math_calculate","","key","6","16.68148366013067","683","380","","","","","3*2= ?","6","1","","","","","","","",""
"2029","","6","psychophysics","120","396540","0.0-7.0-5.0-0.17","6","5","6","5","3","4","2","5","5","5","5","0","1","0","0","-1","1","0","1","5","4","5","5","4","4","4","4","5","4","4","6","5","6","4","5","5","6","6","5","6","5","5","6","3","5","6","5","5","1","3","3","6","2","5","3","6","3","5","5","2","5","3","3","2","5","2","6","5","6","5","5","3","6","2","5","2","7","3","5","766966737248980993","吴","697","Female","[""好我"",""坏我"",""坏她"",""好她""]","[""强我"",""弱我"",""弱她"",""强她""]","","","","","","","","6","","","","","","","","","SRET","SRET_math_calculate","","key","6","16.820008333333437","683","380","","","","","4+2= ?","6","1","","","","","","","",""
"2199","","5","psychophysics","121","398745","0.0-7.0-5.0-0.18","6","5","6","5","3","4","2","5","5","5","5","0","1","0","0","-1","1","0","1","5","4","5","5","4","4","4","4","5","4","4","6","5","6","4","5","5","6","6","5","6","5","5","6","3","5","6","5","5","1","3","3","6","2","5","3","6","3","5","5","2","5","3","3","2","5","2","6","5","6","5","5","3","6","2","5","2","7","3","5","766966737248980993","吴","697","Female","[""好我"",""坏我"",""坏她"",""好她""]","[""强我"",""弱我"",""弱她"",""强她""]","","","","","","","","5","","","","","","","","","SRET","SRET_math_calculate","","key","5","16.681484848484892","683","380","","","","","8-3= ? ","5","1","","","","","","","",""
"2030","","2","psychophysics","122","400812","0.0-7.0-5.0-0.19","6","5","6","5","3","4","2","5","5","5","5","0","1","0","0","-1","1","0","1","5","4","5","5","4","4","4","4","5","4","4","6","5","6","4","5","5","6","6","5","6","5","5","6","3","5","6","5","5","1","3","3","6","2","5","3","6","3","5","5","2","5","3","3","2","5","2","6","5","6","5","5","3","6","2","5","2","7","3","5","766966737248980993","吴","697","Female","[""好我"",""坏我"",""坏她"",""好她""]","[""强我"",""弱我"",""弱她"",""强她""]","","","","","","","","2","","","","","","","","","SRET","SRET_math_calculate","","key","2","16.680393442623203","683","380","","","","","1+1= ?","2","1","","","","","","","",""
"2192","","9","psychophysics","123","403037","0.0-7.0-5.0-0.20","6","5","6","5","3","4","2","5","5","5","5","0","1","0","0","-1","1","0","1","5","4","5","5","4","4","4","4","5","4","4","6","5","6","4","5","5","6","6","5","6","5","5","6","3","5","6","5","5","1","3","3","6","2","5","3","6","3","5","5","2","5","3","3","2","5","2","6","5","6","5","5","3","6","2","5","2","7","3","5","766966737248980993","吴","697","Female","[""好我"",""坏我"",""坏她"",""好她""]","[""强我"",""弱我"",""弱她"",""强她""]","","","","","","","","9","","","","","","","","","SRET","SRET_math_calculate","","key","9","16.80781060606056","683","380","","","","","1*9= ?","9","1","","","","","","","",""
"2198","","7","psychophysics","124","405239","0.0-7.0-5.0-0.21","6","5","6","5","3","4","2","5","5","5","5","0","1","0","0","-1","1","0","1","5","4","5","5","4","4","4","4","5","4","4","6","5","6","4","5","5","6","6","5","6","5","5","6","3","5","6","5","5","1","3","3","6","2","5","3","6","3","5","5","2","5","3","3","2","5","2","6","5","6","5","5","3","6","2","5","2","7","3","5","766966737248980993","吴","697","Female","[""好我"",""坏我"",""坏她"",""好她""]","[""强我"",""弱我"",""弱她"",""强她""]","","","","","","","","7","","","","","","","","","SRET","SRET_math_calculate","","key","7","16.680816793892948","683","380","","","","","8-1= ?","7","1","","","","","","","",""
"3626","","9","psychophysics","125","408868","0.0-7.0-5.0-0.22","6","5","6","5","3","4","2","5","5","5","5","0","1","0","0","-1","1","0","1","5","4","5","5","4","4","4","4","5","4","4","6","5","6","4","5","5","6","6","5","6","5","5","6","3","5","6","5","5","1","3","3","6","2","5","3","6","3","5","5","2","5","3","3","2","5","2","6","5","6","5","5","3","6","2","5","2","7","3","5","766966737248980993","吴","697","Female","[""好我"",""坏我"",""坏她"",""好她""]","[""强我"",""弱我"",""弱她"",""强她""]","","","","","","","","9","","","","","","","","","SRET","SRET_math_calculate","","key","9","16.681486111111116","683","380","","","","","43-34= ?","9","1","","","","","","","",""
"2224","","5","psychophysics","126","411099","0.0-7.0-5.0-0.23","6","5","6","5","3","4","2","5","5","5","5","0","1","0","0","-1","1","0","1","5","4","5","5","4","4","4","4","5","4","4","6","5","6","4","5","5","6","6","5","6","5","5","6","3","5","6","5","5","1","3","3","6","2","5","3","6","3","5","5","2","5","3","3","2","5","2","6","5","6","5","5","3","6","2","5","2","7","3","5","766966737248980993","吴","697","Female","[""好我"",""坏我"",""坏她"",""好她""]","[""强我"",""弱我"",""弱她"",""强她""]","","","","","","","","5","","","","","","","","","SRET","SRET_math_calculate","","key","5","16.681624060150504","683","380","","","","","17-12= ? ","5","1","","","","","","","",""
"2066","","7","psychophysics","127","413208","0.0-7.0-5.0-0.24","6","5","6","5","3","4","2","5","5","5","5","0","1","0","0","-1","1","0","1","5","4","5","5","4","4","4","4","5","4","4","6","5","6","4","5","5","6","6","5","6","5","5","6","3","5","6","5","5","1","3","3","6","2","5","3","6","3","5","5","2","5","3","3","2","5","2","6","5","6","5","5","3","6","2","5","2","7","3","5","766966737248980993","吴","697","Female","[""好我"",""坏我"",""坏她"",""好她""]","[""强我"",""弱我"",""弱她"",""强她""]","","","","","","","","7","","","","","","","","","SRET","SRET_math_calculate","","key","7","16.81431999999983","683","380","","","","","9-2= ?","7","1","","","","","","","",""
"4582","","5","psychophysics","128","417795","0.0-7.0-5.0-0.25","6","5","6","5","3","4","2","5","5","5","5","0","1","0","0","-1","1","0","1","5","4","5","5","4","4","4","4","5","4","4","6","5","6","4","5","5","6","6","5","6","5","5","6","3","5","6","5","5","1","3","3","6","2","5","3","6","3","5","5","2","5","3","3","2","5","2","6","5","6","5","5","3","6","2","5","2","7","3","5","766966737248980993","吴","697","Female","[""好我"",""坏我"",""坏她"",""好她""]","[""强我"",""弱我"",""弱她"",""强她""]","","","","","","","","5","","","","","","","","","SRET","SRET_math_calculate","","key","5","16.681160583941523","683","380","","","","","5/1= ?","5","1","","","","","","","",""
"2313","","5","psychophysics","129","420111","0.0-7.0-5.0-0.26","6","5","6","5","3","4","2","5","5","5","5","0","1","0","0","-1","1","0","1","5","4","5","5","4","4","4","4","5","4","4","6","5","6","4","5","5","6","6","5","6","5","5","6","3","5","6","5","5","1","3","3","6","2","5","3","6","3","5","5","2","5","3","3","2","5","2","6","5","6","5","5","3","6","2","5","2","7","3","5","766966737248980993","吴","697","Female","[""好我"",""坏我"",""坏她"",""好她""]","[""强我"",""弱我"",""弱她"",""强她""]","","","","","","","","5","","","","","","","","","SRET","SRET_math_calculate","","key","5","16.680525547445388","683","380","","","","","12-7= ?","5","1","","","","","","","",""
"2129","","9","psychophysics","130","422247","0.0-7.0-5.0-0.27","6","5","6","5","3","4","2","5","5","5","5","0","1","0","0","-1","1","0","1","5","4","5","5","4","4","4","4","5","4","4","6","5","6","4","5","5","6","6","5","6","5","5","6","3","5","6","5","5","1","3","3","6","2","5","3","6","3","5","5","2","5","3","3","2","5","2","6","5","6","5","5","3","6","2","5","2","7","3","5","766966737248980993","吴","697","Female","[""好我"",""坏我"",""坏她"",""好她""]","[""强我"",""弱我"",""弱她"",""强她""]","","","","","","","","9","","","","","","","","","SRET","SRET_math_calculate","","key","9","16.681803149606125","683","380","","","","","8+1= ?","9","1","","","","","","","",""
"3223","","1","psychophysics","131","425476","0.0-7.0-5.0-0.28","6","5","6","5","3","4","2","5","5","5","5","0","1","0","0","-1","1","0","1","5","4","5","5","4","4","4","4","5","4","4","6","5","6","4","5","5","6","6","5","6","5","5","6","3","5","6","5","5","1","3","3","6","2","5","3","6","3","5","5","2","5","3","3","2","5","2","6","5","6","5","5","3","6","2","5","2","7","3","5","766966737248980993","吴","697","Female","[""好我"",""坏我"",""坏她"",""好她""]","[""强我"",""弱我"",""弱她"",""强她""]","","","","","","","","1","","","","","","","","","SRET","SRET_math_calculate","","key","1","16.68086528497413","683","380","","","","","30-29= ?","1","1","","","","","","","",""
"2143","","7","psychophysics","132","427623","0.0-7.0-5.0-0.29","6","5","6","5","3","4","2","5","5","5","5","0","1","0","0","-1","1","0","1","5","4","5","5","4","4","4","4","5","4","4","6","5","6","4","5","5","6","6","5","6","5","5","6","3","5","6","5","5","1","3","3","6","2","5","3","6","3","5","5","2","5","3","3","2","5","2","6","5","6","5","5","3","6","2","5","2","7","3","5","766966737248980993","吴","697","Female","[""好我"",""坏我"",""坏她"",""好她""]","[""强我"",""弱我"",""弱她"",""强她""]","","","","","","","","7","","","","","","","","","SRET","SRET_math_calculate","","key","7","16.681109374999778","683","380","","","","","5+2= ?","7","1","","","","","","","",""
"2541","","8","psychophysics","133","430169","0.0-7.0-5.0-0.30","6","5","6","5","3","4","2","5","5","5","5","0","1","0","0","-1","1","0","1","5","4","5","5","4","4","4","4","5","4","4","6","5","6","4","5","5","6","6","5","6","5","5","6","3","5","6","5","5","1","3","3","6","2","5","3","6","3","5","5","2","5","3","3","2","5","2","6","5","6","5","5","3","6","2","5","2","7","3","5","766966737248980993","吴","697","Female","[""好我"",""坏我"",""坏她"",""好她""]","[""强我"",""弱我"",""弱她"",""强她""]","","","","","","","","8","","","","","","","","","SRET","SRET_math_calculate","","key","8","16.680801324503165","683","380","","","","","50-42= ?","8","1","","","","","","","",""
"1871","","8","psychophysics","134","432047","0.0-7.0-5.0-0.31","6","5","6","5","3","4","2","5","5","5","5","0","1","0","0","-1","1","0","1","5","4","5","5","4","4","4","4","5","4","4","6","5","6","4","5","5","6","6","5","6","5","5","6","3","5","6","5","5","1","3","3","6","2","5","3","6","3","5","5","2","5","3","3","2","5","2","6","5","6","5","5","3","6","2","5","2","7","3","5","766966737248980993","吴","697","Female","[""好我"",""坏我"",""坏她"",""好她""]","[""强我"",""弱我"",""弱她"",""强她""]","","","","","","","","8","","","","","","","","","SRET","SRET_math_calculate","","key","8","16.8317297297296","683","380","","","","","7+1= ?","8","1","","","","","","","",""
"3248","","2","psychophysics","135","435300","0.0-7.0-5.0-0.32","6","5","6","5","3","4","2","5","5","5","5","0","1","0","0","-1","1","0","1","5","4","5","5","4","4","4","4","5","4","4","6","5","6","4","5","5","6","6","5","6","5","5","6","3","5","6","5","5","1","3","3","6","2","5","3","6","3","5","5","2","5","3","3","2","5","2","6","5","6","5","5","3","6","2","5","2","7","3","5","766966737248980993","吴","697","Female","[""好我"",""坏我"",""坏她"",""好她""]","[""强我"",""弱我"",""弱她"",""强她""]","","","","","","","","2","","","","","","","","","SRET","SRET_math_calculate","","key","2","16.681201030927788","683","380","","","","","8/4= ?","2","1","","","","","","","",""
"2219","","3","psychophysics","136","437523","0.0-7.0-5.0-0.33","6","5","6","5","3","4","2","5","5","5","5","0","1","0","0","-1","1","0","1","5","4","5","5","4","4","4","4","5","4","4","6","5","6","4","5","5","6","6","5","6","5","5","6","3","5","6","5","5","1","3","3","6","2","5","3","6","3","5","5","2","5","3","3","2","5","2","6","5","6","5","5","3","6","2","5","2","7","3","5","766966737248980993","吴","697","Female","[""好我"",""坏我"",""坏她"",""好她""]","[""强我"",""弱我"",""弱她"",""强她""]","","","","","","","","3","","","","","","","","","SRET","SRET_math_calculate","","key","3","16.80854198473278","683","380","","","","","8-5= ?","3","1","","","","","","","",""
"2340","","4","psychophysics","137","439871","0.0-7.0-5.0-0.34","6","5","6","5","3","4","2","5","5","5","5","0","1","0","0","-1","1","0","1","5","4","5","5","4","4","4","4","5","4","4","6","5","6","4","5","5","6","6","5","6","5","5","6","3","5","6","5","5","1","3","3","6","2","5","3","6","3","5","5","2","5","3","3","2","5","2","6","5","6","5","5","3","6","2","5","2","7","3","5","766966737248980993","吴","697","Female","[""好我"",""坏我"",""坏她"",""好她""]","[""强我"",""弱我"",""弱她"",""强她""]","","","","","","","","4","","","","","","","","","SRET","SRET_math_calculate","","key","4","16.80064028776971","683","380","","","","","13-9= ?","4","1","","","","","","","",""
"2196","","7","psychophysics","138","442070","0.0-7.0-5.0-0.35","6","5","6","5","3","4","2","5","5","5","5","0","1","0","0","-1","1","0","1","5","4","5","5","4","4","4","4","5","4","4","6","5","6","4","5","5","6","6","5","6","5","5","6","3","5","6","5","5","1","3","3","6","2","5","3","6","3","5","5","2","5","3","3","2","5","2","6","5","6","5","5","3","6","2","5","2","7","3","5","766966737248980993","吴","697","Female","[""好我"",""坏我"",""坏她"",""好她""]","[""强我"",""弱我"",""弱她"",""强她""]","","","","","","","","7","","","","","","","","","SRET","SRET_math_calculate","","key","7","16.681389312977007","683","380","","","","","2+5= ?","7","1","","","","","","","",""
"5312","","7","psychophysics","139","447387","0.0-7.0-5.0-0.36","6","5","6","5","3","4","2","5","5","5","5","0","1","0","0","-1","1","0","1","5","4","5","5","4","4","4","4","5","4","4","6","5","6","4","5","5","6","6","5","6","5","5","6","3","5","6","5","5","1","3","3","6","2","5","3","6","3","5","5","2","5","3","3","2","5","2","6","5","6","5","5","3","6","2","5","2","7","3","5","766966737248980993","吴","697","Female","[""好我"",""坏我"",""坏她"",""好她""]","[""强我"",""弱我"",""弱她"",""强她""]","","","","","","","","7","","","","","","","","","SRET","SRET_math_calculate","","key","7","16.680996845425835","683","380","","","","","49/7 = ?","7","1","","","","","","","",""
"2126","","0","psychophysics","140","449519","0.0-7.0-5.0-0.37","6","5","6","5","3","4","2","5","5","5","5","0","1","0","0","-1","1","0","1","5","4","5","5","4","4","4","4","5","4","4","6","5","6","4","5","5","6","6","5","6","5","5","6","3","5","6","5","5","1","3","3","6","2","5","3","6","3","5","5","2","5","3","3","2","5","2","6","5","6","5","5","3","6","2","5","2","7","3","5","766966737248980993","吴","697","Female","[""好我"",""坏我"",""坏她"",""好她""]","[""强我"",""弱我"",""弱她"",""强她""]","","","","","","","","0","","","","","","","","","SRET","SRET_math_calculate","","key","0","16.681582677165252","683","380","","","","","1-1= ?","0","1","","","","","","","",""
"4074","","7","psychophysics","141","453600","0.0-7.0-5.0-0.38","6","5","6","5","3","4","2","5","5","5","5","0","1","0","0","-1","1","0","1","5","4","5","5","4","4","4","4","5","4","4","6","5","6","4","5","5","6","6","5","6","5","5","6","3","5","6","5","5","1","3","3","6","2","5","3","6","3","5","5","2","5","3","3","2","5","2","6","5","6","5","5","3","6","2","5","2","7","3","5","766966737248980993","吴","697","Female","[""好我"",""坏我"",""坏她"",""好她""]","[""强我"",""弱我"",""弱她"",""强她""]","","","","","","","","7","","","","","","","","","SRET","SRET_math_calculate","","key","7","16.681049180327776","683","380","","","","","13-6= ?","7","1","","","","","","","",""
"1902","","9","psychophysics","142","455506","0.0-7.0-5.0-0.39","6","5","6","5","3","4","2","5","5","5","5","0","1","0","0","-1","1","0","1","5","4","5","5","4","4","4","4","5","4","4","6","5","6","4","5","5","6","6","5","6","5","5","6","3","5","6","5","5","1","3","3","6","2","5","3","6","3","5","5","2","5","3","3","2","5","2","6","5","6","5","5","3","6","2","5","2","7","3","5","766966737248980993","吴","697","Female","[""好我"",""坏我"",""坏她"",""好她""]","[""强我"",""弱我"",""弱她"",""强她""]","","","","","","","","9","","","","","","","","","SRET","SRET_math_calculate","","key","9","16.68115044247763","683","380","","","","","6+3= ?","9","1","","","","","","","",""
