"rt","stimulus","response","trial_type","trial_index","time_elapsed","internal_node_id","swb_1","swb_2","swb_3","swb_4","swb_5","LOT_1","LOT_2","LOT_3","LOT_4","LOT_5","LOT_6","IPC_1","IPC_2","IPC_3","IPC_4","IPC_5","IPC_6","IPC_7","IPC_8","MorIden_1","MorIden_2","MorIden_3","MorIden_4","MorIden_5","MorIden_6","MorIden_7","MorIden_8","MorIden_9","MorIden_10","moralSeImag_1","moralSeImag_2","moralSeImag_3","moralSeImag_4","moralSeImag_5","moralSeImag_6","moralSeImag_7","moralSeImag_8","moralSeImag_9","sde_1","sde_2","sde_3","sde_4","sde_5","sde_6","sde_7","sde_8","sde_9","sde_10","trap2","sde_11","sde_12","sde_13","sde_14","sde_15","sde_16","sde_17","sde_18","sde_19","sde_20","IM_1","IM_2","IM_3","IM_4","IM_5","IM_6","IM_7","IM_8","IM_9","IM_10","IM_11","IM_12","IM_13","IM_14","IM_15","IM_16","IM_17","IM_18","IM_19","IM_20","subj_idx","friend_name","ParticipantID","Sex","Word","Word2","value","success","timeout","failed_images","failed_audio","failed_video","user_agent","responses","item_order","radio_event_ids","radio_event_times","key_event_times","mouse_event_times","straightlining","zigzagging","honeypot","task_id","screen_id","time_stamp","response_type","key_press","avg_frame_time","center_x","center_y","person","word","valence","domain","math","correct_response","correct","status","view_history","identity","duration","Image","condition","question_order","trap2_item"
"5603","
   <p><div style='color:white; font-size: 25px'>您好，欢迎参加本次实验。</div></p>
   <p><div style='color:white; font-size: 25px'>为充分保障您的权利，请确保您已经知晓并同意《参与实验同意书》以及《数据公开知情同意书》。</div></p>
   <p><div style='color:white; font-size: 25px'>如果您未见过上述内容，请咨询实验员。</div></p>
   <p style='color:white; font-size: 25px'>如果您选择继续实验，则表示您已经清楚两份知情同意书的内容并同意。</p>
   <p><div style = ""color: pink;font-size:30px;"">请确保您记得day0的实验编号，您将在本次实验输入该编号，若您忘记，请咨询实验员后作答。</div></p>
   <p><div style = ""color:lightblue;font-size:25px;"">请您尽可能认真地作答，我们将依据您在各问卷和按键任务中的作答质量发放报酬。</div></p>
   <p> <div style = ""color: green""><按空格键至下页></div> </p>
   "," ","html-keyboard-response","0","5606","0.0-0.0","4","3","3","3","3","4","3","3","2","3","4","-1","0","-1","0","-1","0","0","0","5","4","5","5","4","3","3","2","2","2","4","6","6","6","5","6","7","7","7","5","5","5","5","5","4","5","6","4","3","1","4","3","4","4","4","3","4","4","5","5","3","5","3","3","3","6","6","6","7","7","4","6","6","3","4","4","6","2","3","6","794290486587301890","王","649","Male","[""好我"",""坏我"",""坏他"",""好他""]","[""强我"",""弱我"",""弱他"",""强他""]","","","","","","","","","","","","","","","","","","","","","","","","","","","","","","","","","","","","","","",""
"","","","call-function","1","5607","0.0-1.0-0.0","4","3","3","3","3","4","3","3","2","3","4","-1","0","-1","0","-1","0","0","0","5","4","5","5","4","3","3","2","2","2","4","6","6","6","5","6","7","7","7","5","5","5","5","5","4","5","6","4","3","1","4","3","4","4","4","3","4","4","5","5","3","5","3","3","3","6","6","6","7","7","4","6","6","3","4","4","6","2","3","6","794290486587301890","王","649","Male","[""好我"",""坏我"",""坏他"",""好他""]","[""强我"",""弱我"",""弱他"",""强他""]","","","","","","","","","","","","","","","","","","","","","","","","","","","","","","","","","","","","","","",""
"13953","","[{""name"":""Sex"",""value"":""0""},{""name"":""friend_name"",""value"":""王""},{""name"":""ParticipantID"",""value"":""649""}]","survey-html-form","2","19561","0.0-1.0-1.0","4","3","3","3","3","4","3","3","2","3","4","-1","0","-1","0","-1","0","0","0","5","4","5","5","4","3","3","2","2","2","4","6","6","6","5","6","7","7","7","5","5","5","5","5","4","5","6","4","3","1","4","3","4","4","4","3","4","4","5","5","3","5","3","3","3","6","6","6","7","7","4","6","6","3","4","4","6","2","3","6","794290486587301890","王","649","Male","[""好我"",""坏我"",""坏他"",""好他""]","[""强我"",""弱我"",""弱他"",""强他""]","","","","","","","","","","","","","","","","","","","","","","","","","","","","","","","","","","","","","","",""
"","","","preload","3","20051","0.0-2.0","4","3","3","3","3","4","3","3","2","3","4","-1","0","-1","0","-1","0","0","0","5","4","5","5","4","3","3","2","2","2","4","6","6","6","5","6","7","7","7","5","5","5","5","5","4","5","6","4","3","1","4","3","4","4","4","3","4","4","5","5","3","5","3","3","3","6","6","6","7","7","4","6","6","3","4","4","6","2","3","6","794290486587301890","王","649","Male","[""好我"",""坏我"",""坏他"",""好他""]","[""强我"",""弱我"",""弱他"",""强他""]","","true","false","[]","[]","[]","","","","","","","","","","","","","","","","","","","","","","","","","","","","","","","","",""
"","","","fullscreen","4","21507","0.0-3.0","4","3","3","3","3","4","3","3","2","3","4","-1","0","-1","0","-1","0","0","0","5","4","5","5","4","3","3","2","2","2","4","6","6","6","5","6","7","7","7","5","5","5","5","5","4","5","6","4","3","1","4","3","4","4","4","3","4","4","5","5","3","5","3","3","3","6","6","6","7","7","4","6","6","3","4","4","6","2","3","6","794290486587301890","王","649","Male","[""好我"",""坏我"",""坏他"",""好他""]","[""强我"",""弱我"",""弱他"",""强他""]","","true","","","","","{}","","","","","","","","","","","","","","","","","","","","","","","","","","","","","","","",""
"17229.19999998808","","{""Q01"":""4"",""Q02"":""3"",""Q03"":""3"",""Q04"":""3"",""Q05"":""3""}","survey-template","5","38738","0.0-4.0","4","3","3","3","3","4","3","3","2","3","4","-1","0","-1","0","-1","0","0","0","5","4","5","5","4","3","3","2","2","2","4","6","6","6","5","6","7","7","7","5","5","5","5","5","4","5","6","4","3","1","4","3","4","4","4","3","4","4","5","5","3","5","3","3","3","6","6","6","7","7","4","6","6","3","4","4","6","2","3","6","794290486587301890","王","649","Male","[""好我"",""坏我"",""坏他"",""好他""]","[""强我"",""弱我"",""弱他"",""强他""]","","","","","","","","{""Q01"":""4"",""Q02"":""3"",""Q03"":""3"",""Q04"":""3"",""Q05"":""3""}","[0,1,2,3,4]","[""Q01"",""Q02"",""Q03"",""Q04"",""Q05""]","[3772.399999976158,7580.100000023842,9164,12748.699999988079,16140.100000023842]","[]","[3772.399999976158,7580.100000023842,9164,12748.699999988079,15860.600000023842,16140.100000023842,17228.100000023842]","0.8","0.25","0","","","","","","","","","","","","","","","","","","","","","","",""
"22035.19999998808","","{""Q01"":""4"",""Q02"":""3"",""Q03"":""3"",""Q04"":""2"",""Q05"":""3"",""Q06"":""4""}","survey-template","6","60778","0.0-5.0","4","3","3","3","3","4","3","3","2","3","4","-1","0","-1","0","-1","0","0","0","5","4","5","5","4","3","3","2","2","2","4","6","6","6","5","6","7","7","7","5","5","5","5","5","4","5","6","4","3","1","4","3","4","4","4","3","4","4","5","5","3","5","3","3","3","6","6","6","7","7","4","6","6","3","4","4","6","2","3","6","794290486587301890","王","649","Male","[""好我"",""坏我"",""坏他"",""好他""]","[""强我"",""弱我"",""弱他"",""强他""]","","","","","","","","{""Q01"":""4"",""Q02"":""3"",""Q03"":""3"",""Q04"":""2"",""Q05"":""3"",""Q06"":""4""}","[0,1,2,3,4,5]","[""Q01"",""Q02"",""Q03"",""Q04"",""Q05"",""Q06""]","[4763.100000023842,9898.699999988079,11082.5,14674.5,17258.80000001192,21634.5]","[]","[4763.100000023842,9898.699999988079,11082.5,14674.5,17258.80000001192,21634.5,22034.5]","0.5","0.8","0","","","","","","","","","","","","","","","","","","","","","","",""
"38773.09999996424","","{""Q01"":""-1"",""Q02"":""0"",""Q03"":""-1"",""Q04"":""0"",""Q05"":""-1"",""Q06"":""0"",""Q07"":""0"",""Q08"":""0""}","survey-template","7","99554","0.0-6.0","4","3","3","3","3","4","3","3","2","3","4","-1","0","-1","0","-1","0","0","0","5","4","5","5","4","3","3","2","2","2","4","6","6","6","5","6","7","7","7","5","5","5","5","5","4","5","6","4","3","1","4","3","4","4","4","3","4","4","5","5","3","5","3","3","3","6","6","6","7","7","4","6","6","3","4","4","6","2","3","6","794290486587301890","王","649","Male","[""好我"",""坏我"",""坏他"",""好他""]","[""强我"",""弱我"",""弱他"",""强他""]","","","","","","","","{""Q01"":""-1"",""Q02"":""0"",""Q03"":""-1"",""Q04"":""0"",""Q05"":""-1"",""Q06"":""0"",""Q07"":""0"",""Q08"":""0""}","[0,1,2,3,4,5,6,7]","[""Q01"",""Q01"",""Q02"",""Q02"",""Q02"",""Q03"",""Q04"",""Q05"",""Q06"",""Q07"",""Q08""]","[2628,4531.699999988079,7564,9412.099999964237,18236,23875.899999976158,27652.599999964237,29587.899999976158,31483.5,36755.89999997616,38147.80000001192]","[]","[2628,3325.800000011921,4531.699999988079,7564,9412.099999964237,17604.399999976158,18236,23875.899999976158,27652.599999964237,29587.899999976158,31483.5,36755.89999997616,38147.80000001192,38771.89999997616]","0.625","0.7142857142857143","0","","","","","","","","","","","","","","","","","","","","","","",""
"10235","
    <p><div style='color:white;font-size:35px; line-height:20px;'>词汇评估任务</div></p><br>
    <p><div style='color:white;font-size:25px; line-height:20px;'>请再次回忆该亲密的朋友，你们至少2年前就认识了，并且最近2年经常见面。</div></p>
    <p><div style='color:white;font-size:25px; line-height:20px;'>在本实验中，您将会看到一些形容词。</div></p>
    <p><div style='color:yellow;font-size:25px; line-height:20px;'>您的任务是判断这些形容词是否符合对您自己或您的朋友的描述。</div></p><p style='font-size:35px'>符合按<span style=""color:lightgreen""> j 键</span>，不符合按<span style=""color:red""> f 键</span></p>","0","html-button-response","8","109793","0.0-7.0-0.0","4","3","3","3","3","4","3","3","2","3","4","-1","0","-1","0","-1","0","0","0","5","4","5","5","4","3","3","2","2","2","4","6","6","6","5","6","7","7","7","5","5","5","5","5","4","5","6","4","3","1","4","3","4","4","4","3","4","4","5","5","3","5","3","3","3","6","6","6","7","7","4","6","6","3","4","4","6","2","3","6","794290486587301890","王","649","Male","[""好我"",""坏我"",""坏他"",""好他""]","[""强我"",""弱我"",""弱他"",""强他""]","","","","","","","","","","","","","","","","","SRET_EW","EW_instructions","Wed Jan 10 2024 13:12:40 GMT+0800 (中国标准时间)","","","","","","","","","","","","","","","","","","","",""
"null","","null","psychophysics","9","112798","0.0-7.0-1.0-0.0","4","3","3","3","3","4","3","3","2","3","4","-1","0","-1","0","-1","0","0","0","5","4","5","5","4","3","3","2","2","2","4","6","6","6","5","6","7","7","7","5","5","5","5","5","4","5","6","4","3","1","4","3","4","4","4","3","4","4","5","5","3","5","3","3","3","6","6","6","7","7","4","6","6","3","4","4","6","2","3","6","794290486587301890","王","649","Male","[""好我"",""坏我"",""坏他"",""好他""]","[""强我"",""弱我"",""弱他"",""强他""]","","","","","","","","","","","","","","","","","SRET_EW","EW_practice","","key","null","16.662222222222205","960","536","朋友","徇私","Negative","morality","","","","","","","","","","",""
"1664","","f","psychophysics","10","115466","0.0-7.0-1.0-0.1","4","3","3","3","3","4","3","3","2","3","4","-1","0","-1","0","-1","0","0","0","5","4","5","5","4","3","3","2","2","2","4","6","6","6","5","6","7","7","7","5","5","5","5","5","4","5","6","4","3","1","4","3","4","4","4","3","4","4","5","5","3","5","3","3","3","6","6","6","7","7","4","6","6","3","4","4","6","2","3","6","794290486587301890","王","649","Male","[""好我"",""坏我"",""坏他"",""好他""]","[""强我"",""弱我"",""弱他"",""强他""]","","","","","","","","no","","","","","","","","","SRET_EW","EW_practice","","key","f","16.66289308176097","960","536","朋友","忠实","Positive","morality","","","","","","","","","","",""
"953","","j","psychophysics","11","117421","0.0-7.0-1.0-0.2","4","3","3","3","3","4","3","3","2","3","4","-1","0","-1","0","-1","0","0","0","5","4","5","5","4","3","3","2","2","2","4","6","6","6","5","6","7","7","7","5","5","5","5","5","4","5","6","4","3","1","4","3","4","4","4","3","4","4","5","5","3","5","3","3","3","6","6","6","7","7","4","6","6","3","4","4","6","2","3","6","794290486587301890","王","649","Male","[""好我"",""坏我"",""坏他"",""好他""]","[""强我"",""弱我"",""弱他"",""强他""]","","","","","","","","yes","","","","","","","","","SRET_EW","EW_practice","","key","j","16.66410256410254","960","536","自己","严谨","Positive","ability","","","","","","","","","","",""
"915","","f","psychophysics","12","119338","0.0-7.0-1.0-0.3","4","3","3","3","3","4","3","3","2","3","4","-1","0","-1","0","-1","0","0","0","5","4","5","5","4","3","3","2","2","2","4","6","6","6","5","6","7","7","7","5","5","5","5","5","4","5","6","4","3","1","4","3","4","4","4","3","4","4","5","5","3","5","3","3","3","6","6","6","7","7","4","6","6","3","4","4","6","2","3","6","794290486587301890","王","649","Male","[""好我"",""坏我"",""坏他"",""好他""]","[""强我"",""弱我"",""弱他"",""强他""]","","","","","","","","no","","","","","","","","","SRET_EW","EW_practice","","key","f","16.6640350877194","960","536","自己","刻板","Negative","ability","","","","","","","","","","",""
"7311","
    <p><div style='color:white;font-size:35px; line-height:20px;'>请您再次阅读实验要求</div></p><br>
    <p><div style='color:white;font-size:25px; line-height:20px;'>请回忆某一个亲密的朋友，你们至少2年前就认识了，并且最近2年经常见面。</div></p>
    <p><div style='color:white;font-size:25px; line-height:20px;'>在本实验中，您将会看到一些形容词。</div></p>
    <p><div style='color:yellow;font-size:25px; line-height:20px;'>您的任务是判断这些形容词是否符合对您自己或您的朋友的描述。</div></p>
    <p><div class='footer' style='font-size:25px; line-height:20px;'>如果对本实验还有不清楚之处，请立即向实验员咨询。</p><p style='font-size:25px; line-height:20px;'>如果您明白了规则：</p><p style='font-size:22px; line-height:20px;'>请按 继续 进入正式实验</p>
    </div>
    <p style='font-size:35px'>符合按<span style=""color:lightgreen""> j 键</span>，不符合按<span style=""color:red""> f 键</span></p>","0","html-button-response","13","126650","0.0-7.0-2.0","4","3","3","3","3","4","3","3","2","3","4","-1","0","-1","0","-1","0","0","0","5","4","5","5","4","3","3","2","2","2","4","6","6","6","5","6","7","7","7","5","5","5","5","5","4","5","6","4","3","1","4","3","4","4","4","3","4","4","5","5","3","5","3","3","3","6","6","6","7","7","4","6","6","3","4","4","6","2","3","6","794290486587301890","王","649","Male","[""好我"",""坏我"",""坏他"",""好他""]","[""强我"",""弱我"",""弱他"",""强他""]","","","","","","","","","","","","","","","","","SRET_EW","prac_instructions","Wed Jan 10 2024 13:12:40 GMT+0800 (中国标准时间)","","","","","","","","","","","","","","","","","","","",""
"777","","f","psychophysics","14","128429","0.0-7.0-3.0-0.0","4","3","3","3","3","4","3","3","2","3","4","-1","0","-1","0","-1","0","0","0","5","4","5","5","4","3","3","2","2","2","4","6","6","6","5","6","7","7","7","5","5","5","5","5","4","5","6","4","3","1","4","3","4","4","4","3","4","4","5","5","3","5","3","3","3","6","6","6","7","7","4","6","6","3","4","4","6","2","3","6","794290486587301890","王","649","Male","[""好我"",""坏我"",""坏他"",""好他""]","[""强我"",""弱我"",""弱他"",""强他""]","","","","","","","","no","","","","","","","","","SRET","EW_formal","","key","f","16.658490566037763","960","536","自己","说谎","Negative","morality","","","","","","","","","","",""
"538","","f","psychophysics","15","129968","0.0-7.0-3.0-0.1","4","3","3","3","3","4","3","3","2","3","4","-1","0","-1","0","-1","0","0","0","5","4","5","5","4","3","3","2","2","2","4","6","6","6","5","6","7","7","7","5","5","5","5","5","4","5","6","4","3","1","4","3","4","4","4","3","4","4","5","5","3","5","3","3","3","6","6","6","7","7","4","6","6","3","4","4","6","2","3","6","794290486587301890","王","649","Male","[""好我"",""坏我"",""坏他"",""好他""]","[""强我"",""弱我"",""弱他"",""强他""]","","","","","","","","no","","","","","","","","","SRET","EW_formal","","key","f","16.66304347826071","960","536","朋友","迷糊","Negative","ability","","","","","","","","","","",""
"752","","f","psychophysics","16","131722","0.0-7.0-3.0-0.2","4","3","3","3","3","4","3","3","2","3","4","-1","0","-1","0","-1","0","0","0","5","4","5","5","4","3","3","2","2","2","4","6","6","6","5","6","7","7","7","5","5","5","5","5","4","5","6","4","3","1","4","3","4","4","4","3","4","4","5","5","3","5","3","3","3","6","6","6","7","7","4","6","6","3","4","4","6","2","3","6","794290486587301890","王","649","Male","[""好我"",""坏我"",""坏他"",""好他""]","[""强我"",""弱我"",""弱他"",""强他""]","","","","","","","","no","","","","","","","","","SRET","EW_formal","","key","f","16.66346153846154","960","536","自己","坚贞","Positive","morality","","","","","","","","","","",""
"708","","j","psychophysics","17","133433","0.0-7.0-3.0-0.3","4","3","3","3","3","4","3","3","2","3","4","-1","0","-1","0","-1","0","0","0","5","4","5","5","4","3","3","2","2","2","4","6","6","6","5","6","7","7","7","5","5","5","5","5","4","5","6","4","3","1","4","3","4","4","4","3","4","4","5","5","3","5","3","3","3","6","6","6","7","7","4","6","6","3","4","4","6","2","3","6","794290486587301890","王","649","Male","[""好我"",""坏我"",""坏他"",""好他""]","[""强我"",""弱我"",""弱他"",""强他""]","","","","","","","","yes","","","","","","","","","SRET","EW_formal","","key","j","16.663725490195908","960","536","朋友","务实","Positive","ability","","","","","","","","","","",""
"601","","j","psychophysics","18","135036","0.0-7.0-3.0-0.4","4","3","3","3","3","4","3","3","2","3","4","-1","0","-1","0","-1","0","0","0","5","4","5","5","4","3","3","2","2","2","4","6","6","6","5","6","7","7","7","5","5","5","5","5","4","5","6","4","3","1","4","3","4","4","4","3","4","4","5","5","3","5","3","3","3","6","6","6","7","7","4","6","6","3","4","4","6","2","3","6","794290486587301890","王","649","Male","[""好我"",""坏我"",""坏他"",""好他""]","[""强我"",""弱我"",""弱他"",""强他""]","","","","","","","","yes","","","","","","","","","SRET","EW_formal","","key","j","16.66315789473684","960","536","自己","守时","Positive","morality","","","","","","","","","","",""
"631","","j","psychophysics","19","136670","0.0-7.0-3.0-0.5","4","3","3","3","3","4","3","3","2","3","4","-1","0","-1","0","-1","0","0","0","5","4","5","5","4","3","3","2","2","2","4","6","6","6","5","6","7","7","7","5","5","5","5","5","4","5","6","4","3","1","4","3","4","4","4","3","4","4","5","5","3","5","3","3","3","6","6","6","7","7","4","6","6","3","4","4","6","2","3","6","794290486587301890","王","649","Male","[""好我"",""坏我"",""坏他"",""好他""]","[""强我"",""弱我"",""弱他"",""强他""]","","","","","","","","yes","","","","","","","","","SRET","EW_formal","","key","j","16.663917525773137","960","536","自己","敏捷","Positive","ability","","","","","","","","","","",""
"557","","j","psychophysics","20","138229","0.0-7.0-3.0-0.6","4","3","3","3","3","4","3","3","2","3","4","-1","0","-1","0","-1","0","0","0","5","4","5","5","4","3","3","2","2","2","4","6","6","6","5","6","7","7","7","5","5","5","5","5","4","5","6","4","3","1","4","3","4","4","4","3","4","4","5","5","3","5","3","3","3","6","6","6","7","7","4","6","6","3","4","4","6","2","3","6","794290486587301890","王","649","Male","[""好我"",""坏我"",""坏他"",""好他""]","[""强我"",""弱我"",""弱他"",""强他""]","","","","","","","","yes","","","","","","","","","SRET","EW_formal","","key","j","16.663440860214866","960","536","自己","中用","Positive","ability","","","","","","","","","","",""
"614","","j","psychophysics","21","139845","0.0-7.0-3.0-0.7","4","3","3","3","3","4","3","3","2","3","4","-1","0","-1","0","-1","0","0","0","5","4","5","5","4","3","3","2","2","2","4","6","6","6","5","6","7","7","7","5","5","5","5","5","4","5","6","4","3","1","4","3","4","4","4","3","4","4","5","5","3","5","3","3","3","6","6","6","7","7","4","6","6","3","4","4","6","2","3","6","794290486587301890","王","649","Male","[""好我"",""坏我"",""坏他"",""好他""]","[""强我"",""弱我"",""弱他"",""强他""]","","","","","","","","yes","","","","","","","","","SRET","EW_formal","","key","j","16.663541666666788","960","536","自己","拖延","Negative","ability","","","","","","","","","","",""
"762","","j","psychophysics","22","141609","0.0-7.0-3.0-0.8","4","3","3","3","3","4","3","3","2","3","4","-1","0","-1","0","-1","0","0","0","5","4","5","5","4","3","3","2","2","2","4","6","6","6","5","6","7","7","7","5","5","5","5","5","4","5","6","4","3","1","4","3","4","4","4","3","4","4","5","5","3","5","3","3","3","6","6","6","7","7","4","6","6","3","4","4","6","2","3","6","794290486587301890","王","649","Male","[""好我"",""坏我"",""坏他"",""好他""]","[""强我"",""弱我"",""弱他"",""强他""]","","","","","","","","yes","","","","","","","","","SRET","EW_formal","","key","j","16.66346153846154","960","536","朋友","文明","Positive","morality","","","","","","","","","","",""
"643","","j","psychophysics","23","143253","0.0-7.0-3.0-0.9","4","3","3","3","3","4","3","3","2","3","4","-1","0","-1","0","-1","0","0","0","5","4","5","5","4","3","3","2","2","2","4","6","6","6","5","6","7","7","7","5","5","5","5","5","4","5","6","4","3","1","4","3","4","4","4","3","4","4","5","5","3","5","3","3","3","6","6","6","7","7","4","6","6","3","4","4","6","2","3","6","794290486587301890","王","649","Male","[""好我"",""坏我"",""坏他"",""好他""]","[""强我"",""弱我"",""弱他"",""强他""]","","","","","","","","yes","","","","","","","","","SRET","EW_formal","","key","j","16.663265306122447","960","536","朋友","肯干","Positive","ability","","","","","","","","","","",""
"589","","j","psychophysics","24","144845","0.0-7.0-3.0-0.10","4","3","3","3","3","4","3","3","2","3","4","-1","0","-1","0","-1","0","0","0","5","4","5","5","4","3","3","2","2","2","4","6","6","6","5","6","7","7","7","5","5","5","5","5","4","5","6","4","3","1","4","3","4","4","4","3","4","4","5","5","3","5","3","3","3","6","6","6","7","7","4","6","6","3","4","4","6","2","3","6","794290486587301890","王","649","Male","[""好我"",""坏我"",""坏他"",""好他""]","[""强我"",""弱我"",""弱他"",""强他""]","","","","","","","","yes","","","","","","","","","SRET","EW_formal","","key","j","16.66315789473684","960","536","自己","周到","Positive","ability","","","","","","","","","","",""
"542","","j","psychophysics","25","146389","0.0-7.0-3.0-0.11","4","3","3","3","3","4","3","3","2","3","4","-1","0","-1","0","-1","0","0","0","5","4","5","5","4","3","3","2","2","2","4","6","6","6","5","6","7","7","7","5","5","5","5","5","4","5","6","4","3","1","4","3","4","4","4","3","4","4","5","5","3","5","3","3","3","6","6","6","7","7","4","6","6","3","4","4","6","2","3","6","794290486587301890","王","649","Male","[""好我"",""坏我"",""坏他"",""好他""]","[""强我"",""弱我"",""弱他"",""强他""]","","","","","","","","yes","","","","","","","","","SRET","EW_formal","","key","j","16.6637362637362","960","536","朋友","谦逊","Positive","morality","","","","","","","","","","",""
"659","","j","psychophysics","26","148050","0.0-7.0-3.0-0.12","4","3","3","3","3","4","3","3","2","3","4","-1","0","-1","0","-1","0","0","0","5","4","5","5","4","3","3","2","2","2","4","6","6","6","5","6","7","7","7","5","5","5","5","5","4","5","6","4","3","1","4","3","4","4","4","3","4","4","5","5","3","5","3","3","3","6","6","6","7","7","4","6","6","3","4","4","6","2","3","6","794290486587301890","王","649","Male","[""好我"",""坏我"",""坏他"",""好他""]","[""强我"",""弱我"",""弱他"",""强他""]","","","","","","","","yes","","","","","","","","","SRET","EW_formal","","key","j","16.66363636363648","960","536","朋友","卑鄙","Negative","morality","","","","","","","","","","",""
"648","","j","psychophysics","27","149698","0.0-7.0-3.0-0.13","4","3","3","3","3","4","3","3","2","3","4","-1","0","-1","0","-1","0","0","0","5","4","5","5","4","3","3","2","2","2","4","6","6","6","5","6","7","7","7","5","5","5","5","5","4","5","6","4","3","1","4","3","4","4","4","3","4","4","5","5","3","5","3","3","3","6","6","6","7","7","4","6","6","3","4","4","6","2","3","6","794290486587301890","王","649","Male","[""好我"",""坏我"",""坏他"",""好他""]","[""强我"",""弱我"",""弱他"",""强他""]","","","","","","","","yes","","","","","","","","","SRET","EW_formal","","key","j","16.663265306122447","960","536","自己","善良","Positive","morality","","","","","","","","","","",""
"661","","j","psychophysics","28","151362","0.0-7.0-3.0-0.14","4","3","3","3","3","4","3","3","2","3","4","-1","0","-1","0","-1","0","0","0","5","4","5","5","4","3","3","2","2","2","4","6","6","6","5","6","7","7","7","5","5","5","5","5","4","5","6","4","3","1","4","3","4","4","4","3","4","4","5","5","3","5","3","3","3","6","6","6","7","7","4","6","6","3","4","4","6","2","3","6","794290486587301890","王","649","Male","[""好我"",""坏我"",""坏他"",""好他""]","[""强我"",""弱我"",""弱他"",""强他""]","","","","","","","","yes","","","","","","","","","SRET","EW_formal","","key","j","16.66363636363648","960","536","朋友","无敌","Positive","ability","","","","","","","","","","",""
"913","","f","psychophysics","29","153277","0.0-7.0-3.0-0.15","4","3","3","3","3","4","3","3","2","3","4","-1","0","-1","0","-1","0","0","0","5","4","5","5","4","3","3","2","2","2","4","6","6","6","5","6","7","7","7","5","5","5","5","5","4","5","6","4","3","1","4","3","4","4","4","3","4","4","5","5","3","5","3","3","3","6","6","6","7","7","4","6","6","3","4","4","6","2","3","6","794290486587301890","王","649","Male","[""好我"",""坏我"",""坏他"",""好他""]","[""强我"",""弱我"",""弱他"",""强他""]","","","","","","","","no","","","","","","","","","SRET","EW_formal","","key","f","16.663157894736894","960","536","朋友","阴毒","Negative","morality","","","","","","","","","","",""
"767","","j","psychophysics","30","155045","0.0-7.0-3.0-0.16","4","3","3","3","3","4","3","3","2","3","4","-1","0","-1","0","-1","0","0","0","5","4","5","5","4","3","3","2","2","2","4","6","6","6","5","6","7","7","7","5","5","5","5","5","4","5","6","4","3","1","4","3","4","4","4","3","4","4","5","5","3","5","3","3","3","6","6","6","7","7","4","6","6","3","4","4","6","2","3","6","794290486587301890","王","649","Male","[""好我"",""坏我"",""坏他"",""好他""]","[""强我"",""弱我"",""弱他"",""强他""]","","","","","","","","yes","","","","","","","","","SRET","EW_formal","","key","j","16.664761904761793","960","536","朋友","骁勇","Positive","ability","","","","","","","","","","",""
"811","","f","psychophysics","31","156857","0.0-7.0-3.0-0.17","4","3","3","3","3","4","3","3","2","3","4","-1","0","-1","0","-1","0","0","0","5","4","5","5","4","3","3","2","2","2","4","6","6","6","5","6","7","7","7","5","5","5","5","5","4","5","6","4","3","1","4","3","4","4","4","3","4","4","5","5","3","5","3","3","3","6","6","6","7","7","4","6","6","3","4","4","6","2","3","6","794290486587301890","王","649","Male","[""好我"",""坏我"",""坏他"",""好他""]","[""强我"",""弱我"",""弱他"",""强他""]","","","","","","","","no","","","","","","","","","SRET","EW_formal","","key","f","16.66355140186916","960","536","自己","邪恶","Negative","morality","","","","","","","","","","",""
"1052","","j","psychophysics","32","158910","0.0-7.0-3.0-0.18","4","3","3","3","3","4","3","3","2","3","4","-1","0","-1","0","-1","0","0","0","5","4","5","5","4","3","3","2","2","2","4","6","6","6","5","6","7","7","7","5","5","5","5","5","4","5","6","4","3","1","4","3","4","4","4","3","4","4","5","5","3","5","3","3","3","6","6","6","7","7","4","6","6","3","4","4","6","2","3","6","794290486587301890","王","649","Male","[""好我"",""坏我"",""坏他"",""好他""]","[""强我"",""弱我"",""弱他"",""强他""]","","","","","","","","yes","","","","","","","","","SRET","EW_formal","","key","j","16.66504065040641","960","536","朋友","变通","Positive","ability","","","","","","","","","","",""
"763","","f","psychophysics","33","160674","0.0-7.0-3.0-0.19","4","3","3","3","3","4","3","3","2","3","4","-1","0","-1","0","-1","0","0","0","5","4","5","5","4","3","3","2","2","2","4","6","6","6","5","6","7","7","7","5","5","5","5","5","4","5","6","4","3","1","4","3","4","4","4","3","4","4","5","5","3","5","3","3","3","6","6","6","7","7","4","6","6","3","4","4","6","2","3","6","794290486587301890","王","649","Male","[""好我"",""坏我"",""坏他"",""好他""]","[""强我"",""弱我"",""弱他"",""强他""]","","","","","","","","no","","","","","","","","","SRET","EW_formal","","key","f","16.6628571428572","960","536","朋友","诡诈","Negative","morality","","","","","","","","","","",""
"739","","j","psychophysics","34","162413","0.0-7.0-3.0-0.20","4","3","3","3","3","4","3","3","2","3","4","-1","0","-1","0","-1","0","0","0","5","4","5","5","4","3","3","2","2","2","4","6","6","6","5","6","7","7","7","5","5","5","5","5","4","5","6","4","3","1","4","3","4","4","4","3","4","4","5","5","3","5","3","3","3","6","6","6","7","7","4","6","6","3","4","4","6","2","3","6","794290486587301890","王","649","Male","[""好我"",""坏我"",""坏他"",""好他""]","[""强我"",""弱我"",""弱他"",""强他""]","","","","","","","","yes","","","","","","","","","SRET","EW_formal","","key","j","16.661165048543747","960","536","朋友","才尽","Negative","ability","","","","","","","","","","",""
"770","","f","psychophysics","35","164184","0.0-7.0-3.0-0.21","4","3","3","3","3","4","3","3","2","3","4","-1","0","-1","0","-1","0","0","0","5","4","5","5","4","3","3","2","2","2","4","6","6","6","5","6","7","7","7","5","5","5","5","5","4","5","6","4","3","1","4","3","4","4","4","3","4","4","5","5","3","5","3","3","3","6","6","6","7","7","4","6","6","3","4","4","6","2","3","6","794290486587301890","王","649","Male","[""好我"",""坏我"",""坏他"",""好他""]","[""强我"",""弱我"",""弱他"",""强他""]","","","","","","","","no","","","","","","","","","SRET","EW_formal","","key","f","16.663809523809636","960","536","朋友","缺德","Negative","morality","","","","","","","","","","",""
"751","","j","psychophysics","36","165936","0.0-7.0-3.0-0.22","4","3","3","3","3","4","3","3","2","3","4","-1","0","-1","0","-1","0","0","0","5","4","5","5","4","3","3","2","2","2","4","6","6","6","5","6","7","7","7","5","5","5","5","5","4","5","6","4","3","1","4","3","4","4","4","3","4","4","5","5","3","5","3","3","3","6","6","6","7","7","4","6","6","3","4","4","6","2","3","6","794290486587301890","王","649","Male","[""好我"",""坏我"",""坏他"",""好他""]","[""强我"",""弱我"",""弱他"",""强他""]","","","","","","","","yes","","","","","","","","","SRET","EW_formal","","key","j","16.664423076923132","960","536","朋友","能干","Positive","ability","","","","","","","","","","",""
"882","","f","psychophysics","37","167820","0.0-7.0-3.0-0.23","4","3","3","3","3","4","3","3","2","3","4","-1","0","-1","0","-1","0","0","0","5","4","5","5","4","3","3","2","2","2","4","6","6","6","5","6","7","7","7","5","5","5","5","5","4","5","6","4","3","1","4","3","4","4","4","3","4","4","5","5","3","5","3","3","3","6","6","6","7","7","4","6","6","3","4","4","6","2","3","6","794290486587301890","王","649","Male","[""好我"",""坏我"",""坏他"",""好他""]","[""强我"",""弱我"",""弱他"",""强他""]","","","","","","","","no","","","","","","","","","SRET","EW_formal","","key","f","16.66428571428566","960","536","朋友","新手","Negative","ability","","","","","","","","","","",""
"662","","j","psychophysics","38","169485","0.0-7.0-3.0-0.24","4","3","3","3","3","4","3","3","2","3","4","-1","0","-1","0","-1","0","0","0","5","4","5","5","4","3","3","2","2","2","4","6","6","6","5","6","7","7","7","5","5","5","5","5","4","5","6","4","3","1","4","3","4","4","4","3","4","4","5","5","3","5","3","3","3","6","6","6","7","7","4","6","6","3","4","4","6","2","3","6","794290486587301890","王","649","Male","[""好我"",""坏我"",""坏他"",""好他""]","[""强我"",""弱我"",""弱他"",""强他""]","","","","","","","","yes","","","","","","","","","SRET","EW_formal","","key","j","16.66464646464664","960","536","自己","热心","Positive","morality","","","","","","","","","","",""
"857","","f","psychophysics","39","171344","0.0-7.0-3.0-0.25","4","3","3","3","3","4","3","3","2","3","4","-1","0","-1","0","-1","0","0","0","5","4","5","5","4","3","3","2","2","2","4","6","6","6","5","6","7","7","7","5","5","5","5","5","4","5","6","4","3","1","4","3","4","4","4","3","4","4","5","5","3","5","3","3","3","6","6","6","7","7","4","6","6","3","4","4","6","2","3","6","794290486587301890","王","649","Male","[""好我"",""坏我"",""坏他"",""好他""]","[""强我"",""弱我"",""弱他"",""强他""]","","","","","","","","no","","","","","","","","","SRET","EW_formal","","key","f","16.66216216216216","960","536","自己","逞能","Negative","ability","","","","","","","","","","",""
"907","","f","psychophysics","40","173252","0.0-7.0-3.0-0.26","4","3","3","3","3","4","3","3","2","3","4","-1","0","-1","0","-1","0","0","0","5","4","5","5","4","3","3","2","2","2","4","6","6","6","5","6","7","7","7","5","5","5","5","5","4","5","6","4","3","1","4","3","4","4","4","3","4","4","5","5","3","5","3","3","3","6","6","6","7","7","4","6","6","3","4","4","6","2","3","6","794290486587301890","王","649","Male","[""好我"",""坏我"",""坏他"",""好他""]","[""强我"",""弱我"",""弱他"",""强他""]","","","","","","","","no","","","","","","","","","SRET","EW_formal","","key","f","16.663716814159294","960","536","自己","无赖","Negative","morality","","","","","","","","","","",""
"null","","null","psychophysics","41","176256","0.0-7.0-3.0-0.27","4","3","3","3","3","4","3","3","2","3","4","-1","0","-1","0","-1","0","0","0","5","4","5","5","4","3","3","2","2","2","4","6","6","6","5","6","7","7","7","5","5","5","5","5","4","5","6","4","3","1","4","3","4","4","4","3","4","4","5","5","3","5","3","3","3","6","6","6","7","7","4","6","6","3","4","4","6","2","3","6","794290486587301890","王","649","Male","[""好我"",""坏我"",""坏他"",""好他""]","[""强我"",""弱我"",""弱他"",""强他""]","","","","","","","","","","","","","","","","","SRET","EW_formal","","key","null","16.663333333333462","960","536","自己","小人","Negative","morality","","","","","","","","","","",""
"823","","f","psychophysics","42","178081","0.0-7.0-3.0-0.28","4","3","3","3","3","4","3","3","2","3","4","-1","0","-1","0","-1","0","0","0","5","4","5","5","4","3","3","2","2","2","4","6","6","6","5","6","7","7","7","5","5","5","5","5","4","5","6","4","3","1","4","3","4","4","4","3","4","4","5","5","3","5","3","3","3","6","6","6","7","7","4","6","6","3","4","4","6","2","3","6","794290486587301890","王","649","Male","[""好我"",""坏我"",""坏他"",""好他""]","[""强我"",""弱我"",""弱他"",""强他""]","","","","","","","","no","","","","","","","","","SRET","EW_formal","","key","f","16.662962962963018","960","536","朋友","愚痴","Negative","ability","","","","","","","","","","",""
"707","","f","psychophysics","43","179793","0.0-7.0-3.0-0.29","4","3","3","3","3","4","3","3","2","3","4","-1","0","-1","0","-1","0","0","0","5","4","5","5","4","3","3","2","2","2","4","6","6","6","5","6","7","7","7","5","5","5","5","5","4","5","6","4","3","1","4","3","4","4","4","3","4","4","5","5","3","5","3","3","3","6","6","6","7","7","4","6","6","3","4","4","6","2","3","6","794290486587301890","王","649","Male","[""好我"",""坏我"",""坏他"",""好他""]","[""强我"",""弱我"",""弱他"",""强他""]","","","","","","","","no","","","","","","","","","SRET","EW_formal","","key","f","16.663725490195908","960","536","朋友","罪恶","Negative","morality","","","","","","","","","","",""
"813","","j","psychophysics","44","181609","0.0-7.0-3.0-0.30","4","3","3","3","3","4","3","3","2","3","4","-1","0","-1","0","-1","0","0","0","5","4","5","5","4","3","3","2","2","2","4","6","6","6","5","6","7","7","7","5","5","5","5","5","4","5","6","4","3","1","4","3","4","4","4","3","4","4","5","5","3","5","3","3","3","6","6","6","7","7","4","6","6","3","4","4","6","2","3","6","794290486587301890","王","649","Male","[""好我"",""坏我"",""坏他"",""好他""]","[""强我"",""弱我"",""弱他"",""强他""]","","","","","","","","yes","","","","","","","","","SRET","EW_formal","","key","j","16.664814814814708","960","536","朋友","毅力","Positive","ability","","","","","","","","","","",""
"855","","f","psychophysics","45","183465","0.0-7.0-3.0-0.31","4","3","3","3","3","4","3","3","2","3","4","-1","0","-1","0","-1","0","0","0","5","4","5","5","4","3","3","2","2","2","4","6","6","6","5","6","7","7","7","5","5","5","5","5","4","5","6","4","3","1","4","3","4","4","4","3","4","4","5","5","3","5","3","3","3","6","6","6","7","7","4","6","6","3","4","4","6","2","3","6","794290486587301890","王","649","Male","[""好我"",""坏我"",""坏他"",""好他""]","[""强我"",""弱我"",""弱他"",""强他""]","","","","","","","","no","","","","","","","","","SRET","EW_formal","","key","f","16.663636363636364","960","536","朋友","屈才","Negative","ability","","","","","","","","","","",""
"754","","f","psychophysics","46","185221","0.0-7.0-3.0-0.32","4","3","3","3","3","4","3","3","2","3","4","-1","0","-1","0","-1","0","0","0","5","4","5","5","4","3","3","2","2","2","4","6","6","6","5","6","7","7","7","5","5","5","5","5","4","5","6","4","3","1","4","3","4","4","4","3","4","4","5","5","3","5","3","3","3","6","6","6","7","7","4","6","6","3","4","4","6","2","3","6","794290486587301890","王","649","Male","[""好我"",""坏我"",""坏他"",""好他""]","[""强我"",""弱我"",""弱他"",""强他""]","","","","","","","","no","","","","","","","","","SRET","EW_formal","","key","f","16.6628571428572","960","536","自己","伪善","Negative","morality","","","","","","","","","","",""
"1106","","f","psychophysics","47","187328","0.0-7.0-3.0-0.33","4","3","3","3","3","4","3","3","2","3","4","-1","0","-1","0","-1","0","0","0","5","4","5","5","4","3","3","2","2","2","4","6","6","6","5","6","7","7","7","5","5","5","5","5","4","5","6","4","3","1","4","3","4","4","4","3","4","4","5","5","3","5","3","3","3","6","6","6","7","7","4","6","6","3","4","4","6","2","3","6","794290486587301890","王","649","Male","[""好我"",""坏我"",""坏他"",""好他""]","[""强我"",""弱我"",""弱他"",""强他""]","","","","","","","","no","","","","","","","","","SRET","EW_formal","","key","f","16.663199999999954","960","536","朋友","失信","Negative","morality","","","","","","","","","","",""
"857","","f","psychophysics","48","189188","0.0-7.0-3.0-0.34","4","3","3","3","3","4","3","3","2","3","4","-1","0","-1","0","-1","0","0","0","5","4","5","5","4","3","3","2","2","2","4","6","6","6","5","6","7","7","7","5","5","5","5","5","4","5","6","4","3","1","4","3","4","4","4","3","4","4","5","5","3","5","3","3","3","6","6","6","7","7","4","6","6","3","4","4","6","2","3","6","794290486587301890","王","649","Male","[""好我"",""坏我"",""坏他"",""好他""]","[""强我"",""弱我"",""弱他"",""强他""]","","","","","","","","no","","","","","","","","","SRET","EW_formal","","key","f","16.663063063063117","960","536","自己","思辨","Positive","ability","","","","","","","","","","",""
"724","","j","psychophysics","49","190914","0.0-7.0-3.0-0.35","4","3","3","3","3","4","3","3","2","3","4","-1","0","-1","0","-1","0","0","0","5","4","5","5","4","3","3","2","2","2","4","6","6","6","5","6","7","7","7","5","5","5","5","5","4","5","6","4","3","1","4","3","4","4","4","3","4","4","5","5","3","5","3","3","3","6","6","6","7","7","4","6","6","3","4","4","6","2","3","6","794290486587301890","王","649","Male","[""好我"",""坏我"",""坏他"",""好他""]","[""强我"",""弱我"",""弱他"",""强他""]","","","","","","","","yes","","","","","","","","","SRET","EW_formal","","key","j","16.66176470588235","960","536","朋友","坦荡","Positive","morality","","","","","","","","","","",""
"868","","f","psychophysics","50","192784","0.0-7.0-3.0-0.36","4","3","3","3","3","4","3","3","2","3","4","-1","0","-1","0","-1","0","0","0","5","4","5","5","4","3","3","2","2","2","4","6","6","6","5","6","7","7","7","5","5","5","5","5","4","5","6","4","3","1","4","3","4","4","4","3","4","4","5","5","3","5","3","3","3","6","6","6","7","7","4","6","6","3","4","4","6","2","3","6","794290486587301890","王","649","Male","[""好我"",""坏我"",""坏他"",""好他""]","[""强我"",""弱我"",""弱他"",""强他""]","","","","","","","","no","","","","","","","","","SRET","EW_formal","","key","f","16.663392857142753","960","536","朋友","不仁","Negative","morality","","","","","","","","","","",""
"914","","j","psychophysics","51","194700","0.0-7.0-3.0-0.37","4","3","3","3","3","4","3","3","2","3","4","-1","0","-1","0","-1","0","0","0","5","4","5","5","4","3","3","2","2","2","4","6","6","6","5","6","7","7","7","5","5","5","5","5","4","5","6","4","3","1","4","3","4","4","4","3","4","4","5","5","3","5","3","3","3","6","6","6","7","7","4","6","6","3","4","4","6","2","3","6","794290486587301890","王","649","Male","[""好我"",""坏我"",""坏他"",""好他""]","[""强我"",""弱我"",""弱他"",""强他""]","","","","","","","","yes","","","","","","","","","SRET","EW_formal","","key","j","16.663157894736894","960","536","自己","顶事","Positive","ability","","","","","","","","","","",""
"788","","f","psychophysics","52","196489","0.0-7.0-3.0-0.38","4","3","3","3","3","4","3","3","2","3","4","-1","0","-1","0","-1","0","0","0","5","4","5","5","4","3","3","2","2","2","4","6","6","6","5","6","7","7","7","5","5","5","5","5","4","5","6","4","3","1","4","3","4","4","4","3","4","4","5","5","3","5","3","3","3","6","6","6","7","7","4","6","6","3","4","4","6","2","3","6","794290486587301890","王","649","Male","[""好我"",""坏我"",""坏他"",""好他""]","[""强我"",""弱我"",""弱他"",""强他""]","","","","","","","","no","","","","","","","","","SRET","EW_formal","","key","f","16.663207547169975","960","536","朋友","弱智","Negative","ability","","","","","","","","","","",""
"801","","f","psychophysics","53","198291","0.0-7.0-3.0-0.39","4","3","3","3","3","4","3","3","2","3","4","-1","0","-1","0","-1","0","0","0","5","4","5","5","4","3","3","2","2","2","4","6","6","6","5","6","7","7","7","5","5","5","5","5","4","5","6","4","3","1","4","3","4","4","4","3","4","4","5","5","3","5","3","3","3","6","6","6","7","7","4","6","6","3","4","4","6","2","3","6","794290486587301890","王","649","Male","[""好我"",""坏我"",""坏他"",""好他""]","[""强我"",""弱我"",""弱他"",""强他""]","","","","","","","","no","","","","","","","","","SRET","EW_formal","","key","f","16.662616822429854","960","536","自己","短浅","Negative","ability","","","","","","","","","","",""
"847","","f","psychophysics","54","200140","0.0-7.0-3.0-0.40","4","3","3","3","3","4","3","3","2","3","4","-1","0","-1","0","-1","0","0","0","5","4","5","5","4","3","3","2","2","2","4","6","6","6","5","6","7","7","7","5","5","5","5","5","4","5","6","4","3","1","4","3","4","4","4","3","4","4","5","5","3","5","3","3","3","6","6","6","7","7","4","6","6","3","4","4","6","2","3","6","794290486587301890","王","649","Male","[""好我"",""坏我"",""坏他"",""好他""]","[""强我"",""弱我"",""弱他"",""强他""]","","","","","","","","no","","","","","","","","","SRET","EW_formal","","key","f","16.664545454545507","960","536","朋友","犹豫","Negative","ability","","","","","","","","","","",""
"747","","f","psychophysics","55","201889","0.0-7.0-3.0-0.41","4","3","3","3","3","4","3","3","2","3","4","-1","0","-1","0","-1","0","0","0","5","4","5","5","4","3","3","2","2","2","4","6","6","6","5","6","7","7","7","5","5","5","5","5","4","5","6","4","3","1","4","3","4","4","4","3","4","4","5","5","3","5","3","3","3","6","6","6","7","7","4","6","6","3","4","4","6","2","3","6","794290486587301890","王","649","Male","[""好我"",""坏我"",""坏他"",""好他""]","[""强我"",""弱我"",""弱他"",""强他""]","","","","","","","","no","","","","","","","","","SRET","EW_formal","","key","f","16.665384615384728","960","536","朋友","盲目","Negative","ability","","","","","","","","","","",""
"659","","j","psychophysics","56","203549","0.0-7.0-3.0-0.42","4","3","3","3","3","4","3","3","2","3","4","-1","0","-1","0","-1","0","0","0","5","4","5","5","4","3","3","2","2","2","4","6","6","6","5","6","7","7","7","5","5","5","5","5","4","5","6","4","3","1","4","3","4","4","4","3","4","4","5","5","3","5","3","3","3","6","6","6","7","7","4","6","6","3","4","4","6","2","3","6","794290486587301890","王","649","Male","[""好我"",""坏我"",""坏他"",""好他""]","[""强我"",""弱我"",""弱他"",""强他""]","","","","","","","","yes","","","","","","","","","SRET","EW_formal","","key","j","16.664646464646346","960","536","朋友","正气","Positive","morality","","","","","","","","","","",""
"746","","j","psychophysics","57","205304","0.0-7.0-3.0-0.43","4","3","3","3","3","4","3","3","2","3","4","-1","0","-1","0","-1","0","0","0","5","4","5","5","4","3","3","2","2","2","4","6","6","6","5","6","7","7","7","5","5","5","5","5","4","5","6","4","3","1","4","3","4","4","4","3","4","4","5","5","3","5","3","3","3","6","6","6","7","7","4","6","6","3","4","4","6","2","3","6","794290486587301890","王","649","Male","[""好我"",""坏我"",""坏他"",""好他""]","[""强我"",""弱我"",""弱他"",""强他""]","","","","","","","","yes","","","","","","","","","SRET","EW_formal","","key","j","16.66346153846154","960","536","朋友","宽容","Positive","morality","","","","","","","","","","",""
"938","","f","psychophysics","58","207244","0.0-7.0-3.0-0.44","4","3","3","3","3","4","3","3","2","3","4","-1","0","-1","0","-1","0","0","0","5","4","5","5","4","3","3","2","2","2","4","6","6","6","5","6","7","7","7","5","5","5","5","5","4","5","6","4","3","1","4","3","4","4","4","3","4","4","5","5","3","5","3","3","3","6","6","6","7","7","4","6","6","3","4","4","6","2","3","6","794290486587301890","王","649","Male","[""好我"",""坏我"",""坏他"",""好他""]","[""强我"",""弱我"",""弱他"",""强他""]","","","","","","","","no","","","","","","","","","SRET","EW_formal","","key","f","16.662608695652274","960","536","朋友","浅薄","Negative","ability","","","","","","","","","","",""
"796","","j","psychophysics","59","209044","0.0-7.0-3.0-0.45","4","3","3","3","3","4","3","3","2","3","4","-1","0","-1","0","-1","0","0","0","5","4","5","5","4","3","3","2","2","2","4","6","6","6","5","6","7","7","7","5","5","5","5","5","4","5","6","4","3","1","4","3","4","4","4","3","4","4","5","5","3","5","3","3","3","6","6","6","7","7","4","6","6","3","4","4","6","2","3","6","794290486587301890","王","649","Male","[""好我"",""坏我"",""坏他"",""好他""]","[""强我"",""弱我"",""弱他"",""强他""]","","","","","","","","yes","","","","","","","","","SRET","EW_formal","","key","j","16.66355140186916","960","536","朋友","好心","Positive","morality","","","","","","","","","","",""
"848","","f","psychophysics","60","210893","0.0-7.0-3.0-0.46","4","3","3","3","3","4","3","3","2","3","4","-1","0","-1","0","-1","0","0","0","5","4","5","5","4","3","3","2","2","2","4","6","6","6","5","6","7","7","7","5","5","5","5","5","4","5","6","4","3","1","4","3","4","4","4","3","4","4","5","5","3","5","3","3","3","6","6","6","7","7","4","6","6","3","4","4","6","2","3","6","794290486587301890","王","649","Male","[""好我"",""坏我"",""坏他"",""好他""]","[""强我"",""弱我"",""弱他"",""强他""]","","","","","","","","no","","","","","","","","","SRET","EW_formal","","key","f","16.663636363636364","960","536","自己","无为","Negative","ability","","","","","","","","","","",""
"971","","j","psychophysics","61","212865","0.0-7.0-3.0-0.47","4","3","3","3","3","4","3","3","2","3","4","-1","0","-1","0","-1","0","0","0","5","4","5","5","4","3","3","2","2","2","4","6","6","6","5","6","7","7","7","5","5","5","5","5","4","5","6","4","3","1","4","3","4","4","4","3","4","4","5","5","3","5","3","3","3","6","6","6","7","7","4","6","6","3","4","4","6","2","3","6","794290486587301890","王","649","Male","[""好我"",""坏我"",""坏他"",""好他""]","[""强我"",""弱我"",""弱他"",""强他""]","","","","","","","","yes","","","","","","","","","SRET","EW_formal","","key","j","16.663559322034047","960","536","自己","忠勇","Positive","morality","","","","","","","","","","",""
"734","","f","psychophysics","62","214601","0.0-7.0-3.0-0.48","4","3","3","3","3","4","3","3","2","3","4","-1","0","-1","0","-1","0","0","0","5","4","5","5","4","3","3","2","2","2","4","6","6","6","5","6","7","7","7","5","5","5","5","5","4","5","6","4","3","1","4","3","4","4","4","3","4","4","5","5","3","5","3","3","3","6","6","6","7","7","4","6","6","3","4","4","6","2","3","6","794290486587301890","王","649","Male","[""好我"",""坏我"",""坏他"",""好他""]","[""强我"",""弱我"",""弱他"",""强他""]","","","","","","","","no","","","","","","","","","SRET","EW_formal","","key","f","16.66407766990314","960","536","自己","腐败","Negative","morality","","","","","","","","","","",""
"784","","j","psychophysics","63","216388","0.0-7.0-3.0-0.49","4","3","3","3","3","4","3","3","2","3","4","-1","0","-1","0","-1","0","0","0","5","4","5","5","4","3","3","2","2","2","4","6","6","6","5","6","7","7","7","5","5","5","5","5","4","5","6","4","3","1","4","3","4","4","4","3","4","4","5","5","3","5","3","3","3","6","6","6","7","7","4","6","6","3","4","4","6","2","3","6","794290486587301890","王","649","Male","[""好我"",""坏我"",""坏他"",""好他""]","[""强我"",""弱我"",""弱他"",""强他""]","","","","","","","","yes","","","","","","","","","SRET","EW_formal","","key","j","16.66509433962264","960","536","朋友","慷慨","Positive","morality","","","","","","","","","","",""
"826","","j","psychophysics","64","218216","0.0-7.0-3.0-0.50","4","3","3","3","3","4","3","3","2","3","4","-1","0","-1","0","-1","0","0","0","5","4","5","5","4","3","3","2","2","2","4","6","6","6","5","6","7","7","7","5","5","5","5","5","4","5","6","4","3","1","4","3","4","4","4","3","4","4","5","5","3","5","3","3","3","6","6","6","7","7","4","6","6","3","4","4","6","2","3","6","794290486587301890","王","649","Male","[""好我"",""坏我"",""坏他"",""好他""]","[""强我"",""弱我"",""弱他"",""强他""]","","","","","","","","yes","","","","","","","","","SRET","EW_formal","","key","j","16.66330275229374","960","536","朋友","果决","Positive","ability","","","","","","","","","","",""
"758","","f","psychophysics","65","219976","0.0-7.0-3.0-0.51","4","3","3","3","3","4","3","3","2","3","4","-1","0","-1","0","-1","0","0","0","5","4","5","5","4","3","3","2","2","2","4","6","6","6","5","6","7","7","7","5","5","5","5","5","4","5","6","4","3","1","4","3","4","4","4","3","4","4","5","5","3","5","3","3","3","6","6","6","7","7","4","6","6","3","4","4","6","2","3","6","794290486587301890","王","649","Male","[""好我"",""坏我"",""坏他"",""好他""]","[""强我"",""弱我"",""弱他"",""强他""]","","","","","","","","no","","","","","","","","","SRET","EW_formal","","key","f","16.66346153846154","960","536","自己","拖拉","Negative","ability","","","","","","","","","","",""
"774","","j","psychophysics","66","221752","0.0-7.0-3.0-0.52","4","3","3","3","3","4","3","3","2","3","4","-1","0","-1","0","-1","0","0","0","5","4","5","5","4","3","3","2","2","2","4","6","6","6","5","6","7","7","7","5","5","5","5","5","4","5","6","4","3","1","4","3","4","4","4","3","4","4","5","5","3","5","3","3","3","6","6","6","7","7","4","6","6","3","4","4","6","2","3","6","794290486587301890","王","649","Male","[""好我"",""坏我"",""坏他"",""好他""]","[""强我"",""弱我"",""弱他"",""强他""]","","","","","","","","yes","","","","","","","","","SRET","EW_formal","","key","j","16.664150943396173","960","536","自己","诚信","Positive","morality","","","","","","","","","","",""
"778","","j","psychophysics","67","223532","0.0-7.0-3.0-0.53","4","3","3","3","3","4","3","3","2","3","4","-1","0","-1","0","-1","0","0","0","5","4","5","5","4","3","3","2","2","2","4","6","6","6","5","6","7","7","7","5","5","5","5","5","4","5","6","4","3","1","4","3","4","4","4","3","4","4","5","5","3","5","3","3","3","6","6","6","7","7","4","6","6","3","4","4","6","2","3","6","794290486587301890","王","649","Male","[""好我"",""坏我"",""坏他"",""好他""]","[""强我"",""弱我"",""弱他"",""强他""]","","","","","","","","yes","","","","","","","","","SRET","EW_formal","","key","j","16.663207547169975","960","536","自己","果断","Positive","ability","","","","","","","","","","",""
"689","","j","psychophysics","68","225224","0.0-7.0-3.0-0.54","4","3","3","3","3","4","3","3","2","3","4","-1","0","-1","0","-1","0","0","0","5","4","5","5","4","3","3","2","2","2","4","6","6","6","5","6","7","7","7","5","5","5","5","5","4","5","6","4","3","1","4","3","4","4","4","3","4","4","5","5","3","5","3","3","3","6","6","6","7","7","4","6","6","3","4","4","6","2","3","6","794290486587301890","王","649","Male","[""好我"",""坏我"",""坏他"",""好他""]","[""强我"",""弱我"",""弱他"",""强他""]","","","","","","","","yes","","","","","","","","","SRET","EW_formal","","key","j","16.662000000000116","960","536","朋友","上进","Positive","ability","","","","","","","","","","",""
"812","","f","psychophysics","69","227038","0.0-7.0-3.0-0.55","4","3","3","3","3","4","3","3","2","3","4","-1","0","-1","0","-1","0","0","0","5","4","5","5","4","3","3","2","2","2","4","6","6","6","5","6","7","7","7","5","5","5","5","5","4","5","6","4","3","1","4","3","4","4","4","3","4","4","5","5","3","5","3","3","3","6","6","6","7","7","4","6","6","3","4","4","6","2","3","6","794290486587301890","王","649","Male","[""好我"",""坏我"",""坏他"",""好他""]","[""强我"",""弱我"",""弱他"",""强他""]","","","","","","","","no","","","","","","","","","SRET","EW_formal","","key","f","16.663888888888998","960","536","自己","毛糙","Negative","ability","","","","","","","","","","",""
"844","","f","psychophysics","70","228883","0.0-7.0-3.0-0.56","4","3","3","3","3","4","3","3","2","3","4","-1","0","-1","0","-1","0","0","0","5","4","5","5","4","3","3","2","2","2","4","6","6","6","5","6","7","7","7","5","5","5","5","5","4","5","6","4","3","1","4","3","4","4","4","3","4","4","5","5","3","5","3","3","3","6","6","6","7","7","4","6","6","3","4","4","6","2","3","6","794290486587301890","王","649","Male","[""好我"",""坏我"",""坏他"",""好他""]","[""强我"",""弱我"",""弱他"",""强他""]","","","","","","","","no","","","","","","","","","SRET","EW_formal","","key","f","16.664545454545244","960","536","自己","侠义","Positive","morality","","","","","","","","","","",""
"708","","j","psychophysics","71","230594","0.0-7.0-3.0-0.57","4","3","3","3","3","4","3","3","2","3","4","-1","0","-1","0","-1","0","0","0","5","4","5","5","4","3","3","2","2","2","4","6","6","6","5","6","7","7","7","5","5","5","5","5","4","5","6","4","3","1","4","3","4","4","4","3","4","4","5","5","3","5","3","3","3","6","6","6","7","7","4","6","6","3","4","4","6","2","3","6","794290486587301890","王","649","Male","[""好我"",""坏我"",""坏他"",""好他""]","[""强我"",""弱我"",""弱他"",""强他""]","","","","","","","","yes","","","","","","","","","SRET","EW_formal","","key","j","16.66176470588235","960","536","自己","利落","Positive","ability","","","","","","","","","","",""
"862","","f","psychophysics","72","232457","0.0-7.0-3.0-0.58","4","3","3","3","3","4","3","3","2","3","4","-1","0","-1","0","-1","0","0","0","5","4","5","5","4","3","3","2","2","2","4","6","6","6","5","6","7","7","7","5","5","5","5","5","4","5","6","4","3","1","4","3","4","4","4","3","4","4","5","5","3","5","3","3","3","6","6","6","7","7","4","6","6","3","4","4","6","2","3","6","794290486587301890","王","649","Male","[""好我"",""坏我"",""坏他"",""好他""]","[""强我"",""弱我"",""弱他"",""强他""]","","","","","","","","no","","","","","","","","","SRET","EW_formal","","key","f","16.663636363636364","960","536","自己","逞强","Negative","ability","","","","","","","","","","",""
"707","","f","psychophysics","73","234165","0.0-7.0-3.0-0.59","4","3","3","3","3","4","3","3","2","3","4","-1","0","-1","0","-1","0","0","0","5","4","5","5","4","3","3","2","2","2","4","6","6","6","5","6","7","7","7","5","5","5","5","5","4","5","6","4","3","1","4","3","4","4","4","3","4","4","5","5","3","5","3","3","3","6","6","6","7","7","4","6","6","3","4","4","6","2","3","6","794290486587301890","王","649","Male","[""好我"",""坏我"",""坏他"",""好他""]","[""强我"",""弱我"",""弱他"",""强他""]","","","","","","","","no","","","","","","","","","SRET","EW_formal","","key","f","16.663725490196192","960","536","自己","黑心","Negative","morality","","","","","","","","","","",""
"661","","f","psychophysics","74","235829","0.0-7.0-3.0-0.60","4","3","3","3","3","4","3","3","2","3","4","-1","0","-1","0","-1","0","0","0","5","4","5","5","4","3","3","2","2","2","4","6","6","6","5","6","7","7","7","5","5","5","5","5","4","5","6","4","3","1","4","3","4","4","4","3","4","4","5","5","3","5","3","3","3","6","6","6","7","7","4","6","6","3","4","4","6","2","3","6","794290486587301890","王","649","Male","[""好我"",""坏我"",""坏他"",""好他""]","[""强我"",""弱我"",""弱他"",""强他""]","","","","","","","","no","","","","","","","","","SRET","EW_formal","","key","f","16.662626262626027","960","536","自己","低劣","Negative","morality","","","","","","","","","","",""
"569","","f","psychophysics","75","237399","0.0-7.0-3.0-0.61","4","3","3","3","3","4","3","3","2","3","4","-1","0","-1","0","-1","0","0","0","5","4","5","5","4","3","3","2","2","2","4","6","6","6","5","6","7","7","7","5","5","5","5","5","4","5","6","4","3","1","4","3","4","4","4","3","4","4","5","5","3","5","3","3","3","6","6","6","7","7","4","6","6","3","4","4","6","2","3","6","794290486587301890","王","649","Male","[""好我"",""坏我"",""坏他"",""好他""]","[""强我"",""弱我"",""弱他"",""强他""]","","","","","","","","no","","","","","","","","","SRET","EW_formal","","key","f","16.66236559139791","960","536","朋友","下流","Negative","morality","","","","","","","","","","",""
"653","","f","psychophysics","76","239058","0.0-7.0-3.0-0.62","4","3","3","3","3","4","3","3","2","3","4","-1","0","-1","0","-1","0","0","0","5","4","5","5","4","3","3","2","2","2","4","6","6","6","5","6","7","7","7","5","5","5","5","5","4","5","6","4","3","1","4","3","4","4","4","3","4","4","5","5","3","5","3","3","3","6","6","6","7","7","4","6","6","3","4","4","6","2","3","6","794290486587301890","王","649","Male","[""好我"",""坏我"",""坏他"",""好他""]","[""强我"",""弱我"",""弱他"",""强他""]","","","","","","","","no","","","","","","","","","SRET","EW_formal","","key","f","16.663265306122447","960","536","自己","贪腐","Negative","morality","","","","","","","","","","",""
"866","","f","psychophysics","77","240925","0.0-7.0-3.0-0.63","4","3","3","3","3","4","3","3","2","3","4","-1","0","-1","0","-1","0","0","0","5","4","5","5","4","3","3","2","2","2","4","6","6","6","5","6","7","7","7","5","5","5","5","5","4","5","6","4","3","1","4","3","4","4","4","3","4","4","5","5","3","5","3","3","3","6","6","6","7","7","4","6","6","3","4","4","6","2","3","6","794290486587301890","王","649","Male","[""好我"",""坏我"",""坏他"",""好他""]","[""强我"",""弱我"",""弱他"",""强他""]","","","","","","","","no","","","","","","","","","SRET","EW_formal","","key","f","16.663392857142753","960","536","朋友","仁爱","Positive","morality","","","","","","","","","","",""
"838","","f","psychophysics","78","242764","0.0-7.0-3.0-0.64","4","3","3","3","3","4","3","3","2","3","4","-1","0","-1","0","-1","0","0","0","5","4","5","5","4","3","3","2","2","2","4","6","6","6","5","6","7","7","7","5","5","5","5","5","4","5","6","4","3","1","4","3","4","4","4","3","4","4","5","5","3","5","3","3","3","6","6","6","7","7","4","6","6","3","4","4","6","2","3","6","794290486587301890","王","649","Male","[""好我"",""坏我"",""坏他"",""好他""]","[""强我"",""弱我"",""弱他"",""强他""]","","","","","","","","no","","","","","","","","","SRET","EW_formal","","key","f","16.663302752293472","960","536","自己","草率","Negative","ability","","","","","","","","","","",""
"713","","f","psychophysics","79","244479","0.0-7.0-3.0-0.65","4","3","3","3","3","4","3","3","2","3","4","-1","0","-1","0","-1","0","0","0","5","4","5","5","4","3","3","2","2","2","4","6","6","6","5","6","7","7","7","5","5","5","5","5","4","5","6","4","3","1","4","3","4","4","4","3","4","4","5","5","3","5","3","3","3","6","6","6","7","7","4","6","6","3","4","4","6","2","3","6","794290486587301890","王","649","Male","[""好我"",""坏我"",""坏他"",""好他""]","[""强我"",""弱我"",""弱他"",""强他""]","","","","","","","","no","","","","","","","","","SRET","EW_formal","","key","f","16.664705882352827","960","536","自己","智慧","Positive","ability","","","","","","","","","","",""
"1068","","j","psychophysics","80","246549","0.0-7.0-3.0-0.66","4","3","3","3","3","4","3","3","2","3","4","-1","0","-1","0","-1","0","0","0","5","4","5","5","4","3","3","2","2","2","4","6","6","6","5","6","7","7","7","5","5","5","5","5","4","5","6","4","3","1","4","3","4","4","4","3","4","4","5","5","3","5","3","3","3","6","6","6","7","7","4","6","6","3","4","4","6","2","3","6","794290486587301890","王","649","Male","[""好我"",""坏我"",""坏他"",""好他""]","[""强我"",""弱我"",""弱他"",""强他""]","","","","","","","","yes","","","","","","","","","SRET","EW_formal","","key","j","16.66341463414639","960","536","自己","敬业","Positive","morality","","","","","","","","","","",""
"1314","","f","psychophysics","81","248865","0.0-7.0-3.0-0.67","4","3","3","3","3","4","3","3","2","3","4","-1","0","-1","0","-1","0","0","0","5","4","5","5","4","3","3","2","2","2","4","6","6","6","5","6","7","7","7","5","5","5","5","5","4","5","6","4","3","1","4","3","4","4","4","3","4","4","5","5","3","5","3","3","3","6","6","6","7","7","4","6","6","3","4","4","6","2","3","6","794290486587301890","王","649","Male","[""好我"",""坏我"",""坏他"",""好他""]","[""强我"",""弱我"",""弱他"",""强他""]","","","","","","","","no","","","","","","","","","SRET","EW_formal","","key","f","16.66376811594207","960","536","朋友","庸碌","Negative","ability","","","","","","","","","","",""
"737","","j","psychophysics","82","250603","0.0-7.0-3.0-0.68","4","3","3","3","3","4","3","3","2","3","4","-1","0","-1","0","-1","0","0","0","5","4","5","5","4","3","3","2","2","2","4","6","6","6","5","6","7","7","7","5","5","5","5","5","4","5","6","4","3","1","4","3","4","4","4","3","4","4","5","5","3","5","3","3","3","6","6","6","7","7","4","6","6","3","4","4","6","2","3","6","794290486587301890","王","649","Male","[""好我"",""坏我"",""坏他"",""好他""]","[""强我"",""弱我"",""弱他"",""强他""]","","","","","","","","yes","","","","","","","","","SRET","EW_formal","","key","j","16.663106796116676","960","536","朋友","善心","Positive","morality","","","","","","","","","","",""
"880","","j","psychophysics","83","252485","0.0-7.0-3.0-0.69","4","3","3","3","3","4","3","3","2","3","4","-1","0","-1","0","-1","0","0","0","5","4","5","5","4","3","3","2","2","2","4","6","6","6","5","6","7","7","7","5","5","5","5","5","4","5","6","4","3","1","4","3","4","4","4","3","4","4","5","5","3","5","3","3","3","6","6","6","7","7","4","6","6","3","4","4","6","2","3","6","794290486587301890","王","649","Male","[""好我"",""坏我"",""坏他"",""好他""]","[""强我"",""弱我"",""弱他"",""强他""]","","","","","","","","yes","","","","","","","","","SRET","EW_formal","","key","j","16.663392857143013","960","536","自己","高效","Positive","ability","","","","","","","","","","",""
"899","","f","psychophysics","84","254386","0.0-7.0-3.0-0.70","4","3","3","3","3","4","3","3","2","3","4","-1","0","-1","0","-1","0","0","0","5","4","5","5","4","3","3","2","2","2","4","6","6","6","5","6","7","7","7","5","5","5","5","5","4","5","6","4","3","1","4","3","4","4","4","3","4","4","5","5","3","5","3","3","3","6","6","6","7","7","4","6","6","3","4","4","6","2","3","6","794290486587301890","王","649","Male","[""好我"",""坏我"",""坏他"",""好他""]","[""强我"",""弱我"",""弱他"",""强他""]","","","","","","","","no","","","","","","","","","SRET","EW_formal","","key","f","16.662831858407287","960","536","自己","无私","Positive","morality","","","","","","","","","","",""
"695","","f","psychophysics","85","256081","0.0-7.0-3.0-0.71","4","3","3","3","3","4","3","3","2","3","4","-1","0","-1","0","-1","0","0","0","5","4","5","5","4","3","3","2","2","2","4","6","6","6","5","6","7","7","7","5","5","5","5","5","4","5","6","4","3","1","4","3","4","4","4","3","4","4","5","5","3","5","3","3","3","6","6","6","7","7","4","6","6","3","4","4","6","2","3","6","794290486587301890","王","649","Male","[""好我"",""坏我"",""坏他"",""好他""]","[""强我"",""弱我"",""弱他"",""强他""]","","","","","","","","no","","","","","","","","","SRET","EW_formal","","key","f","16.664356435643622","960","536","自己","狡诈","Negative","morality","","","","","","","","","","",""
"799","","j","psychophysics","86","257881","0.0-7.0-3.0-0.72","4","3","3","3","3","4","3","3","2","3","4","-1","0","-1","0","-1","0","0","0","5","4","5","5","4","3","3","2","2","2","4","6","6","6","5","6","7","7","7","5","5","5","5","5","4","5","6","4","3","1","4","3","4","4","4","3","4","4","5","5","3","5","3","3","3","6","6","6","7","7","4","6","6","3","4","4","6","2","3","6","794290486587301890","王","649","Male","[""好我"",""坏我"",""坏他"",""好他""]","[""强我"",""弱我"",""弱他"",""强他""]","","","","","","","","yes","","","","","","","","","SRET","EW_formal","","key","j","16.66355140186916","960","536","自己","勤恳","Positive","morality","","","","","","","","","","",""
"663","","j","psychophysics","87","259545","0.0-7.0-3.0-0.73","4","3","3","3","3","4","3","3","2","3","4","-1","0","-1","0","-1","0","0","0","5","4","5","5","4","3","3","2","2","2","4","6","6","6","5","6","7","7","7","5","5","5","5","5","4","5","6","4","3","1","4","3","4","4","4","3","4","4","5","5","3","5","3","3","3","6","6","6","7","7","4","6","6","3","4","4","6","2","3","6","794290486587301890","王","649","Male","[""好我"",""坏我"",""坏他"",""好他""]","[""强我"",""弱我"",""弱他"",""强他""]","","","","","","","","yes","","","","","","","","","SRET","EW_formal","","key","j","16.663636363636186","960","536","朋友","自律","Positive","ability","","","","","","","","","","",""
"703","","j","psychophysics","88","261249","0.0-7.0-3.0-0.74","4","3","3","3","3","4","3","3","2","3","4","-1","0","-1","0","-1","0","0","0","5","4","5","5","4","3","3","2","2","2","4","6","6","6","5","6","7","7","7","5","5","5","5","5","4","5","6","4","3","1","4","3","4","4","4","3","4","4","5","5","3","5","3","3","3","6","6","6","7","7","4","6","6","3","4","4","6","2","3","6","794290486587301890","王","649","Male","[""好我"",""坏我"",""坏他"",""好他""]","[""强我"",""弱我"",""弱他"",""强他""]","","","","","","","","yes","","","","","","","","","SRET","EW_formal","","key","j","16.662376237623704","960","536","自己","细心","Positive","ability","","","","","","","","","","",""
"735","","f","psychophysics","89","262985","0.0-7.0-3.0-0.75","4","3","3","3","3","4","3","3","2","3","4","-1","0","-1","0","-1","0","0","0","5","4","5","5","4","3","3","2","2","2","4","6","6","6","5","6","7","7","7","5","5","5","5","5","4","5","6","4","3","1","4","3","4","4","4","3","4","4","5","5","3","5","3","3","3","6","6","6","7","7","4","6","6","3","4","4","6","2","3","6","794290486587301890","王","649","Male","[""好我"",""坏我"",""坏他"",""好他""]","[""强我"",""弱我"",""弱他"",""强他""]","","","","","","","","no","","","","","","","","","SRET","EW_formal","","key","f","16.66407766990314","960","536","朋友","昏庸","Negative","ability","","","","","","","","","","",""
"897","","f","psychophysics","90","264883","0.0-7.0-3.0-0.76","4","3","3","3","3","4","3","3","2","3","4","-1","0","-1","0","-1","0","0","0","5","4","5","5","4","3","3","2","2","2","4","6","6","6","5","6","7","7","7","5","5","5","5","5","4","5","6","4","3","1","4","3","4","4","4","3","4","4","5","5","3","5","3","3","3","6","6","6","7","7","4","6","6","3","4","4","6","2","3","6","794290486587301890","王","649","Male","[""好我"",""坏我"",""坏他"",""好他""]","[""强我"",""弱我"",""弱他"",""强他""]","","","","","","","","no","","","","","","","","","SRET","EW_formal","","key","f","16.663716814159294","960","536","自己","驽钝","Negative","ability","","","","","","","","","","",""
"776","","f","psychophysics","91","266660","0.0-7.0-3.0-0.77","4","3","3","3","3","4","3","3","2","3","4","-1","0","-1","0","-1","0","0","0","5","4","5","5","4","3","3","2","2","2","4","6","6","6","5","6","7","7","7","5","5","5","5","5","4","5","6","4","3","1","4","3","4","4","4","3","4","4","5","5","3","5","3","3","3","6","6","6","7","7","4","6","6","3","4","4","6","2","3","6","794290486587301890","王","649","Male","[""好我"",""坏我"",""坏他"",""好他""]","[""强我"",""弱我"",""弱他"",""强他""]","","","","","","","","no","","","","","","","","","SRET","EW_formal","","key","f","16.66509433962264","960","536","自己","笨蛋","Negative","ability","","","","","","","","","","",""
"790","","f","psychophysics","92","268453","0.0-7.0-3.0-0.78","4","3","3","3","3","4","3","3","2","3","4","-1","0","-1","0","-1","0","0","0","5","4","5","5","4","3","3","2","2","2","4","6","6","6","5","6","7","7","7","5","5","5","5","5","4","5","6","4","3","1","4","3","4","4","4","3","4","4","5","5","3","5","3","3","3","6","6","6","7","7","4","6","6","3","4","4","6","2","3","6","794290486587301890","王","649","Male","[""好我"",""坏我"",""坏他"",""好他""]","[""强我"",""弱我"",""弱他"",""强他""]","","","","","","","","no","","","","","","","","","SRET","EW_formal","","key","f","16.664485981308193","960","536","朋友","高洁","Positive","morality","","","","","","","","","","",""
"763","","j","psychophysics","93","270218","0.0-7.0-3.0-0.79","4","3","3","3","3","4","3","3","2","3","4","-1","0","-1","0","-1","0","0","0","5","4","5","5","4","3","3","2","2","2","4","6","6","6","5","6","7","7","7","5","5","5","5","5","4","5","6","4","3","1","4","3","4","4","4","3","4","4","5","5","3","5","3","3","3","6","6","6","7","7","4","6","6","3","4","4","6","2","3","6","794290486587301890","王","649","Male","[""好我"",""坏我"",""坏他"",""好他""]","[""强我"",""弱我"",""弱他"",""强他""]","","","","","","","","yes","","","","","","","","","SRET","EW_formal","","key","j","16.662500000000225","960","536","自己","清廉","Positive","morality","","","","","","","","","","",""
"781","","j","psychophysics","94","272001","0.0-7.0-3.0-0.80","4","3","3","3","3","4","3","3","2","3","4","-1","0","-1","0","-1","0","0","0","5","4","5","5","4","3","3","2","2","2","4","6","6","6","5","6","7","7","7","5","5","5","5","5","4","5","6","4","3","1","4","3","4","4","4","3","4","4","5","5","3","5","3","3","3","6","6","6","7","7","4","6","6","3","4","4","6","2","3","6","794290486587301890","王","649","Male","[""好我"",""坏我"",""坏他"",""好他""]","[""强我"",""弱我"",""弱他"",""强他""]","","","","","","","","yes","","","","","","","","","SRET","EW_formal","","key","j","16.663207547170252","960","536","朋友","博识","Positive","ability","","","","","","","","","","",""
"611","","f","psychophysics","95","273613","0.0-7.0-3.0-0.81","4","3","3","3","3","4","3","3","2","3","4","-1","0","-1","0","-1","0","0","0","5","4","5","5","4","3","3","2","2","2","4","6","6","6","5","6","7","7","7","5","5","5","5","5","4","5","6","4","3","1","4","3","4","4","4","3","4","4","5","5","3","5","3","3","3","6","6","6","7","7","4","6","6","3","4","4","6","2","3","6","794290486587301890","王","649","Male","[""好我"",""坏我"",""坏他"",""好他""]","[""强我"",""弱我"",""弱他"",""强他""]","","","","","","","","no","","","","","","","","","SRET","EW_formal","","key","f","16.663541666666788","960","536","自己","恶劣","Negative","morality","","","","","","","","","","",""
"568","","f","psychophysics","96","275182","0.0-7.0-3.0-0.82","4","3","3","3","3","4","3","3","2","3","4","-1","0","-1","0","-1","0","0","0","5","4","5","5","4","3","3","2","2","2","4","6","6","6","5","6","7","7","7","5","5","5","5","5","4","5","6","4","3","1","4","3","4","4","4","3","4","4","5","5","3","5","3","3","3","6","6","6","7","7","4","6","6","3","4","4","6","2","3","6","794290486587301890","王","649","Male","[""好我"",""坏我"",""坏他"",""好他""]","[""强我"",""弱我"",""弱他"",""强他""]","","","","","","","","no","","","","","","","","","SRET","EW_formal","","key","f","16.6623655913976","960","536","朋友","狡狯","Negative","morality","","","","","","","","","","",""
"829","","f","psychophysics","97","277013","0.0-7.0-3.0-0.83","4","3","3","3","3","4","3","3","2","3","4","-1","0","-1","0","-1","0","0","0","5","4","5","5","4","3","3","2","2","2","4","6","6","6","5","6","7","7","7","5","5","5","5","5","4","5","6","4","3","1","4","3","4","4","4","3","4","4","5","5","3","5","3","3","3","6","6","6","7","7","4","6","6","3","4","4","6","2","3","6","794290486587301890","王","649","Male","[""好我"",""坏我"",""坏他"",""好他""]","[""强我"",""弱我"",""弱他"",""强他""]","","","","","","","","no","","","","","","","","","SRET","EW_formal","","key","f","16.665137614678898","960","536","朋友","自私","Negative","morality","","","","","","","","","","",""
"1199","","j","psychophysics","98","279213","0.0-7.0-3.0-0.84","4","3","3","3","3","4","3","3","2","3","4","-1","0","-1","0","-1","0","0","0","5","4","5","5","4","3","3","2","2","2","4","6","6","6","5","6","7","7","7","5","5","5","5","5","4","5","6","4","3","1","4","3","4","4","4","3","4","4","5","5","3","5","3","3","3","6","6","6","7","7","4","6","6","3","4","4","6","2","3","6","794290486587301890","王","649","Male","[""好我"",""坏我"",""坏他"",""好他""]","[""强我"",""弱我"",""弱他"",""强他""]","","","","","","","","yes","","","","","","","","","SRET","EW_formal","","key","j","16.66259541984724","960","536","自己","缓慢","Negative","ability","","","","","","","","","","",""
"1083","","j","psychophysics","99","281297","0.0-7.0-3.0-0.85","4","3","3","3","3","4","3","3","2","3","4","-1","0","-1","0","-1","0","0","0","5","4","5","5","4","3","3","2","2","2","4","6","6","6","5","6","7","7","7","5","5","5","5","5","4","5","6","4","3","1","4","3","4","4","4","3","4","4","5","5","3","5","3","3","3","6","6","6","7","7","4","6","6","3","4","4","6","2","3","6","794290486587301890","王","649","Male","[""好我"",""坏我"",""坏他"",""好他""]","[""强我"",""弱我"",""弱他"",""强他""]","","","","","","","","yes","","","","","","","","","SRET","EW_formal","","key","j","16.664516129032446","960","536","朋友","素养","Positive","morality","","","","","","","","","","",""
"764","","j","psychophysics","100","283065","0.0-7.0-3.0-0.86","4","3","3","3","3","4","3","3","2","3","4","-1","0","-1","0","-1","0","0","0","5","4","5","5","4","3","3","2","2","2","4","6","6","6","5","6","7","7","7","5","5","5","5","5","4","5","6","4","3","1","4","3","4","4","4","3","4","4","5","5","3","5","3","3","3","6","6","6","7","7","4","6","6","3","4","4","6","2","3","6","794290486587301890","王","649","Male","[""好我"",""坏我"",""坏他"",""好他""]","[""强我"",""弱我"",""弱他"",""强他""]","","","","","","","","yes","","","","","","","","","SRET","EW_formal","","key","j","16.663809523809636","960","536","自己","主见","Positive","ability","","","","","","","","","","",""
"731","","f","psychophysics","101","284796","0.0-7.0-3.0-0.87","4","3","3","3","3","4","3","3","2","3","4","-1","0","-1","0","-1","0","0","0","5","4","5","5","4","3","3","2","2","2","4","6","6","6","5","6","7","7","7","5","5","5","5","5","4","5","6","4","3","1","4","3","4","4","4","3","4","4","5","5","3","5","3","3","3","6","6","6","7","7","4","6","6","3","4","4","6","2","3","6","794290486587301890","王","649","Male","[""好我"",""坏我"",""坏他"",""好他""]","[""强我"",""弱我"",""弱他"",""强他""]","","","","","","","","no","","","","","","","","","SRET","EW_formal","","key","f","16.66407766990314","960","536","朋友","低俗","Negative","morality","","","","","","","","","","",""
"6301","
    <p><div style='color:white;font-size:35px; line-height:20px;'>计算任务</div></p><br>
    <p><div style='color:red;font-size:25px; line-height:20px;'>接下来，您将看到一些四则运算题，<b>请从键盘选择 0-9 进行反应。</b></div></p>
    <p><div style='color:red;font-size:25px; line-height:20px;'>请尽可能快地进行计算，计算的速度和正确率将影响报酬的发放。</div></p>
    <p><div class='footer' style='color:white;font-size:25px; line-height:20px;'>如果对本实验还有不清楚之处，请立即向实验员咨询。</p><p style='color:white;font-size:25px; line-height:20px;'>如果您明白了规则：</p><p style='color:white;font-size:22px; line-height:20px;'>请按 继续 进入练习</p>
    </div>
    ","0","html-button-response","102","291098","0.0-7.0-4.0","4","3","3","3","3","4","3","3","2","3","4","-1","0","-1","0","-1","0","0","0","5","4","5","5","4","3","3","2","2","2","4","6","6","6","5","6","7","7","7","5","5","5","5","5","4","5","6","4","3","1","4","3","4","4","4","3","4","4","5","5","3","5","3","3","3","6","6","6","7","7","4","6","6","3","4","4","6","2","3","6","794290486587301890","王","649","Male","[""好我"",""坏我"",""坏他"",""好他""]","[""强我"",""弱我"",""弱他"",""强他""]","","","","","","","","","","","","","","","","","SRET_math","math_instructions","Wed Jan 10 2024 13:12:40 GMT+0800 (中国标准时间)","","","","","","","","","","","","","","","","","","","",""
"1960","","4","psychophysics","103","293061","0.0-7.0-5.0-0.0","4","3","3","3","3","4","3","3","2","3","4","-1","0","-1","0","-1","0","0","0","5","4","5","5","4","3","3","2","2","2","4","6","6","6","5","6","7","7","7","5","5","5","5","5","4","5","6","4","3","1","4","3","4","4","4","3","4","4","5","5","3","5","3","3","3","6","6","6","7","7","4","6","6","3","4","4","6","2","3","6","794290486587301890","王","649","Male","[""好我"",""坏我"",""坏他"",""好他""]","[""强我"",""弱我"",""弱他"",""强他""]","","","","","","","","4","","","","","","","","","SRET","SRET_math_calculate","","key","4","16.66153846153866","960","536","","","","","2+2= ?","4","1","","","","","","","",""
"2330","","3","psychophysics","104","295392","0.0-7.0-5.0-0.1","4","3","3","3","3","4","3","3","2","3","4","-1","0","-1","0","-1","0","0","0","5","4","5","5","4","3","3","2","2","2","4","6","6","6","5","6","7","7","7","5","5","5","5","5","4","5","6","4","3","1","4","3","4","4","4","3","4","4","5","5","3","5","3","3","3","6","6","6","7","7","4","6","6","3","4","4","6","2","3","6","794290486587301890","王","649","Male","[""好我"",""坏我"",""坏他"",""好他""]","[""强我"",""弱我"",""弱他"",""强他""]","","","","","","","","3","","","","","","","","","SRET","SRET_math_calculate","","key","3","16.66330935251807","960","536","","","","","11-8= ?","3","1","","","","","","","",""
"2068","","8","psychophysics","105","297461","0.0-7.0-5.0-0.2","4","3","3","3","3","4","3","3","2","3","4","-1","0","-1","0","-1","0","0","0","5","4","5","5","4","3","3","2","2","2","4","6","6","6","5","6","7","7","7","5","5","5","5","5","4","5","6","4","3","1","4","3","4","4","4","3","4","4","5","5","3","5","3","3","3","6","6","6","7","7","4","6","6","3","4","4","6","2","3","6","794290486587301890","王","649","Male","[""好我"",""坏我"",""坏他"",""好他""]","[""强我"",""弱我"",""弱他"",""强他""]","","","","","","","","8","","","","","","","","","SRET","SRET_math_calculate","","key","8","16.663414634146154","960","536","","","","","6+2= ?","8","1","","","","","","","",""
"3466","","9","psychophysics","106","300928","0.0-7.0-5.0-0.3","4","3","3","3","3","4","3","3","2","3","4","-1","0","-1","0","-1","0","0","0","5","4","5","5","4","3","3","2","2","2","4","6","6","6","5","6","7","7","7","5","5","5","5","5","4","5","6","4","3","1","4","3","4","4","4","3","4","4","5","5","3","5","3","3","3","6","6","6","7","7","4","6","6","3","4","4","6","2","3","6","794290486587301890","王","649","Male","[""好我"",""坏我"",""坏他"",""好他""]","[""强我"",""弱我"",""弱他"",""强他""]","","","","","","","","9","","","","","","","","","SRET","SRET_math_calculate","","key","9","16.66376811594214","960","536","","","","","43-34= ?","9","1","","","","","","","",""
"2775","","8","psychophysics","107","303705","0.0-7.0-5.0-0.4","4","3","3","3","3","4","3","3","2","3","4","-1","0","-1","0","-1","0","0","0","5","4","5","5","4","3","3","2","2","2","4","6","6","6","5","6","7","7","7","5","5","5","5","5","4","5","6","4","3","1","4","3","4","4","4","3","4","4","5","5","3","5","3","3","3","6","6","6","7","7","4","6","6","3","4","4","6","2","3","6","794290486587301890","王","649","Male","[""好我"",""坏我"",""坏他"",""好他""]","[""强我"",""弱我"",""弱他"",""强他""]","","","","","","","","8","","","","","","","","","SRET","SRET_math_calculate","","key","8","16.663253012048052","960","536","","","","","3+5= ?","8","1","","","","","","","",""
"2640","","0","psychophysics","108","306347","0.0-7.0-5.0-0.5","4","3","3","3","3","4","3","3","2","3","4","-1","0","-1","0","-1","0","0","0","5","4","5","5","4","3","3","2","2","2","4","6","6","6","5","6","7","7","7","5","5","5","5","5","4","5","6","4","3","1","4","3","4","4","4","3","4","4","5","5","3","5","3","3","3","6","6","6","7","7","4","6","6","3","4","4","6","2","3","6","794290486587301890","王","649","Male","[""好我"",""坏我"",""坏他"",""好他""]","[""强我"",""弱我"",""弱他"",""强他""]","","","","","","","","0","","","","","","","","","SRET","SRET_math_calculate","","key","0","16.66329113924043","960","536","","","","","32-32= ?","0","1","","","","","","","",""
"2065","","8","psychophysics","109","308414","0.0-7.0-5.0-0.6","4","3","3","3","3","4","3","3","2","3","4","-1","0","-1","0","-1","0","0","0","5","4","5","5","4","3","3","2","2","2","4","6","6","6","5","6","7","7","7","5","5","5","5","5","4","5","6","4","3","1","4","3","4","4","4","3","4","4","5","5","3","5","3","3","3","6","6","6","7","7","4","6","6","3","4","4","6","2","3","6","794290486587301890","王","649","Male","[""好我"",""坏我"",""坏他"",""好他""]","[""强我"",""弱我"",""弱他"",""强他""]","","","","","","","","8","","","","","","","","","SRET","SRET_math_calculate","","key","8","16.66260162601626","960","536","","","","","4+4= ?","8","1","","","","","","","",""
"2513","","5","psychophysics","110","310929","0.0-7.0-5.0-0.7","4","3","3","3","3","4","3","3","2","3","4","-1","0","-1","0","-1","0","0","0","5","4","5","5","4","3","3","2","2","2","4","6","6","6","5","6","7","7","7","5","5","5","5","5","4","5","6","4","3","1","4","3","4","4","4","3","4","4","5","5","3","5","3","3","3","6","6","6","7","7","4","6","6","3","4","4","6","2","3","6","794290486587301890","王","649","Male","[""好我"",""坏我"",""坏他"",""好他""]","[""强我"",""弱我"",""弱他"",""强他""]","","","","","","","","5","","","","","","","","","SRET","SRET_math_calculate","","key","5","16.664666666666744","960","536","","","","","12-7= ?","5","1","","","","","","","",""
"1909","","8","psychophysics","111","312840","0.0-7.0-5.0-0.8","4","3","3","3","3","4","3","3","2","3","4","-1","0","-1","0","-1","0","0","0","5","4","5","5","4","3","3","2","2","2","4","6","6","6","5","6","7","7","7","5","5","5","5","5","4","5","6","4","3","1","4","3","4","4","4","3","4","4","5","5","3","5","3","3","3","6","6","6","7","7","4","6","6","3","4","4","6","2","3","6","794290486587301890","王","649","Male","[""好我"",""坏我"",""坏他"",""好他""]","[""强我"",""弱我"",""弱他"",""强他""]","","","","","","","","8","","","","","","","","","SRET","SRET_math_calculate","","key","8","16.663716814159294","960","536","","","","","5+3= ?","8","1","","","","","","","",""
"2421","","8","psychophysics","112","315263","0.0-7.0-5.0-0.9","4","3","3","3","3","4","3","3","2","3","4","-1","0","-1","0","-1","0","0","0","5","4","5","5","4","3","3","2","2","2","4","6","6","6","5","6","7","7","7","5","5","5","5","5","4","5","6","4","3","1","4","3","4","4","4","3","4","4","5","5","3","5","3","3","3","6","6","6","7","7","4","6","6","3","4","4","6","2","3","6","794290486587301890","王","649","Male","[""好我"",""坏我"",""坏他"",""好他""]","[""强我"",""弱我"",""弱他"",""强他""]","","","","","","","","8","","","","","","","","","SRET","SRET_math_calculate","","key","8","16.662758620689896","960","536","","","","","50-42= ?","8","1","","","","","","","",""
"2188","","3","psychophysics","113","317452","0.0-7.0-5.0-0.10","4","3","3","3","3","4","3","3","2","3","4","-1","0","-1","0","-1","0","0","0","5","4","5","5","4","3","3","2","2","2","4","6","6","6","5","6","7","7","7","5","5","5","5","5","4","5","6","4","3","1","4","3","4","4","4","3","4","4","5","5","3","5","3","3","3","6","6","6","7","7","4","6","6","3","4","4","6","2","3","6","794290486587301890","王","649","Male","[""好我"",""坏我"",""坏他"",""好他""]","[""强我"",""弱我"",""弱他"",""强他""]","","","","","","","","3","","","","","","","","","SRET","SRET_math_calculate","","key","3","16.664615384615114","960","536","","","","","3*1= ?","3","1","","","","","","","",""
"1932","","9","psychophysics","114","319386","0.0-7.0-5.0-0.11","4","3","3","3","3","4","3","3","2","3","4","-1","0","-1","0","-1","0","0","0","5","4","5","5","4","3","3","2","2","2","4","6","6","6","5","6","7","7","7","5","5","5","5","5","4","5","6","4","3","1","4","3","4","4","4","3","4","4","5","5","3","5","3","3","3","6","6","6","7","7","4","6","6","3","4","4","6","2","3","6","794290486587301890","王","649","Male","[""好我"",""坏我"",""坏他"",""好他""]","[""强我"",""弱我"",""弱他"",""强他""]","","","","","","","","9","","","","","","","","","SRET","SRET_math_calculate","","key","9","16.66260869565177","960","536","","","","","4+5= ?","9","1","","","","","","","",""
"1913","","4","psychophysics","115","321301","0.0-7.0-5.0-0.12","4","3","3","3","3","4","3","3","2","3","4","-1","0","-1","0","-1","0","0","0","5","4","5","5","4","3","3","2","2","2","4","6","6","6","5","6","7","7","7","5","5","5","5","5","4","5","6","4","3","1","4","3","4","4","4","3","4","4","5","5","3","5","3","3","3","6","6","6","7","7","4","6","6","3","4","4","6","2","3","6","794290486587301890","王","649","Male","[""好我"",""坏我"",""坏他"",""好他""]","[""强我"",""弱我"",""弱他"",""强他""]","","","","","","","","4","","","","","","","","","SRET","SRET_math_calculate","","key","4","16.6640350877194","960","536","","","","","8-4= ?","4","1","","","","","","","",""
"1894","","8","psychophysics","116","323196","0.0-7.0-5.0-0.13","4","3","3","3","3","4","3","3","2","3","4","-1","0","-1","0","-1","0","0","0","5","4","5","5","4","3","3","2","2","2","4","6","6","6","5","6","7","7","7","5","5","5","5","5","4","5","6","4","3","1","4","3","4","4","4","3","4","4","5","5","3","5","3","3","3","6","6","6","7","7","4","6","6","3","4","4","6","2","3","6","794290486587301890","王","649","Male","[""好我"",""坏我"",""坏他"",""好他""]","[""强我"",""弱我"",""弱他"",""强他""]","","","","","","","","8","","","","","","","","","SRET","SRET_math_calculate","","key","8","16.664601769911812","960","536","","","","","9-1= ?","8","1","","","","","","","",""
"1835","","9","psychophysics","117","325032","0.0-7.0-5.0-0.14","4","3","3","3","3","4","3","3","2","3","4","-1","0","-1","0","-1","0","0","0","5","4","5","5","4","3","3","2","2","2","4","6","6","6","5","6","7","7","7","5","5","5","5","5","4","5","6","4","3","1","4","3","4","4","4","3","4","4","5","5","3","5","3","3","3","6","6","6","7","7","4","6","6","3","4","4","6","2","3","6","794290486587301890","王","649","Male","[""好我"",""坏我"",""坏他"",""好他""]","[""强我"",""弱我"",""弱他"",""强他""]","","","","","","","","9","","","","","","","","","SRET","SRET_math_calculate","","key","9","16.663302752293472","960","536","","","","","3*3= ?","9","1","","","","","","","",""
"1866","","9","psychophysics","118","326899","0.0-7.0-5.0-0.15","4","3","3","3","3","4","3","3","2","3","4","-1","0","-1","0","-1","0","0","0","5","4","5","5","4","3","3","2","2","2","4","6","6","6","5","6","7","7","7","5","5","5","5","5","4","5","6","4","3","1","4","3","4","4","4","3","4","4","5","5","3","5","3","3","3","6","6","6","7","7","4","6","6","3","4","4","6","2","3","6","794290486587301890","王","649","Male","[""好我"",""坏我"",""坏他"",""好他""]","[""强我"",""弱我"",""弱他"",""强他""]","","","","","","","","9","","","","","","","","","SRET","SRET_math_calculate","","key","9","16.66396396396407","960","536","","","","","1+8= ?","9","1","","","","","","","",""
"2118","","3","psychophysics","119","329018","0.0-7.0-5.0-0.16","4","3","3","3","3","4","3","3","2","3","4","-1","0","-1","0","-1","0","0","0","5","4","5","5","4","3","3","2","2","2","4","6","6","6","5","6","7","7","7","5","5","5","5","5","4","5","6","4","3","1","4","3","4","4","4","3","4","4","5","5","3","5","3","3","3","6","6","6","7","7","4","6","6","3","4","4","6","2","3","6","794290486587301890","王","649","Male","[""好我"",""坏我"",""坏他"",""好他""]","[""强我"",""弱我"",""弱他"",""强他""]","","","","","","","","3","","","","","","","","","SRET","SRET_math_calculate","","key","3","16.66349206349188","960","536","","","","","3+0= ?","3","1","","","","","","","",""
"1766","","9","psychophysics","120","330785","0.0-7.0-5.0-0.17","4","3","3","3","3","4","3","3","2","3","4","-1","0","-1","0","-1","0","0","0","5","4","5","5","4","3","3","2","2","2","4","6","6","6","5","6","7","7","7","5","5","5","5","5","4","5","6","4","3","1","4","3","4","4","4","3","4","4","5","5","3","5","3","3","3","6","6","6","7","7","4","6","6","3","4","4","6","2","3","6","794290486587301890","王","649","Male","[""好我"",""坏我"",""坏他"",""好他""]","[""强我"",""弱我"",""弱他"",""强他""]","","","","","","","","9","","","","","","","","","SRET","SRET_math_calculate","","key","9","16.663809523809636","960","536","","","","","6+3= ?","9","1","","","","","","","",""
"3714","","7","psychophysics","121","334501","0.0-7.0-5.0-0.18","4","3","3","3","3","4","3","3","2","3","4","-1","0","-1","0","-1","0","0","0","5","4","5","5","4","3","3","2","2","2","4","6","6","6","5","6","7","7","7","5","5","5","5","5","4","5","6","4","3","1","4","3","4","4","4","3","4","4","5","5","3","5","3","3","3","6","6","6","7","7","4","6","6","3","4","4","6","2","3","6","794290486587301890","王","649","Male","[""好我"",""坏我"",""坏他"",""好他""]","[""强我"",""弱我"",""弱他"",""强他""]","","","","","","","","7","","","","","","","","","SRET","SRET_math_calculate","","key","7","16.66396396396407","960","536","","","","","11-4= ?","7","1","","","","","","","",""
"2036","","7","psychophysics","122","336538","0.0-7.0-5.0-0.19","4","3","3","3","3","4","3","3","2","3","4","-1","0","-1","0","-1","0","0","0","5","4","5","5","4","3","3","2","2","2","4","6","6","6","5","6","7","7","7","5","5","5","5","5","4","5","6","4","3","1","4","3","4","4","4","3","4","4","5","5","3","5","3","3","3","6","6","6","7","7","4","6","6","3","4","4","6","2","3","6","794290486587301890","王","649","Male","[""好我"",""坏我"",""坏他"",""好他""]","[""强我"",""弱我"",""弱他"",""强他""]","","","","","","","","7","","","","","","","","","SRET","SRET_math_calculate","","key","7","16.663636363636268","960","536","","","","","2+5= ?","7","1","","","","","","","",""
"2278","","5","psychophysics","123","338818","0.0-7.0-5.0-0.20","4","3","3","3","3","4","3","3","2","3","4","-1","0","-1","0","-1","0","0","0","5","4","5","5","4","3","3","2","2","2","4","6","6","6","5","6","7","7","7","5","5","5","5","5","4","5","6","4","3","1","4","3","4","4","4","3","4","4","5","5","3","5","3","3","3","6","6","6","7","7","4","6","6","3","4","4","6","2","3","6","794290486587301890","王","649","Male","[""好我"",""坏我"",""坏他"",""好他""]","[""强我"",""弱我"",""弱他"",""强他""]","","","","","","","","5","","","","","","","","","SRET","SRET_math_calculate","","key","5","16.66397058823521","960","536","","","","","16-11= ?","5","1","","","","","","","",""
"2408","","2","psychophysics","124","341227","0.0-7.0-5.0-0.21","4","3","3","3","3","4","3","3","2","3","4","-1","0","-1","0","-1","0","0","0","5","4","5","5","4","3","3","2","2","2","4","6","6","6","5","6","7","7","7","5","5","5","5","5","4","5","6","4","3","1","4","3","4","4","4","3","4","4","5","5","3","5","3","3","3","6","6","6","7","7","4","6","6","3","4","4","6","2","3","6","794290486587301890","王","649","Male","[""好我"",""坏我"",""坏他"",""好他""]","[""强我"",""弱我"",""弱他"",""强他""]","","","","","","","","2","","","","","","","","","SRET","SRET_math_calculate","","key","2","16.663888888889133","960","536","","","","","5-3= ?","2","1","","","","","","","",""
"2076","","4","psychophysics","125","343305","0.0-7.0-5.0-0.22","4","3","3","3","3","4","3","3","2","3","4","-1","0","-1","0","-1","0","0","0","5","4","5","5","4","3","3","2","2","2","4","6","6","6","5","6","7","7","7","5","5","5","5","5","4","5","6","4","3","1","4","3","4","4","4","3","4","4","5","5","3","5","3","3","3","6","6","6","7","7","4","6","6","3","4","4","6","2","3","6","794290486587301890","王","649","Male","[""好我"",""坏我"",""坏他"",""好他""]","[""强我"",""弱我"",""弱他"",""强他""]","","","","","","","","4","","","","","","","","","SRET","SRET_math_calculate","","key","4","16.664516129031977","960","536","","","","","3+1= ?","4","1","","","","","","","",""
"1952","","8","psychophysics","126","345260","0.0-7.0-5.0-0.23","4","3","3","3","3","4","3","3","2","3","4","-1","0","-1","0","-1","0","0","0","5","4","5","5","4","3","3","2","2","2","4","6","6","6","5","6","7","7","7","5","5","5","5","5","4","5","6","4","3","1","4","3","4","4","4","3","4","4","5","5","3","5","3","3","3","6","6","6","7","7","4","6","6","3","4","4","6","2","3","6","794290486587301890","王","649","Male","[""好我"",""坏我"",""坏他"",""好他""]","[""强我"",""弱我"",""弱他"",""强他""]","","","","","","","","8","","","","","","","","","SRET","SRET_math_calculate","","key","8","16.662068965517644","960","536","","","","","4*2= ?","8","1","","","","","","","",""
"2476","","4","psychophysics","127","347737","0.0-7.0-5.0-0.24","4","3","3","3","3","4","3","3","2","3","4","-1","0","-1","0","-1","0","0","0","5","4","5","5","4","3","3","2","2","2","4","6","6","6","5","6","7","7","7","5","5","5","5","5","4","5","6","4","3","1","4","3","4","4","4","3","4","4","5","5","3","5","3","3","3","6","6","6","7","7","4","6","6","3","4","4","6","2","3","6","794290486587301890","王","649","Male","[""好我"",""坏我"",""坏他"",""好他""]","[""强我"",""弱我"",""弱他"",""强他""]","","","","","","","","4","","","","","","","","","SRET","SRET_math_calculate","","key","4","16.664864864865024","960","536","","","","","20/5= ?","4","1","","","","","","","",""
"2269","","2","psychophysics","128","350009","0.0-7.0-5.0-0.25","4","3","3","3","3","4","3","3","2","3","4","-1","0","-1","0","-1","0","0","0","5","4","5","5","4","3","3","2","2","2","4","6","6","6","5","6","7","7","7","5","5","5","5","5","4","5","6","4","3","1","4","3","4","4","4","3","4","4","5","5","3","5","3","3","3","6","6","6","7","7","4","6","6","3","4","4","6","2","3","6","794290486587301890","王","649","Male","[""好我"",""坏我"",""坏他"",""好他""]","[""强我"",""弱我"",""弱他"",""强他""]","","","","","","","","2","","","","","","","","","SRET","SRET_math_calculate","","key","2","16.663703703703963","960","536","","","","","90/45= ?","2","1","","","","","","","",""
"3646","","9","psychophysics","129","353656","0.0-7.0-5.0-0.26","4","3","3","3","3","4","3","3","2","3","4","-1","0","-1","0","-1","0","0","0","5","4","5","5","4","3","3","2","2","2","4","6","6","6","5","6","7","7","7","5","5","5","5","5","4","5","6","4","3","1","4","3","4","4","4","3","4","4","5","5","3","5","3","3","3","6","6","6","7","7","4","6","6","3","4","4","6","2","3","6","794290486587301890","王","649","Male","[""好我"",""坏我"",""坏他"",""好他""]","[""强我"",""弱我"",""弱他"",""强他""]","","","","","","","","9","","","","","","","","","SRET","SRET_math_calculate","","key","9","16.663302752293472","960","536","","","","","32-23= ?","9","1","","","","","","","",""
"2599","","7","psychophysics","130","356257","0.0-7.0-5.0-0.27","4","3","3","3","3","4","3","3","2","3","4","-1","0","-1","0","-1","0","0","0","5","4","5","5","4","3","3","2","2","2","4","6","6","6","5","6","7","7","7","5","5","5","5","5","4","5","6","4","3","1","4","3","4","4","4","3","4","4","5","5","3","5","3","3","3","6","6","6","7","7","4","6","6","3","4","4","6","2","3","6","794290486587301890","王","649","Male","[""好我"",""坏我"",""坏他"",""好他""]","[""强我"",""弱我"",""弱他"",""强他""]","","","","","","","","7","","","","","","","","","SRET","SRET_math_calculate","","key","7","16.663870967741712","960","536","","","","","1+6= ?","7","1","","","","","","","",""
"2380","","3","psychophysics","131","358638","0.0-7.0-5.0-0.28","4","3","3","3","3","4","3","3","2","3","4","-1","0","-1","0","-1","0","0","0","5","4","5","5","4","3","3","2","2","2","4","6","6","6","5","6","7","7","7","5","5","5","5","5","4","5","6","4","3","1","4","3","4","4","4","3","4","4","5","5","3","5","3","3","3","6","6","6","7","7","4","6","6","3","4","4","6","2","3","6","794290486587301890","王","649","Male","[""好我"",""坏我"",""坏他"",""好他""]","[""强我"",""弱我"",""弱他"",""强他""]","","","","","","","","3","","","","","","","","","SRET","SRET_math_calculate","","key","3","16.663380281689815","960","536","","","","","21/7=  ?","3","1","","","","","","","",""
"1895","","9","psychophysics","132","360534","0.0-7.0-5.0-0.29","4","3","3","3","3","4","3","3","2","3","4","-1","0","-1","0","-1","0","0","0","5","4","5","5","4","3","3","2","2","2","4","6","6","6","5","6","7","7","7","5","5","5","5","5","4","5","6","4","3","1","4","3","4","4","4","3","4","4","5","5","3","5","3","3","3","6","6","6","7","7","4","6","6","3","4","4","6","2","3","6","794290486587301890","王","649","Male","[""好我"",""坏我"",""坏他"",""好他""]","[""强我"",""弱我"",""弱他"",""强他""]","","","","","","","","9","","","","","","","","","SRET","SRET_math_calculate","","key","9","16.662499999999586","960","536","","","","","8+1= ?","9","1","","","","","","","",""
"2118","","0","psychophysics","133","362654","0.0-7.0-5.0-0.30","4","3","3","3","3","4","3","3","2","3","4","-1","0","-1","0","-1","0","0","0","5","4","5","5","4","3","3","2","2","2","4","6","6","6","5","6","7","7","7","5","5","5","5","5","4","5","6","4","3","1","4","3","4","4","4","3","4","4","5","5","3","5","3","3","3","6","6","6","7","7","4","6","6","3","4","4","6","2","3","6","794290486587301890","王","649","Male","[""好我"",""坏我"",""坏他"",""好他""]","[""强我"",""弱我"",""弱他"",""强他""]","","","","","","","","0","","","","","","","","","SRET","SRET_math_calculate","","key","0","16.66377952755896","960","536","","","","","5*0= ?","0","1","","","","","","","",""
"2044","","6","psychophysics","134","364700","0.0-7.0-5.0-0.31","4","3","3","3","3","4","3","3","2","3","4","-1","0","-1","0","-1","0","0","0","5","4","5","5","4","3","3","2","2","2","4","6","6","6","5","6","7","7","7","5","5","5","5","5","4","5","6","4","3","1","4","3","4","4","4","3","4","4","5","5","3","5","3","3","3","6","6","6","7","7","4","6","6","3","4","4","6","2","3","6","794290486587301890","王","649","Male","[""好我"",""坏我"",""坏他"",""好他""]","[""强我"",""弱我"",""弱他"",""强他""]","","","","","","","","6","","","","","","","","","SRET","SRET_math_calculate","","key","6","16.66311475409855","960","536","","","","","4+2= ?","6","1","","","","","","","",""
"2036","","2","psychophysics","135","366737","0.0-7.0-5.0-0.32","4","3","3","3","3","4","3","3","2","3","4","-1","0","-1","0","-1","0","0","0","5","4","5","5","4","3","3","2","2","2","4","6","6","6","5","6","7","7","7","5","5","5","5","5","4","5","6","4","3","1","4","3","4","4","4","3","4","4","5","5","3","5","3","3","3","6","6","6","7","7","4","6","6","3","4","4","6","2","3","6","794290486587301890","王","649","Male","[""好我"",""坏我"",""坏他"",""好他""]","[""强我"",""弱我"",""弱他"",""强他""]","","","","","","","","2","","","","","","","","","SRET","SRET_math_calculate","","key","2","16.663636363636268","960","536","","","","","12/6= ?","2","1","","","","","","","",""
"2618","","4","psychophysics","136","369357","0.0-7.0-5.0-0.33","4","3","3","3","3","4","3","3","2","3","4","-1","0","-1","0","-1","0","0","0","5","4","5","5","4","3","3","2","2","2","4","6","6","6","5","6","7","7","7","5","5","5","5","5","4","5","6","4","3","1","4","3","4","4","4","3","4","4","5","5","3","5","3","3","3","6","6","6","7","7","4","6","6","3","4","4","6","2","3","6","794290486587301890","王","649","Male","[""好我"",""坏我"",""坏他"",""好他""]","[""强我"",""弱我"",""弱他"",""强他""]","","","","","","","","4","","","","","","","","","SRET","SRET_math_calculate","","key","4","16.66346153846154","960","536","","","","","4*1= ?","4","1","","","","","","","",""
"1963","","7","psychophysics","137","371321","0.0-7.0-5.0-0.34","4","3","3","3","3","4","3","3","2","3","4","-1","0","-1","0","-1","0","0","0","5","4","5","5","4","3","3","2","2","2","4","6","6","6","5","6","7","7","7","5","5","5","5","5","4","5","6","4","3","1","4","3","4","4","4","3","4","4","5","5","3","5","3","3","3","6","6","6","7","7","4","6","6","3","4","4","6","2","3","6","794290486587301890","王","649","Male","[""好我"",""坏我"",""坏他"",""好他""]","[""强我"",""弱我"",""弱他"",""强他""]","","","","","","","","7","","","","","","","","","SRET","SRET_math_calculate","","key","7","16.663247863248163","960","536","","","","","8-1= ?","7","1","","","","","","","",""
"1980","","2","psychophysics","138","373302","0.0-7.0-5.0-0.35","4","3","3","3","3","4","3","3","2","3","4","-1","0","-1","0","-1","0","0","0","5","4","5","5","4","3","3","2","2","2","4","6","6","6","5","6","7","7","7","5","5","5","5","5","4","5","6","4","3","1","4","3","4","4","4","3","4","4","5","5","3","5","3","3","3","6","6","6","7","7","4","6","6","3","4","4","6","2","3","6","794290486587301890","王","649","Male","[""好我"",""坏我"",""坏他"",""好他""]","[""强我"",""弱我"",""弱他"",""强他""]","","","","","","","","2","","","","","","","","","SRET","SRET_math_calculate","","key","2","16.662711864406877","960","536","","","","","9-7= ?","2","1","","","","","","","",""
"2207","","7","psychophysics","139","375510","0.0-7.0-5.0-0.36","4","3","3","3","3","4","3","3","2","3","4","-1","0","-1","0","-1","0","0","0","5","4","5","5","4","3","3","2","2","2","4","6","6","6","5","6","7","7","7","5","5","5","5","5","4","5","6","4","3","1","4","3","4","4","4","3","4","4","5","5","3","5","3","3","3","6","6","6","7","7","4","6","6","3","4","4","6","2","3","6","794290486587301890","王","649","Male","[""好我"",""坏我"",""坏他"",""好他""]","[""强我"",""弱我"",""弱他"",""强他""]","","","","","","","","7","","","","","","","","","SRET","SRET_math_calculate","","key","7","16.663358778626133","960","536","","","","","5+2= ?","7","1","","","","","","","",""
"1966","","6","psychophysics","140","377476","0.0-7.0-5.0-0.37","4","3","3","3","3","4","3","3","2","3","4","-1","0","-1","0","-1","0","0","0","5","4","5","5","4","3","3","2","2","2","4","6","6","6","5","6","7","7","7","5","5","5","5","5","4","5","6","4","3","1","4","3","4","4","4","3","4","4","5","5","3","5","3","3","3","6","6","6","7","7","4","6","6","3","4","4","6","2","3","6","794290486587301890","王","649","Male","[""好我"",""坏我"",""坏他"",""好他""]","[""强我"",""弱我"",""弱他"",""强他""]","","","","","","","","6","","","","","","","","","SRET","SRET_math_calculate","","key","6","16.663247863248163","960","536","","","","","8-2= ?","6","1","","","","","","","",""
"2269","","9","psychophysics","141","379746","0.0-7.0-5.0-0.38","4","3","3","3","3","4","3","3","2","3","4","-1","0","-1","0","-1","0","0","0","5","4","5","5","4","3","3","2","2","2","4","6","6","6","5","6","7","7","7","5","5","5","5","5","4","5","6","4","3","1","4","3","4","4","4","3","4","4","5","5","3","5","3","3","3","6","6","6","7","7","4","6","6","3","4","4","6","2","3","6","794290486587301890","王","649","Male","[""好我"",""坏我"",""坏他"",""好他""]","[""强我"",""弱我"",""弱他"",""强他""]","","","","","","","","9","","","","","","","","","SRET","SRET_math_calculate","","key","9","16.663703703703533","960","536","","","","","81/9= ?","9","1","","","","","","","",""
"1965","","1","psychophysics","142","381714","0.0-7.0-5.0-0.39","4","3","3","3","3","4","3","3","2","3","4","-1","0","-1","0","-1","0","0","0","5","4","5","5","4","3","3","2","2","2","4","6","6","6","5","6","7","7","7","5","5","5","5","5","4","5","6","4","3","1","4","3","4","4","4","3","4","4","5","5","3","5","3","3","3","6","6","6","7","7","4","6","6","3","4","4","6","2","3","6","794290486587301890","王","649","Male","[""好我"",""坏我"",""坏他"",""好他""]","[""强我"",""弱我"",""弱他"",""强他""]","","","","","","","","1","","","","","","","","","SRET","SRET_math_calculate","","key","1","16.662711864406877","960","536","","","","","10-9= ?","1","1","","","","","","","",""
