"rt","stimulus","response","trial_type","trial_index","time_elapsed","internal_node_id","swb_1","swb_2","swb_3","swb_4","swb_5","LOT_1","LOT_2","LOT_3","LOT_4","LOT_5","LOT_6","IPC_1","IPC_2","IPC_3","IPC_4","IPC_5","IPC_6","IPC_7","IPC_8","MorIden_1","MorIden_2","MorIden_3","MorIden_4","MorIden_5","MorIden_6","MorIden_7","MorIden_8","MorIden_9","MorIden_10","moralSeImag_1","moralSeImag_2","moralSeImag_3","moralSeImag_4","moralSeImag_5","moralSeImag_6","moralSeImag_7","moralSeImag_8","moralSeImag_9","sde_1","sde_2","sde_3","sde_4","sde_5","sde_6","sde_7","sde_8","sde_9","sde_10","trap2","sde_11","sde_12","sde_13","sde_14","sde_15","sde_16","sde_17","sde_18","sde_19","sde_20","IM_1","IM_2","IM_3","IM_4","IM_5","IM_6","IM_7","IM_8","IM_9","IM_10","IM_11","IM_12","IM_13","IM_14","IM_15","IM_16","IM_17","IM_18","IM_19","IM_20","subj_idx","friend_name","ParticipantID","Sex","Word","Word2","value","success","timeout","failed_images","failed_audio","failed_video","user_agent","responses","item_order","radio_event_ids","radio_event_times","key_event_times","mouse_event_times","straightlining","zigzagging","honeypot","task_id","screen_id","time_stamp","response_type","key_press","avg_frame_time","center_x","center_y","person","word","valence","domain","math","correct_response","correct","status","view_history","identity","duration","Image","condition","question_order","trap2_item"
"3436","
   <p><div style='color:white; font-size: 25px'>您好，欢迎参加本次实验。</div></p>
   <p><div style='color:white; font-size: 25px'>为充分保障您的权利，请确保您已经知晓并同意《参与实验同意书》以及《数据公开知情同意书》。</div></p>
   <p><div style='color:white; font-size: 25px'>如果您未见过上述内容，请咨询实验员。</div></p>
   <p style='color:white; font-size: 25px'>如果您选择继续实验，则表示您已经清楚两份知情同意书的内容并同意。</p>
   <p><div style = ""color: pink;font-size:30px;"">请确保您记得day0的实验编号，您将在本次实验输入该编号，若您忘记，请咨询实验员后作答。</div></p>
   <p><div style = ""color:lightblue;font-size:25px;"">请您尽可能认真地作答，我们将依据您在各问卷和按键任务中的作答质量发放报酬。</div></p>
   <p> <div style = ""color: green""><按空格键至下页></div> </p>
   "," ","html-keyboard-response","0","3438","0.0-0.0","7","7","7","7","6","5","5","5","5","5","5","2","1","2","2","2","2","2","2","5","5","5","5","5","4","4","5","4","4","7","8","7","7","8","6","8","9","8","7","7","7","7","7","6","7","1","7","7","1","6","7","7","7","7","7","7","7","6","7","7","7","7","7","7","7","7","7","7","7","7","6","7","7","7","7","7","7","7","7","633748719031812096","张","193","Male","[""好我"",""坏我"",""坏他"",""好他""]","[""强我"",""弱我"",""弱他"",""强他""]","","","","","","","","","","","","","","","","","","","","","","","","","","","","","","","","","","","","","","",""
"","","","call-function","1","3438","0.0-1.0-0.0","7","7","7","7","6","5","5","5","5","5","5","2","1","2","2","2","2","2","2","5","5","5","5","5","4","4","5","4","4","7","8","7","7","8","6","8","9","8","7","7","7","7","7","6","7","1","7","7","1","6","7","7","7","7","7","7","7","6","7","7","7","7","7","7","7","7","7","7","7","7","6","7","7","7","7","7","7","7","7","633748719031812096","张","193","Male","[""好我"",""坏我"",""坏他"",""好他""]","[""强我"",""弱我"",""弱他"",""强他""]","","","","","","","","","","","","","","","","","","","","","","","","","","","","","","","","","","","","","","",""
"9591","","[{""name"":""Sex"",""value"":""0""},{""name"":""friend_name"",""value"":""张""},{""name"":""ParticipantID"",""value"":""193""}]","survey-html-form","2","13030","0.0-1.0-1.0","7","7","7","7","6","5","5","5","5","5","5","2","1","2","2","2","2","2","2","5","5","5","5","5","4","4","5","4","4","7","8","7","7","8","6","8","9","8","7","7","7","7","7","6","7","1","7","7","1","6","7","7","7","7","7","7","7","6","7","7","7","7","7","7","7","7","7","7","7","7","6","7","7","7","7","7","7","7","7","633748719031812096","张","193","Male","[""好我"",""坏我"",""坏他"",""好他""]","[""强我"",""弱我"",""弱他"",""强他""]","","","","","","","","","","","","","","","","","","","","","","","","","","","","","","","","","","","","","","",""
"","","","preload","3","13367","0.0-2.0","7","7","7","7","6","5","5","5","5","5","5","2","1","2","2","2","2","2","2","5","5","5","5","5","4","4","5","4","4","7","8","7","7","8","6","8","9","8","7","7","7","7","7","6","7","1","7","7","1","6","7","7","7","7","7","7","7","6","7","7","7","7","7","7","7","7","7","7","7","7","6","7","7","7","7","7","7","7","7","633748719031812096","张","193","Male","[""好我"",""坏我"",""坏他"",""好他""]","[""强我"",""弱我"",""弱他"",""强他""]","","true","false","[]","[]","[]","","","","","","","","","","","","","","","","","","","","","","","","","","","","","","","","",""
"","","","fullscreen","4","14547","0.0-3.0","7","7","7","7","6","5","5","5","5","5","5","2","1","2","2","2","2","2","2","5","5","5","5","5","4","4","5","4","4","7","8","7","7","8","6","8","9","8","7","7","7","7","7","6","7","1","7","7","1","6","7","7","7","7","7","7","7","6","7","7","7","7","7","7","7","7","7","7","7","7","6","7","7","7","7","7","7","7","7","633748719031812096","张","193","Male","[""好我"",""坏我"",""坏他"",""好他""]","[""强我"",""弱我"",""弱他"",""强他""]","","true","","","","","{}","","","","","","","","","","","","","","","","","","","","","","","","","","","","","","","",""
"4690.400001525879","","{""Q01"":""7"",""Q02"":""7"",""Q03"":""7"",""Q04"":""7"",""Q05"":""6""}","survey-template","5","19239","0.0-4.0","7","7","7","7","6","5","5","5","5","5","5","2","1","2","2","2","2","2","2","5","5","5","5","5","4","4","5","4","4","7","8","7","7","8","6","8","9","8","7","7","7","7","7","6","7","1","7","7","1","6","7","7","7","7","7","7","7","6","7","7","7","7","7","7","7","7","7","7","7","7","6","7","7","7","7","7","7","7","7","633748719031812096","张","193","Male","[""好我"",""坏我"",""坏他"",""好他""]","[""强我"",""弱我"",""弱他"",""强他""]","","","","","","","","{""Q01"":""7"",""Q02"":""7"",""Q03"":""7"",""Q04"":""7"",""Q05"":""6""}","[0,1,2,3,4]","[""Q01"",""Q02"",""Q03"",""Q04"",""Q05"",""Q05""]","[1289.900001525879,2017.5,2465.900001525879,2785.6000003814697,3449.400001525879,4105.400001525879]","[]","[1289.900001525879,2017.5,2465.900001525879,2785.6000003814697,3449.400001525879,4105.400001525879,4689.700000762939]","0.8","0.25","0","","","","","","","","","","","","","","","","","","","","","","",""
"7565.5","","{""Q01"":""5"",""Q02"":""5"",""Q03"":""5"",""Q04"":""5"",""Q05"":""5"",""Q06"":""5""}","survey-template","6","26807","0.0-5.0","7","7","7","7","6","5","5","5","5","5","5","2","1","2","2","2","2","2","2","5","5","5","5","5","4","4","5","4","4","7","8","7","7","8","6","8","9","8","7","7","7","7","7","6","7","1","7","7","1","6","7","7","7","7","7","7","7","6","7","7","7","7","7","7","7","7","7","7","7","7","6","7","7","7","7","7","7","7","7","633748719031812096","张","193","Male","[""好我"",""坏我"",""坏他"",""好他""]","[""强我"",""弱我"",""弱他"",""强他""]","","","","","","","","{""Q01"":""5"",""Q02"":""5"",""Q03"":""5"",""Q04"":""5"",""Q05"":""5"",""Q06"":""5""}","[0,1,2,3,4,5]","[""Q01"",""Q03"",""Q05"",""Q02"",""Q04"",""Q06""]","[796.7000007629395,1892.5,3108.6000003814697,3932.5,4716.60000038147,5740.800001144409]","[]","[796.7000007629395,1892.5,3108.6000003814697,3485,3932.5,4716.60000038147,5740.800001144409,7565]","0.5","0.8","0","","","","","","","","","","","","","","","","","","","","","","",""
"10671.70000076294","","{""Q01"":""2"",""Q02"":""1"",""Q03"":""2"",""Q04"":""2"",""Q05"":""2"",""Q06"":""2"",""Q07"":""2"",""Q08"":""2""}","survey-template","7","37481","0.0-6.0","7","7","7","7","6","5","5","5","5","5","5","2","1","2","2","2","2","2","2","5","5","5","5","5","4","4","5","4","4","7","8","7","7","8","6","8","9","8","7","7","7","7","7","6","7","1","7","7","1","6","7","7","7","7","7","7","7","6","7","7","7","7","7","7","7","7","7","7","7","7","6","7","7","7","7","7","7","7","7","633748719031812096","张","193","Male","[""好我"",""坏我"",""坏他"",""好他""]","[""强我"",""弱我"",""弱他"",""强他""]","","","","","","","","{""Q01"":""2"",""Q02"":""1"",""Q03"":""2"",""Q04"":""2"",""Q05"":""2"",""Q06"":""2"",""Q07"":""2"",""Q08"":""2""}","[0,1,2,3,4,5,6,7]","[""Q01"",""Q02"",""Q03"",""Q02"",""Q04"",""Q05"",""Q06"",""Q07"",""Q08""]","[1228.8999996185303,1557.2000007629395,2509,3308.7999992370605,3830,4141.60000038147,4596.89999961853,4981.700000762939,5380.799999237061]","[]","[1228.8999996185303,1557.2000007629395,2101,2509,3308.7999992370605,3830,4141.60000038147,4596.89999961853,4981.700000762939,5380.799999237061,10670.79999923706]","0.875","0.2857142857142857","0","","","","","","","","","","","","","","","","","","","","","","",""
"9907","
    <p><div style='color:white;font-size:35px; line-height:20px;'>词汇评估任务</div></p><br>
    <p><div style='color:white;font-size:25px; line-height:20px;'>请再次回忆该亲密的朋友，你们至少2年前就认识了，并且最近2年经常见面。</div></p>
    <p><div style='color:white;font-size:25px; line-height:20px;'>在本实验中，您将会看到一些形容词。</div></p>
    <p><div style='color:yellow;font-size:25px; line-height:20px;'>您的任务是判断这些形容词是否符合对您自己或您的朋友的描述。</div></p><p style='font-size:35px'>符合按<span style=""color:lightgreen""> j 键</span>，不符合按<span style=""color:red""> f 键</span></p>","0","html-button-response","8","47390","0.0-7.0-0.0","7","7","7","7","6","5","5","5","5","5","5","2","1","2","2","2","2","2","2","5","5","5","5","5","4","4","5","4","4","7","8","7","7","8","6","8","9","8","7","7","7","7","7","6","7","1","7","7","1","6","7","7","7","7","7","7","7","6","7","7","7","7","7","7","7","7","7","7","7","7","6","7","7","7","7","7","7","7","7","633748719031812096","张","193","Male","[""好我"",""坏我"",""坏他"",""好他""]","[""强我"",""弱我"",""弱他"",""强他""]","","","","","","","","","","","","","","","","","SRET_EW","EW_instructions","Wed Jan 10 2024 20:04:27 GMT+0800 (中国标准时间)","","","","","","","","","","","","","","","","","","","",""
"1180","","f","psychophysics","9","49574","0.0-7.0-1.0-0.0","7","7","7","7","6","5","5","5","5","5","5","2","1","2","2","2","2","2","2","5","5","5","5","5","4","4","5","4","4","7","8","7","7","8","6","8","9","8","7","7","7","7","7","6","7","1","7","7","1","6","7","7","7","7","7","7","7","6","7","7","7","7","7","7","7","7","7","7","7","7","6","7","7","7","7","7","7","7","7","633748719031812096","张","193","Male","[""好我"",""坏我"",""坏他"",""好他""]","[""强我"",""弱我"",""弱他"",""强他""]","","","","","","","","no","","","","","","","","","SRET_EW","EW_practice","","key","f","16.648091603053444","768","428","自己","刻板","Negative","ability","","","","","","","","","","",""
"750","","j","psychophysics","10","51326","0.0-7.0-1.0-0.1","7","7","7","7","6","5","5","5","5","5","5","2","1","2","2","2","2","2","2","5","5","5","5","5","4","4","5","4","4","7","8","7","7","8","6","8","9","8","7","7","7","7","7","6","7","1","7","7","1","6","7","7","7","7","7","7","7","6","7","7","7","7","7","7","7","7","7","7","7","7","6","7","7","7","7","7","7","7","7","633748719031812096","张","193","Male","[""好我"",""坏我"",""坏他"",""好他""]","[""强我"",""弱我"",""弱他"",""强他""]","","","","","","","","yes","","","","","","","","","SRET_EW","EW_practice","","key","j","16.651923076923104","768","428","自己","严谨","Positive","ability","","","","","","","","","","",""
"582","","j","psychophysics","11","52910","0.0-7.0-1.0-0.2","7","7","7","7","6","5","5","5","5","5","5","2","1","2","2","2","2","2","2","5","5","5","5","5","4","4","5","4","4","7","8","7","7","8","6","8","9","8","7","7","7","7","7","6","7","1","7","7","1","6","7","7","7","7","7","7","7","6","7","7","7","7","7","7","7","7","7","7","7","7","6","7","7","7","7","7","7","7","7","633748719031812096","张","193","Male","[""好我"",""坏我"",""坏他"",""好他""]","[""强我"",""弱我"",""弱他"",""强他""]","","","","","","","","yes","","","","","","","","","SRET_EW","EW_practice","","key","j","16.652127659574422","768","428","朋友","忠实","Positive","morality","","","","","","","","","","",""
"791","","f","psychophysics","12","54702","0.0-7.0-1.0-0.3","7","7","7","7","6","5","5","5","5","5","5","2","1","2","2","2","2","2","2","5","5","5","5","5","4","4","5","4","4","7","8","7","7","8","6","8","9","8","7","7","7","7","7","6","7","1","7","7","1","6","7","7","7","7","7","7","7","6","7","7","7","7","7","7","7","7","7","7","7","7","6","7","7","7","7","7","7","7","7","633748719031812096","张","193","Male","[""好我"",""坏我"",""坏他"",""好他""]","[""强我"",""弱我"",""弱他"",""强他""]","","","","","","","","no","","","","","","","","","SRET_EW","EW_practice","","key","f","16.649532710280372","768","428","朋友","徇私","Negative","morality","","","","","","","","","","",""
"30639","
    <p><div style='color:white;font-size:35px; line-height:20px;'>请您再次阅读实验要求</div></p><br>
    <p><div style='color:white;font-size:25px; line-height:20px;'>请回忆某一个亲密的朋友，你们至少2年前就认识了，并且最近2年经常见面。</div></p>
    <p><div style='color:white;font-size:25px; line-height:20px;'>在本实验中，您将会看到一些形容词。</div></p>
    <p><div style='color:yellow;font-size:25px; line-height:20px;'>您的任务是判断这些形容词是否符合对您自己或您的朋友的描述。</div></p>
    <p><div class='footer' style='font-size:25px; line-height:20px;'>如果对本实验还有不清楚之处，请立即向实验员咨询。</p><p style='font-size:25px; line-height:20px;'>如果您明白了规则：</p><p style='font-size:22px; line-height:20px;'>请按 继续 进入正式实验</p>
    </div>
    <p style='font-size:35px'>符合按<span style=""color:lightgreen""> j 键</span>，不符合按<span style=""color:red""> f 键</span></p>","0","html-button-response","13","85342","0.0-7.0-2.0","7","7","7","7","6","5","5","5","5","5","5","2","1","2","2","2","2","2","2","5","5","5","5","5","4","4","5","4","4","7","8","7","7","8","6","8","9","8","7","7","7","7","7","6","7","1","7","7","1","6","7","7","7","7","7","7","7","6","7","7","7","7","7","7","7","7","7","7","7","7","6","7","7","7","7","7","7","7","7","633748719031812096","张","193","Male","[""好我"",""坏我"",""坏他"",""好他""]","[""强我"",""弱我"",""弱他"",""强他""]","","","","","","","","","","","","","","","","","SRET_EW","prac_instructions","Wed Jan 10 2024 20:04:27 GMT+0800 (中国标准时间)","","","","","","","","","","","","","","","","","","","",""
"685","","j","psychophysics","14","87030","0.0-7.0-3.0-0.0","7","7","7","7","6","5","5","5","5","5","5","2","1","2","2","2","2","2","2","5","5","5","5","5","4","4","5","4","4","7","8","7","7","8","6","8","9","8","7","7","7","7","7","6","7","1","7","7","1","6","7","7","7","7","7","7","7","6","7","7","7","7","7","7","7","7","7","7","7","7","6","7","7","7","7","7","7","7","7","633748719031812096","张","193","Male","[""好我"",""坏我"",""坏他"",""好他""]","[""强我"",""弱我"",""弱他"",""强他""]","","","","","","","","yes","","","","","","","","","SRET","EW_formal","","key","j","16.650495049504922","768","428","自己","坚贞","Positive","morality","","","","","","","","","","",""
"663","","f","psychophysics","15","88694","0.0-7.0-3.0-0.1","7","7","7","7","6","5","5","5","5","5","5","2","1","2","2","2","2","2","2","5","5","5","5","5","4","4","5","4","4","7","8","7","7","8","6","8","9","8","7","7","7","7","7","6","7","1","7","7","1","6","7","7","7","7","7","7","7","6","7","7","7","7","7","7","7","7","7","7","7","7","6","7","7","7","7","7","7","7","7","633748719031812096","张","193","Male","[""好我"",""坏我"",""坏他"",""好他""]","[""强我"",""弱我"",""弱他"",""强他""]","","","","","","","","no","","","","","","","","","SRET","EW_formal","","key","f","16.650505050504993","768","428","自己","说谎","Negative","morality","","","","","","","","","","",""
"542","","f","psychophysics","16","90238","0.0-7.0-3.0-0.2","7","7","7","7","6","5","5","5","5","5","5","2","1","2","2","2","2","2","2","5","5","5","5","5","4","4","5","4","4","7","8","7","7","8","6","8","9","8","7","7","7","7","7","6","7","1","7","7","1","6","7","7","7","7","7","7","7","6","7","7","7","7","7","7","7","7","7","7","7","7","6","7","7","7","7","7","7","7","7","633748719031812096","张","193","Male","[""好我"",""坏我"",""坏他"",""好他""]","[""强我"",""弱我"",""弱他"",""强他""]","","","","","","","","no","","","","","","","","","SRET","EW_formal","","key","f","16.651086956521834","768","428","朋友","迷糊","Negative","ability","","","","","","","","","","",""
"911","","j","psychophysics","17","92151","0.0-7.0-3.0-0.3","7","7","7","7","6","5","5","5","5","5","5","2","1","2","2","2","2","2","2","5","5","5","5","5","4","4","5","4","4","7","8","7","7","8","6","8","9","8","7","7","7","7","7","6","7","1","7","7","1","6","7","7","7","7","7","7","7","6","7","7","7","7","7","7","7","7","7","7","7","7","6","7","7","7","7","7","7","7","7","633748719031812096","张","193","Male","[""好我"",""坏我"",""坏他"",""好他""]","[""强我"",""弱我"",""弱他"",""强他""]","","","","","","","","yes","","","","","","","","","SRET","EW_formal","","key","j","16.65175438596494","768","428","朋友","务实","Positive","ability","","","","","","","","","","",""
"758","","j","psychophysics","18","93910","0.0-7.0-3.0-0.4","7","7","7","7","6","5","5","5","5","5","5","2","1","2","2","2","2","2","2","5","5","5","5","5","4","4","5","4","4","7","8","7","7","8","6","8","9","8","7","7","7","7","7","6","7","1","7","7","1","6","7","7","7","7","7","7","7","6","7","7","7","7","7","7","7","7","7","7","7","7","6","7","7","7","7","7","7","7","7","633748719031812096","张","193","Male","[""好我"",""坏我"",""坏他"",""好他""]","[""强我"",""弱我"",""弱他"",""强他""]","","","","","","","","yes","","","","","","","","","SRET","EW_formal","","key","j","16.651923076922966","768","428","朋友","博学","Positive","ability","","","","","","","","","","",""
"1016","","j","psychophysics","19","95926","0.0-7.0-3.0-0.5","7","7","7","7","6","5","5","5","5","5","5","2","1","2","2","2","2","2","2","5","5","5","5","5","4","4","5","4","4","7","8","7","7","8","6","8","9","8","7","7","7","7","7","6","7","1","7","7","1","6","7","7","7","7","7","7","7","6","7","7","7","7","7","7","7","7","7","7","7","7","6","7","7","7","7","7","7","7","7","633748719031812096","张","193","Male","[""好我"",""坏我"",""坏他"",""好他""]","[""强我"",""弱我"",""弱他"",""强他""]","","","","","","","","yes","","","","","","","","","SRET","EW_formal","","key","j","16.651666666666642","768","428","自己","热心","Positive","morality","","","","","","","","","","",""
"719","","j","psychophysics","20","97647","0.0-7.0-3.0-0.6","7","7","7","7","6","5","5","5","5","5","5","2","1","2","2","2","2","2","2","5","5","5","5","5","4","4","5","4","4","7","8","7","7","8","6","8","9","8","7","7","7","7","7","6","7","1","7","7","1","6","7","7","7","7","7","7","7","6","7","7","7","7","7","7","7","7","7","7","7","7","6","7","7","7","7","7","7","7","7","633748719031812096","张","193","Male","[""好我"",""坏我"",""坏他"",""好他""]","[""强我"",""弱我"",""弱他"",""强他""]","","","","","","","","yes","","","","","","","","","SRET","EW_formal","","key","j","16.651456310679528","768","428","朋友","自律","Positive","ability","","","","","","","","","","",""
"806","","f","psychophysics","21","99454","0.0-7.0-3.0-0.7","7","7","7","7","6","5","5","5","5","5","5","2","1","2","2","2","2","2","2","5","5","5","5","5","4","4","5","4","4","7","8","7","7","8","6","8","9","8","7","7","7","7","7","6","7","1","7","7","1","6","7","7","7","7","7","7","7","6","7","7","7","7","7","7","7","7","7","7","7","7","6","7","7","7","7","7","7","7","7","633748719031812096","张","193","Male","[""好我"",""坏我"",""坏他"",""好他""]","[""强我"",""弱我"",""弱他"",""强他""]","","","","","","","","no","","","","","","","","","SRET","EW_formal","","key","f","16.65140186915885","768","428","自己","不仁","Negative","morality","","","","","","","","","","",""
"703","","j","psychophysics","22","101158","0.0-7.0-3.0-0.8","7","7","7","7","6","5","5","5","5","5","5","2","1","2","2","2","2","2","2","5","5","5","5","5","4","4","5","4","4","7","8","7","7","8","6","8","9","8","7","7","7","7","7","6","7","1","7","7","1","6","7","7","7","7","7","7","7","6","7","7","7","7","7","7","7","7","7","7","7","7","6","7","7","7","7","7","7","7","7","633748719031812096","张","193","Male","[""好我"",""坏我"",""坏他"",""好他""]","[""强我"",""弱我"",""弱他"",""强他""]","","","","","","","","yes","","","","","","","","","SRET","EW_formal","","key","j","16.651960784313726","768","428","朋友","敏捷","Positive","ability","","","","","","","","","","",""
"1045","","f","psychophysics","23","103206","0.0-7.0-3.0-0.9","7","7","7","7","6","5","5","5","5","5","5","2","1","2","2","2","2","2","2","5","5","5","5","5","4","4","5","4","4","7","8","7","7","8","6","8","9","8","7","7","7","7","7","6","7","1","7","7","1","6","7","7","7","7","7","7","7","6","7","7","7","7","7","7","7","7","7","7","7","7","6","7","7","7","7","7","7","7","7","633748719031812096","张","193","Male","[""好我"",""坏我"",""坏他"",""好他""]","[""强我"",""弱我"",""弱他"",""强他""]","","","","","","","","no","","","","","","","","","SRET","EW_formal","","key","f","16.649999999999906","768","428","自己","拖延","Negative","ability","","","","","","","","","","",""
"958","","j","psychophysics","24","105166","0.0-7.0-3.0-0.10","7","7","7","7","6","5","5","5","5","5","5","2","1","2","2","2","2","2","2","5","5","5","5","5","4","4","5","4","4","7","8","7","7","8","6","8","9","8","7","7","7","7","7","6","7","1","7","7","1","6","7","7","7","7","7","7","7","6","7","7","7","7","7","7","7","7","7","7","7","7","6","7","7","7","7","7","7","7","7","633748719031812096","张","193","Male","[""好我"",""坏我"",""坏他"",""好他""]","[""强我"",""弱我"",""弱他"",""强他""]","","","","","","","","yes","","","","","","","","","SRET","EW_formal","","key","j","16.650862068965516","768","428","自己","无私","Positive","morality","","","","","","","","","","",""
"1112","","f","psychophysics","25","107279","0.0-7.0-3.0-0.11","7","7","7","7","6","5","5","5","5","5","5","2","1","2","2","2","2","2","2","5","5","5","5","5","4","4","5","4","4","7","8","7","7","8","6","8","9","8","7","7","7","7","7","6","7","1","7","7","1","6","7","7","7","7","7","7","7","6","7","7","7","7","7","7","7","7","7","7","7","7","6","7","7","7","7","7","7","7","7","633748719031812096","张","193","Male","[""好我"",""坏我"",""坏他"",""好他""]","[""强我"",""弱我"",""弱他"",""强他""]","","","","","","","","no","","","","","","","","","SRET","EW_formal","","key","f","16.650793650793652","768","428","自己","缺德","Negative","morality","","","","","","","","","","",""
"678","","f","psychophysics","26","108958","0.0-7.0-3.0-0.12","7","7","7","7","6","5","5","5","5","5","5","2","1","2","2","2","2","2","2","5","5","5","5","5","4","4","5","4","4","7","8","7","7","8","6","8","9","8","7","7","7","7","7","6","7","1","7","7","1","6","7","7","7","7","7","7","7","6","7","7","7","7","7","7","7","7","7","7","7","7","6","7","7","7","7","7","7","7","7","633748719031812096","张","193","Male","[""好我"",""坏我"",""坏他"",""好他""]","[""强我"",""弱我"",""弱他"",""强他""]","","","","","","","","no","","","","","","","","","SRET","EW_formal","","key","f","16.651999999999973","768","428","自己","刻薄","Negative","morality","","","","","","","","","","",""
"870","","f","psychophysics","27","110830","0.0-7.0-3.0-0.13","7","7","7","7","6","5","5","5","5","5","5","2","1","2","2","2","2","2","2","5","5","5","5","5","4","4","5","4","4","7","8","7","7","8","6","8","9","8","7","7","7","7","7","6","7","1","7","7","1","6","7","7","7","7","7","7","7","6","7","7","7","7","7","7","7","7","7","7","7","7","6","7","7","7","7","7","7","7","7","633748719031812096","张","193","Male","[""好我"",""坏我"",""坏他"",""好他""]","[""强我"",""弱我"",""弱他"",""强他""]","","","","","","","","no","","","","","","","","","SRET","EW_formal","","key","f","16.651785714285715","768","428","自己","差生","Negative","ability","","","","","","","","","","",""
"823","","j","psychophysics","28","112654","0.0-7.0-3.0-0.14","7","7","7","7","6","5","5","5","5","5","5","2","1","2","2","2","2","2","2","5","5","5","5","5","4","4","5","4","4","7","8","7","7","8","6","8","9","8","7","7","7","7","7","6","7","1","7","7","1","6","7","7","7","7","7","7","7","6","7","7","7","7","7","7","7","7","7","7","7","7","6","7","7","7","7","7","7","7","7","633748719031812096","张","193","Male","[""好我"",""坏我"",""坏他"",""好他""]","[""强我"",""弱我"",""弱他"",""强他""]","","","","","","","","yes","","","","","","","","","SRET","EW_formal","","key","j","16.650925925925954","768","428","自己","守信","Positive","morality","","","","","","","","","","",""
"694","","f","psychophysics","29","114350","0.0-7.0-3.0-0.15","7","7","7","7","6","5","5","5","5","5","5","2","1","2","2","2","2","2","2","5","5","5","5","5","4","4","5","4","4","7","8","7","7","8","6","8","9","8","7","7","7","7","7","6","7","1","7","7","1","6","7","7","7","7","7","7","7","6","7","7","7","7","7","7","7","7","7","7","7","7","6","7","7","7","7","7","7","7","7","633748719031812096","张","193","Male","[""好我"",""坏我"",""坏他"",""好他""]","[""强我"",""弱我"",""弱他"",""强他""]","","","","","","","","no","","","","","","","","","SRET","EW_formal","","key","f","16.650495049504922","768","428","自己","业余","Negative","ability","","","","","","","","","","",""
"1263","","j","psychophysics","30","116614","0.0-7.0-3.0-0.16","7","7","7","7","6","5","5","5","5","5","5","2","1","2","2","2","2","2","2","5","5","5","5","5","4","4","5","4","4","7","8","7","7","8","6","8","9","8","7","7","7","7","7","6","7","1","7","7","1","6","7","7","7","7","7","7","7","6","7","7","7","7","7","7","7","7","7","7","7","7","6","7","7","7","7","7","7","7","7","633748719031812096","张","193","Male","[""好我"",""坏我"",""坏他"",""好他""]","[""强我"",""弱我"",""弱他"",""强他""]","","","","","","","","yes","","","","","","","","","SRET","EW_formal","","key","j","16.651111111111067","768","428","自己","全才","Positive","ability","","","","","","","","","","",""
"511","","j","psychophysics","31","118127","0.0-7.0-3.0-0.17","7","7","7","7","6","5","5","5","5","5","5","2","1","2","2","2","2","2","2","5","5","5","5","5","4","4","5","4","4","7","8","7","7","8","6","8","9","8","7","7","7","7","7","6","7","1","7","7","1","6","7","7","7","7","7","7","7","6","7","7","7","7","7","7","7","7","7","7","7","7","6","7","7","7","7","7","7","7","7","633748719031812096","张","193","Male","[""好我"",""坏我"",""坏他"",""好他""]","[""强我"",""弱我"",""弱他"",""强他""]","","","","","","","","yes","","","","","","","","","SRET","EW_formal","","key","j","16.65222222222219","768","428","朋友","能干","Positive","ability","","","","","","","","","","",""
"631","","f","psychophysics","32","119759","0.0-7.0-3.0-0.18","7","7","7","7","6","5","5","5","5","5","5","2","1","2","2","2","2","2","2","5","5","5","5","5","4","4","5","4","4","7","8","7","7","8","6","8","9","8","7","7","7","7","7","6","7","1","7","7","1","6","7","7","7","7","7","7","7","6","7","7","7","7","7","7","7","7","7","7","7","7","6","7","7","7","7","7","7","7","7","633748719031812096","张","193","Male","[""好我"",""坏我"",""坏他"",""好他""]","[""强我"",""弱我"",""弱他"",""强他""]","","","","","","","","no","","","","","","","","","SRET","EW_formal","","key","f","16.650515463917586","768","428","朋友","罪恶","Negative","morality","","","","","","","","","","",""
"1039","","f","psychophysics","33","121800","0.0-7.0-3.0-0.19","7","7","7","7","6","5","5","5","5","5","5","2","1","2","2","2","2","2","2","5","5","5","5","5","4","4","5","4","4","7","8","7","7","8","6","8","9","8","7","7","7","7","7","6","7","1","7","7","1","6","7","7","7","7","7","7","7","6","7","7","7","7","7","7","7","7","7","7","7","7","6","7","7","7","7","7","7","7","7","633748719031812096","张","193","Male","[""好我"",""坏我"",""坏他"",""好他""]","[""强我"",""弱我"",""弱他"",""强他""]","","","","","","","","no","","","","","","","","","SRET","EW_formal","","key","f","16.652066115702553","768","428","自己","新手","Negative","ability","","","","","","","","","","",""
"854","","j","psychophysics","34","123655","0.0-7.0-3.0-0.20","7","7","7","7","6","5","5","5","5","5","5","2","1","2","2","2","2","2","2","5","5","5","5","5","4","4","5","4","4","7","8","7","7","8","6","8","9","8","7","7","7","7","7","6","7","1","7","7","1","6","7","7","7","7","7","7","7","6","7","7","7","7","7","7","7","7","7","7","7","7","6","7","7","7","7","7","7","7","7","633748719031812096","张","193","Male","[""好我"",""坏我"",""坏他"",""好他""]","[""强我"",""弱我"",""弱他"",""强他""]","","","","","","","","yes","","","","","","","","","SRET","EW_formal","","key","j","16.651351351351376","768","428","朋友","独立","Positive","ability","","","","","","","","","","",""
"727","","f","psychophysics","35","125383","0.0-7.0-3.0-0.21","7","7","7","7","6","5","5","5","5","5","5","2","1","2","2","2","2","2","2","5","5","5","5","5","4","4","5","4","4","7","8","7","7","8","6","8","9","8","7","7","7","7","7","6","7","1","7","7","1","6","7","7","7","7","7","7","7","6","7","7","7","7","7","7","7","7","7","7","7","7","6","7","7","7","7","7","7","7","7","633748719031812096","张","193","Male","[""好我"",""坏我"",""坏他"",""好他""]","[""强我"",""弱我"",""弱他"",""强他""]","","","","","","","","no","","","","","","","","","SRET","EW_formal","","key","f","16.64757281553395","768","428","朋友","外行","Negative","ability","","","","","","","","","","",""
"942","","f","psychophysics","36","127326","0.0-7.0-3.0-0.22","7","7","7","7","6","5","5","5","5","5","5","2","1","2","2","2","2","2","2","5","5","5","5","5","4","4","5","4","4","7","8","7","7","8","6","8","9","8","7","7","7","7","7","6","7","1","7","7","1","6","7","7","7","7","7","7","7","6","7","7","7","7","7","7","7","7","7","7","7","7","6","7","7","7","7","7","7","7","7","633748719031812096","张","193","Male","[""好我"",""坏我"",""坏他"",""好他""]","[""强我"",""弱我"",""弱他"",""强他""]","","","","","","","","no","","","","","","","","","SRET","EW_formal","","key","f","16.65043478260872","768","428","朋友","阴毒","Negative","morality","","","","","","","","","","",""
"718","","j","psychophysics","37","129046","0.0-7.0-3.0-0.23","7","7","7","7","6","5","5","5","5","5","5","2","1","2","2","2","2","2","2","5","5","5","5","5","4","4","5","4","4","7","8","7","7","8","6","8","9","8","7","7","7","7","7","6","7","1","7","7","1","6","7","7","7","7","7","7","7","6","7","7","7","7","7","7","7","7","7","7","7","7","6","7","7","7","7","7","7","7","7","633748719031812096","张","193","Male","[""好我"",""坏我"",""坏他"",""好他""]","[""强我"",""弱我"",""弱他"",""强他""]","","","","","","","","yes","","","","","","","","","SRET","EW_formal","","key","j","16.652427184465992","768","428","自己","扎实","Positive","ability","","","","","","","","","","",""
"983","","j","psychophysics","38","131031","0.0-7.0-3.0-0.24","7","7","7","7","6","5","5","5","5","5","5","2","1","2","2","2","2","2","2","5","5","5","5","5","4","4","5","4","4","7","8","7","7","8","6","8","9","8","7","7","7","7","7","6","7","1","7","7","1","6","7","7","7","7","7","7","7","6","7","7","7","7","7","7","7","7","7","7","7","7","6","7","7","7","7","7","7","7","7","633748719031812096","张","193","Male","[""好我"",""坏我"",""坏他"",""好他""]","[""强我"",""弱我"",""弱他"",""强他""]","","","","","","","","yes","","","","","","","","","SRET","EW_formal","","key","j","16.651694915254186","768","428","自己","懂行","Positive","ability","","","","","","","","","","",""
"1086","","j","psychophysics","39","133118","0.0-7.0-3.0-0.25","7","7","7","7","6","5","5","5","5","5","5","2","1","2","2","2","2","2","2","5","5","5","5","5","4","4","5","4","4","7","8","7","7","8","6","8","9","8","7","7","7","7","7","6","7","1","7","7","1","6","7","7","7","7","7","7","7","6","7","7","7","7","7","7","7","7","7","7","7","7","6","7","7","7","7","7","7","7","7","633748719031812096","张","193","Male","[""好我"",""坏我"",""坏他"",""好他""]","[""强我"",""弱我"",""弱他"",""强他""]","","","","","","","","yes","","","","","","","","","SRET","EW_formal","","key","j","16.652419354838663","768","428","朋友","坦荡","Positive","morality","","","","","","","","","","",""
"742","","f","psychophysics","40","134862","0.0-7.0-3.0-0.26","7","7","7","7","6","5","5","5","5","5","5","2","1","2","2","2","2","2","2","5","5","5","5","5","4","4","5","4","4","7","8","7","7","8","6","8","9","8","7","7","7","7","7","6","7","1","7","7","1","6","7","7","7","7","7","7","7","6","7","7","7","7","7","7","7","7","7","7","7","7","6","7","7","7","7","7","7","7","7","633748719031812096","张","193","Male","[""好我"",""坏我"",""坏他"",""好他""]","[""强我"",""弱我"",""弱他"",""强他""]","","","","","","","","no","","","","","","","","","SRET","EW_formal","","key","f","16.64903846153846","768","428","朋友","小人","Negative","morality","","","","","","","","","","",""
"1110","","j","psychophysics","41","136975","0.0-7.0-3.0-0.27","7","7","7","7","6","5","5","5","5","5","5","2","1","2","2","2","2","2","2","5","5","5","5","5","4","4","5","4","4","7","8","7","7","8","6","8","9","8","7","7","7","7","7","6","7","1","7","7","1","6","7","7","7","7","7","7","7","6","7","7","7","7","7","7","7","7","7","7","7","7","6","7","7","7","7","7","7","7","7","633748719031812096","张","193","Male","[""好我"",""坏我"",""坏他"",""好他""]","[""强我"",""弱我"",""弱他"",""强他""]","","","","","","","","yes","","","","","","","","","SRET","EW_formal","","key","j","16.652380952381044","768","428","自己","淡泊","Positive","morality","","","","","","","","","","",""
"1311","","f","psychophysics","42","139286","0.0-7.0-3.0-0.28","7","7","7","7","6","5","5","5","5","5","5","2","1","2","2","2","2","2","2","5","5","5","5","5","4","4","5","4","4","7","8","7","7","8","6","8","9","8","7","7","7","7","7","6","7","1","7","7","1","6","7","7","7","7","7","7","7","6","7","7","7","7","7","7","7","7","7","7","7","7","6","7","7","7","7","7","7","7","7","633748719031812096","张","193","Male","[""好我"",""坏我"",""坏他"",""好他""]","[""强我"",""弱我"",""弱他"",""强他""]","","","","","","","","no","","","","","","","","","SRET","EW_formal","","key","f","16.65144927536228","768","428","朋友","低劣","Negative","morality","","","","","","","","","","",""
"830","","f","psychophysics","43","141118","0.0-7.0-3.0-0.29","7","7","7","7","6","5","5","5","5","5","5","2","1","2","2","2","2","2","2","5","5","5","5","5","4","4","5","4","4","7","8","7","7","8","6","8","9","8","7","7","7","7","7","6","7","1","7","7","1","6","7","7","7","7","7","7","7","6","7","7","7","7","7","7","7","7","7","7","7","7","6","7","7","7","7","7","7","7","7","633748719031812096","张","193","Male","[""好我"",""坏我"",""坏他"",""好他""]","[""强我"",""弱我"",""弱他"",""强他""]","","","","","","","","no","","","","","","","","","SRET","EW_formal","","key","f","16.65321100917415","768","428","自己","龌龊","Negative","morality","","","","","","","","","","",""
"703","","f","psychophysics","44","142823","0.0-7.0-3.0-0.30","7","7","7","7","6","5","5","5","5","5","5","2","1","2","2","2","2","2","2","5","5","5","5","5","4","4","5","4","4","7","8","7","7","8","6","8","9","8","7","7","7","7","7","6","7","1","7","7","1","6","7","7","7","7","7","7","7","6","7","7","7","7","7","7","7","7","7","7","7","7","6","7","7","7","7","7","7","7","7","633748719031812096","张","193","Male","[""好我"",""坏我"",""坏他"",""好他""]","[""强我"",""弱我"",""弱他"",""强他""]","","","","","","","","no","","","","","","","","","SRET","EW_formal","","key","f","16.64752475247519","768","428","自己","犹豫","Negative","ability","","","","","","","","","","",""
"774","","j","psychophysics","45","144598","0.0-7.0-3.0-0.31","7","7","7","7","6","5","5","5","5","5","5","2","1","2","2","2","2","2","2","5","5","5","5","5","4","4","5","4","4","7","8","7","7","8","6","8","9","8","7","7","7","7","7","6","7","1","7","7","1","6","7","7","7","7","7","7","7","6","7","7","7","7","7","7","7","7","7","7","7","7","6","7","7","7","7","7","7","7","7","633748719031812096","张","193","Male","[""好我"",""坏我"",""坏他"",""好他""]","[""强我"",""弱我"",""弱他"",""强他""]","","","","","","","","yes","","","","","","","","","SRET","EW_formal","","key","j","16.651886792452885","768","428","朋友","仗义","Positive","morality","","","","","","","","","","",""
"989","","f","psychophysics","46","146590","0.0-7.0-3.0-0.32","7","7","7","7","6","5","5","5","5","5","5","2","1","2","2","2","2","2","2","5","5","5","5","5","4","4","5","4","4","7","8","7","7","8","6","8","9","8","7","7","7","7","7","6","7","1","7","7","1","6","7","7","7","7","7","7","7","6","7","7","7","7","7","7","7","7","7","7","7","7","6","7","7","7","7","7","7","7","7","633748719031812096","张","193","Male","[""好我"",""坏我"",""坏他"",""好他""]","[""强我"",""弱我"",""弱他"",""强他""]","","","","","","","","no","","","","","","","","","SRET","EW_formal","","key","f","16.651694915254435","768","428","朋友","自私","Negative","morality","","","","","","","","","","",""
"895","","f","psychophysics","47","148486","0.0-7.0-3.0-0.33","7","7","7","7","6","5","5","5","5","5","5","2","1","2","2","2","2","2","2","5","5","5","5","5","4","4","5","4","4","7","8","7","7","8","6","8","9","8","7","7","7","7","7","6","7","1","7","7","1","6","7","7","7","7","7","7","7","6","7","7","7","7","7","7","7","7","7","7","7","7","6","7","7","7","7","7","7","7","7","633748719031812096","张","193","Male","[""好我"",""坏我"",""坏他"",""好他""]","[""强我"",""弱我"",""弱他"",""强他""]","","","","","","","","no","","","","","","","","","SRET","EW_formal","","key","f","16.652212389380633","768","428","朋友","贪腐","Negative","morality","","","","","","","","","","",""
"1343","","j","psychophysics","48","150830","0.0-7.0-3.0-0.34","7","7","7","7","6","5","5","5","5","5","5","2","1","2","2","2","2","2","2","5","5","5","5","5","4","4","5","4","4","7","8","7","7","8","6","8","9","8","7","7","7","7","7","6","7","1","7","7","1","6","7","7","7","7","7","7","7","6","7","7","7","7","7","7","7","7","7","7","7","7","6","7","7","7","7","7","7","7","7","633748719031812096","张","193","Male","[""好我"",""坏我"",""坏他"",""好他""]","[""强我"",""弱我"",""弱他"",""强他""]","","","","","","","","yes","","","","","","","","","SRET","EW_formal","","key","j","16.650714285714326","768","428","自己","宽容","Positive","morality","","","","","","","","","","",""
"671","","j","psychophysics","49","152502","0.0-7.0-3.0-0.35","7","7","7","7","6","5","5","5","5","5","5","2","1","2","2","2","2","2","2","5","5","5","5","5","4","4","5","4","4","7","8","7","7","8","6","8","9","8","7","7","7","7","7","6","7","1","7","7","1","6","7","7","7","7","7","7","7","6","7","7","7","7","7","7","7","7","7","7","7","7","6","7","7","7","7","7","7","7","7","633748719031812096","张","193","Male","[""好我"",""坏我"",""坏他"",""好他""]","[""强我"",""弱我"",""弱他"",""强他""]","","","","","","","","yes","","","","","","","","","SRET","EW_formal","","key","j","16.651515151515152","768","428","自己","善良","Positive","morality","","","","","","","","","","",""
"799","","f","psychophysics","50","154302","0.0-7.0-3.0-0.36","7","7","7","7","6","5","5","5","5","5","5","2","1","2","2","2","2","2","2","5","5","5","5","5","4","4","5","4","4","7","8","7","7","8","6","8","9","8","7","7","7","7","7","6","7","1","7","7","1","6","7","7","7","7","7","7","7","6","7","7","7","7","7","7","7","7","7","7","7","7","6","7","7","7","7","7","7","7","7","633748719031812096","张","193","Male","[""好我"",""坏我"",""坏他"",""好他""]","[""强我"",""弱我"",""弱他"",""强他""]","","","","","","","","no","","","","","","","","","SRET","EW_formal","","key","f","16.65140186915899","768","428","自己","蛇蝎","Negative","morality","","","","","","","","","","",""
"991","","j","psychophysics","51","156294","0.0-7.0-3.0-0.37","7","7","7","7","6","5","5","5","5","5","5","2","1","2","2","2","2","2","2","5","5","5","5","5","4","4","5","4","4","7","8","7","7","8","6","8","9","8","7","7","7","7","7","6","7","1","7","7","1","6","7","7","7","7","7","7","7","6","7","7","7","7","7","7","7","7","7","7","7","7","6","7","7","7","7","7","7","7","7","633748719031812096","张","193","Male","[""好我"",""坏我"",""坏他"",""好他""]","[""强我"",""弱我"",""弱他"",""强他""]","","","","","","","","yes","","","","","","","","","SRET","EW_formal","","key","j","16.650420168067424","768","428","朋友","娴熟","Positive","ability","","","","","","","","","","",""
"790","","f","psychophysics","52","158086","0.0-7.0-3.0-0.38","7","7","7","7","6","5","5","5","5","5","5","2","1","2","2","2","2","2","2","5","5","5","5","5","4","4","5","4","4","7","8","7","7","8","6","8","9","8","7","7","7","7","7","6","7","1","7","7","1","6","7","7","7","7","7","7","7","6","7","7","7","7","7","7","7","7","7","7","7","7","6","7","7","7","7","7","7","7","7","633748719031812096","张","193","Male","[""好我"",""坏我"",""坏他"",""好他""]","[""强我"",""弱我"",""弱他"",""强他""]","","","","","","","","no","","","","","","","","","SRET","EW_formal","","key","f","16.65140186915899","768","428","自己","窝囊","Negative","ability","","","","","","","","","","",""
"1182","","f","psychophysics","53","160270","0.0-7.0-3.0-0.39","7","7","7","7","6","5","5","5","5","5","5","2","1","2","2","2","2","2","2","5","5","5","5","5","4","4","5","4","4","7","8","7","7","8","6","8","9","8","7","7","7","7","7","6","7","1","7","7","1","6","7","7","7","7","7","7","7","6","7","7","7","7","7","7","7","7","7","7","7","7","6","7","7","7","7","7","7","7","7","633748719031812096","张","193","Male","[""好我"",""坏我"",""坏他"",""好他""]","[""强我"",""弱我"",""弱他"",""强他""]","","","","","","","","no","","","","","","","","","SRET","EW_formal","","key","f","16.651538461538326","768","428","朋友","浅薄","Negative","ability","","","","","","","","","","",""
"911","","j","psychophysics","54","162182","0.0-7.0-3.0-0.40","7","7","7","7","6","5","5","5","5","5","5","2","1","2","2","2","2","2","2","5","5","5","5","5","4","4","5","4","4","7","8","7","7","8","6","8","9","8","7","7","7","7","7","6","7","1","7","7","1","6","7","7","7","7","7","7","7","6","7","7","7","7","7","7","7","7","7","7","7","7","6","7","7","7","7","7","7","7","7","633748719031812096","张","193","Male","[""好我"",""坏我"",""坏他"",""好他""]","[""强我"",""弱我"",""弱他"",""强他""]","","","","","","","","yes","","","","","","","","","SRET","EW_formal","","key","j","16.650877192982303","768","428","自己","刻苦","Positive","ability","","","","","","","","","","",""
"534","","j","psychophysics","55","163718","0.0-7.0-3.0-0.41","7","7","7","7","6","5","5","5","5","5","5","2","1","2","2","2","2","2","2","5","5","5","5","5","4","4","5","4","4","7","8","7","7","8","6","8","9","8","7","7","7","7","7","6","7","1","7","7","1","6","7","7","7","7","7","7","7","6","7","7","7","7","7","7","7","7","7","7","7","7","6","7","7","7","7","7","7","7","7","633748719031812096","张","193","Male","[""好我"",""坏我"",""坏他"",""好他""]","[""强我"",""弱我"",""弱他"",""强他""]","","","","","","","","yes","","","","","","","","","SRET","EW_formal","","key","j","16.64615384615404","768","428","朋友","智慧","Positive","ability","","","","","","","","","","",""
"606","","j","psychophysics","56","165326","0.0-7.0-3.0-0.42","7","7","7","7","6","5","5","5","5","5","5","2","1","2","2","2","2","2","2","5","5","5","5","5","4","4","5","4","4","7","8","7","7","8","6","8","9","8","7","7","7","7","7","6","7","1","7","7","1","6","7","7","7","7","7","7","7","6","7","7","7","7","7","7","7","7","7","7","7","7","6","7","7","7","7","7","7","7","7","633748719031812096","张","193","Male","[""好我"",""坏我"",""坏他"",""好他""]","[""强我"",""弱我"",""弱他"",""强他""]","","","","","","","","yes","","","","","","","","","SRET","EW_formal","","key","j","16.65052631578966","768","428","朋友","君子","Positive","morality","","","","","","","","","","",""
"999","","j","psychophysics","57","167326","0.0-7.0-3.0-0.43","7","7","7","7","6","5","5","5","5","5","5","2","1","2","2","2","2","2","2","5","5","5","5","5","4","4","5","4","4","7","8","7","7","8","6","8","9","8","7","7","7","7","7","6","7","1","7","7","1","6","7","7","7","7","7","7","7","6","7","7","7","7","7","7","7","7","7","7","7","7","6","7","7","7","7","7","7","7","7","633748719031812096","张","193","Male","[""好我"",""坏我"",""坏他"",""好他""]","[""强我"",""弱我"",""弱他"",""强他""]","","","","","","","","yes","","","","","","","","","SRET","EW_formal","","key","j","16.652100840336182","768","428","自己","守法","Positive","morality","","","","","","","","","","",""
"719","","f","psychophysics","58","169046","0.0-7.0-3.0-0.44","7","7","7","7","6","5","5","5","5","5","5","2","1","2","2","2","2","2","2","5","5","5","5","5","4","4","5","4","4","7","8","7","7","8","6","8","9","8","7","7","7","7","7","6","7","1","7","7","1","6","7","7","7","7","7","7","7","6","7","7","7","7","7","7","7","7","7","7","7","7","6","7","7","7","7","7","7","7","7","633748719031812096","张","193","Male","[""好我"",""坏我"",""坏他"",""好他""]","[""强我"",""弱我"",""弱他"",""强他""]","","","","","","","","no","","","","","","","","","SRET","EW_formal","","key","f","16.651456310679666","768","428","朋友","笨蛋","Negative","ability","","","","","","","","","","",""
"646","","j","psychophysics","59","170694","0.0-7.0-3.0-0.45","7","7","7","7","6","5","5","5","5","5","5","2","1","2","2","2","2","2","2","5","5","5","5","5","4","4","5","4","4","7","8","7","7","8","6","8","9","8","7","7","7","7","7","6","7","1","7","7","1","6","7","7","7","7","7","7","7","6","7","7","7","7","7","7","7","7","7","7","7","7","6","7","7","7","7","7","7","7","7","633748719031812096","张","193","Male","[""好我"",""坏我"",""坏他"",""好他""]","[""强我"",""弱我"",""弱他"",""强他""]","","","","","","","","yes","","","","","","","","","SRET","EW_formal","","key","j","16.652040816326473","768","428","朋友","坚持","Positive","ability","","","","","","","","","","",""
"958","","f","psychophysics","60","172654","0.0-7.0-3.0-0.46","7","7","7","7","6","5","5","5","5","5","5","2","1","2","2","2","2","2","2","5","5","5","5","5","4","4","5","4","4","7","8","7","7","8","6","8","9","8","7","7","7","7","7","6","7","1","7","7","1","6","7","7","7","7","7","7","7","6","7","7","7","7","7","7","7","7","7","7","7","7","6","7","7","7","7","7","7","7","7","633748719031812096","张","193","Male","[""好我"",""坏我"",""坏他"",""好他""]","[""强我"",""弱我"",""弱他"",""强他""]","","","","","","","","no","","","","","","","","","SRET","EW_formal","","key","f","16.6525862068964","768","428","朋友","无知","Negative","ability","","","","","","","","","","",""
"758","","j","psychophysics","61","174414","0.0-7.0-3.0-0.47","7","7","7","7","6","5","5","5","5","5","5","2","1","2","2","2","2","2","2","5","5","5","5","5","4","4","5","4","4","7","8","7","7","8","6","8","9","8","7","7","7","7","7","6","7","1","7","7","1","6","7","7","7","7","7","7","7","6","7","7","7","7","7","7","7","7","7","7","7","7","6","7","7","7","7","7","7","7","7","633748719031812096","张","193","Male","[""好我"",""坏我"",""坏他"",""好他""]","[""强我"",""弱我"",""弱他"",""强他""]","","","","","","","","yes","","","","","","","","","SRET","EW_formal","","key","j","16.651428571428514","768","428","自己","周到","Positive","ability","","","","","","","","","","",""
"738","","f","psychophysics","62","176153","0.0-7.0-3.0-0.48","7","7","7","7","6","5","5","5","5","5","5","2","1","2","2","2","2","2","2","5","5","5","5","5","4","4","5","4","4","7","8","7","7","8","6","8","9","8","7","7","7","7","7","6","7","1","7","7","1","6","7","7","7","7","7","7","7","6","7","7","7","7","7","7","7","7","7","7","7","7","6","7","7","7","7","7","7","7","7","633748719031812096","张","193","Male","[""好我"",""坏我"",""坏他"",""好他""]","[""强我"",""弱我"",""弱他"",""强他""]","","","","","","","","no","","","","","","","","","SRET","EW_formal","","key","f","16.65096153846165","768","428","朋友","虚伪","Negative","morality","","","","","","","","","","",""
"725","","j","psychophysics","63","177878","0.0-7.0-3.0-0.49","7","7","7","7","6","5","5","5","5","5","5","2","1","2","2","2","2","2","2","5","5","5","5","5","4","4","5","4","4","7","8","7","7","8","6","8","9","8","7","7","7","7","7","6","7","1","7","7","1","6","7","7","7","7","7","7","7","6","7","7","7","7","7","7","7","7","7","7","7","7","6","7","7","7","7","7","7","7","7","633748719031812096","张","193","Male","[""好我"",""坏我"",""坏他"",""好他""]","[""强我"",""弱我"",""弱他"",""强他""]","","","","","","","","yes","","","","","","","","","SRET","EW_formal","","key","j","16.650980392156807","768","428","自己","清廉","Positive","morality","","","","","","","","","","",""
"670","","j","psychophysics","64","179550","0.0-7.0-3.0-0.50","7","7","7","7","6","5","5","5","5","5","5","2","1","2","2","2","2","2","2","5","5","5","5","5","4","4","5","4","4","7","8","7","7","8","6","8","9","8","7","7","7","7","7","6","7","1","7","7","1","6","7","7","7","7","7","7","7","6","7","7","7","7","7","7","7","7","7","7","7","7","6","7","7","7","7","7","7","7","7","633748719031812096","张","193","Male","[""好我"",""坏我"",""坏他"",""好他""]","[""强我"",""弱我"",""弱他"",""强他""]","","","","","","","","yes","","","","","","","","","SRET","EW_formal","","key","j","16.652000000000115","768","428","朋友","专注","Positive","ability","","","","","","","","","","",""
"799","","j","psychophysics","65","181350","0.0-7.0-3.0-0.51","7","7","7","7","6","5","5","5","5","5","5","2","1","2","2","2","2","2","2","5","5","5","5","5","4","4","5","4","4","7","8","7","7","8","6","8","9","8","7","7","7","7","7","6","7","1","7","7","1","6","7","7","7","7","7","7","7","6","7","7","7","7","7","7","7","7","7","7","7","7","6","7","7","7","7","7","7","7","7","633748719031812096","张","193","Male","[""好我"",""坏我"",""坏他"",""好他""]","[""强我"",""弱我"",""弱他"",""强他""]","","","","","","","","yes","","","","","","","","","SRET","EW_formal","","key","j","16.65046728971941","768","428","朋友","正气","Positive","morality","","","","","","","","","","",""
"814","","f","psychophysics","66","183166","0.0-7.0-3.0-0.52","7","7","7","7","6","5","5","5","5","5","5","2","1","2","2","2","2","2","2","5","5","5","5","5","4","4","5","4","4","7","8","7","7","8","6","8","9","8","7","7","7","7","7","6","7","1","7","7","1","6","7","7","7","7","7","7","7","6","7","7","7","7","7","7","7","7","7","7","7","7","6","7","7","7","7","7","7","7","7","633748719031812096","张","193","Male","[""好我"",""坏我"",""坏他"",""好他""]","[""强我"",""弱我"",""弱他"",""强他""]","","","","","","","","no","","","","","","","","","SRET","EW_formal","","key","f","16.65092592592609","768","428","自己","毛糙","Negative","ability","","","","","","","","","","",""
"759","","f","psychophysics","67","184926","0.0-7.0-3.0-0.53","7","7","7","7","6","5","5","5","5","5","5","2","1","2","2","2","2","2","2","5","5","5","5","5","4","4","5","4","4","7","8","7","7","8","6","8","9","8","7","7","7","7","7","6","7","1","7","7","1","6","7","7","7","7","7","7","7","6","7","7","7","7","7","7","7","7","7","7","7","7","6","7","7","7","7","7","7","7","7","633748719031812096","张","193","Male","[""好我"",""坏我"",""坏他"",""好他""]","[""强我"",""弱我"",""弱他"",""强他""]","","","","","","","","no","","","","","","","","","SRET","EW_formal","","key","f","16.65096153846165","768","428","朋友","驽钝","Negative","ability","","","","","","","","","","",""
"672","","j","psychophysics","68","186598","0.0-7.0-3.0-0.54","7","7","7","7","6","5","5","5","5","5","5","2","1","2","2","2","2","2","2","5","5","5","5","5","4","4","5","4","4","7","8","7","7","8","6","8","9","8","7","7","7","7","7","6","7","1","7","7","1","6","7","7","7","7","7","7","7","6","7","7","7","7","7","7","7","7","7","7","7","7","6","7","7","7","7","7","7","7","7","633748719031812096","张","193","Male","[""好我"",""坏我"",""坏他"",""好他""]","[""强我"",""弱我"",""弱他"",""强他""]","","","","","","","","yes","","","","","","","","","SRET","EW_formal","","key","j","16.64899999999994","768","428","朋友","诚信","Positive","morality","","","","","","","","","","",""
"694","","j","psychophysics","69","188294","0.0-7.0-3.0-0.55","7","7","7","7","6","5","5","5","5","5","5","2","1","2","2","2","2","2","2","5","5","5","5","5","4","4","5","4","4","7","8","7","7","8","6","8","9","8","7","7","7","7","7","6","7","1","7","7","1","6","7","7","7","7","7","7","7","6","7","7","7","7","7","7","7","7","7","7","7","7","6","7","7","7","7","7","7","7","7","633748719031812096","张","193","Male","[""好我"",""坏我"",""坏他"",""好他""]","[""强我"",""弱我"",""弱他"",""强他""]","","","","","","","","yes","","","","","","","","","SRET","EW_formal","","key","j","16.650495049504777","768","428","自己","上进","Positive","ability","","","","","","","","","","",""
"806","","f","psychophysics","70","190102","0.0-7.0-3.0-0.56","7","7","7","7","6","5","5","5","5","5","5","2","1","2","2","2","2","2","2","5","5","5","5","5","4","4","5","4","4","7","8","7","7","8","6","8","9","8","7","7","7","7","7","6","7","1","7","7","1","6","7","7","7","7","7","7","7","6","7","7","7","7","7","7","7","7","7","7","7","7","6","7","7","7","7","7","7","7","7","633748719031812096","张","193","Male","[""好我"",""坏我"",""坏他"",""好他""]","[""强我"",""弱我"",""弱他"",""强他""]","","","","","","","","no","","","","","","","","","SRET","EW_formal","","key","f","16.650467289719682","768","428","朋友","淫乱","Negative","morality","","","","","","","","","","",""
"886","","f","psychophysics","71","191990","0.0-7.0-3.0-0.57","7","7","7","7","6","5","5","5","5","5","5","2","1","2","2","2","2","2","2","5","5","5","5","5","4","4","5","4","4","7","8","7","7","8","6","8","9","8","7","7","7","7","7","6","7","1","7","7","1","6","7","7","7","7","7","7","7","6","7","7","7","7","7","7","7","7","7","7","7","7","6","7","7","7","7","7","7","7","7","633748719031812096","张","193","Male","[""好我"",""坏我"",""坏他"",""好他""]","[""强我"",""弱我"",""弱他"",""强他""]","","","","","","","","no","","","","","","","","","SRET","EW_formal","","key","f","16.65132743362837","768","428","自己","腐败","Negative","morality","","","","","","","","","","",""
"1208","","f","psychophysics","72","194200","0.0-7.0-3.0-0.58","7","7","7","7","6","5","5","5","5","5","5","2","1","2","2","2","2","2","2","5","5","5","5","5","4","4","5","4","4","7","8","7","7","8","6","8","9","8","7","7","7","7","7","6","7","1","7","7","1","6","7","7","7","7","7","7","7","6","7","7","7","7","7","7","7","7","7","7","7","7","6","7","7","7","7","7","7","7","7","633748719031812096","张","193","Male","[""好我"",""坏我"",""坏他"",""好他""]","[""强我"",""弱我"",""弱他"",""强他""]","","","","","","","","no","","","","","","","","","SRET","EW_formal","","key","f","16.65267175572519","768","428","自己","不端","Negative","morality","","","","","","","","","","",""
"999","","j","psychophysics","73","196199","0.0-7.0-3.0-0.59","7","7","7","7","6","5","5","5","5","5","5","2","1","2","2","2","2","2","2","5","5","5","5","5","4","4","5","4","4","7","8","7","7","8","6","8","9","8","7","7","7","7","7","6","7","1","7","7","1","6","7","7","7","7","7","7","7","6","7","7","7","7","7","7","7","7","7","7","7","7","6","7","7","7","7","7","7","7","7","633748719031812096","张","193","Male","[""好我"",""坏我"",""坏他"",""好他""]","[""强我"",""弱我"",""弱他"",""强他""]","","","","","","","","yes","","","","","","","","","SRET","EW_formal","","key","j","16.652100840336182","768","428","自己","义气","Positive","morality","","","","","","","","","","",""
"613","","f","psychophysics","74","197814","0.0-7.0-3.0-0.60","7","7","7","7","6","5","5","5","5","5","5","2","1","2","2","2","2","2","2","5","5","5","5","5","4","4","5","4","4","7","8","7","7","8","6","8","9","8","7","7","7","7","7","6","7","1","7","7","1","6","7","7","7","7","7","7","7","6","7","7","7","7","7","7","7","7","7","7","7","7","6","7","7","7","7","7","7","7","7","633748719031812096","张","193","Male","[""好我"",""坏我"",""坏他"",""好他""]","[""强我"",""弱我"",""弱他"",""强他""]","","","","","","","","no","","","","","","","","","SRET","EW_formal","","key","f","16.649999999999938","768","428","自己","废物","Negative","ability","","","","","","","","","","",""
"728","","j","psychophysics","75","199542","0.0-7.0-3.0-0.61","7","7","7","7","6","5","5","5","5","5","5","2","1","2","2","2","2","2","2","5","5","5","5","5","4","4","5","4","4","7","8","7","7","8","6","8","9","8","7","7","7","7","7","6","7","1","7","7","1","6","7","7","7","7","7","7","7","6","7","7","7","7","7","7","7","7","7","7","7","7","6","7","7","7","7","7","7","7","7","633748719031812096","张","193","Male","[""好我"",""坏我"",""坏他"",""好他""]","[""强我"",""弱我"",""弱他"",""强他""]","","","","","","","","yes","","","","","","","","","SRET","EW_formal","","key","j","16.651456310679666","768","428","朋友","忠义","Positive","morality","","","","","","","","","","",""
"622","","j","psychophysics","76","201166","0.0-7.0-3.0-0.62","7","7","7","7","6","5","5","5","5","5","5","2","1","2","2","2","2","2","2","5","5","5","5","5","4","4","5","4","4","7","8","7","7","8","6","8","9","8","7","7","7","7","7","6","7","1","7","7","1","6","7","7","7","7","7","7","7","6","7","7","7","7","7","7","7","7","7","7","7","7","6","7","7","7","7","7","7","7","7","633748719031812096","张","193","Male","[""好我"",""坏我"",""坏他"",""好他""]","[""强我"",""弱我"",""弱他"",""强他""]","","","","","","","","yes","","","","","","","","","SRET","EW_formal","","key","j","16.651546391752696","768","428","朋友","忠良","Positive","morality","","","","","","","","","","",""
"951","","f","psychophysics","77","203119","0.0-7.0-3.0-0.63","7","7","7","7","6","5","5","5","5","5","5","2","1","2","2","2","2","2","2","5","5","5","5","5","4","4","5","4","4","7","8","7","7","8","6","8","9","8","7","7","7","7","7","6","7","1","7","7","1","6","7","7","7","7","7","7","7","6","7","7","7","7","7","7","7","7","7","7","7","7","6","7","7","7","7","7","7","7","7","633748719031812096","张","193","Male","[""好我"",""坏我"",""坏他"",""好他""]","[""强我"",""弱我"",""弱他"",""强他""]","","","","","","","","no","","","","","","","","","SRET","EW_formal","","key","f","16.650862068965516","768","428","朋友","歹毒","Negative","morality","","","","","","","","","","",""
"565","","f","psychophysics","78","204686","0.0-7.0-3.0-0.64","7","7","7","7","6","5","5","5","5","5","5","2","1","2","2","2","2","2","2","5","5","5","5","5","4","4","5","4","4","7","8","7","7","8","6","8","9","8","7","7","7","7","7","6","7","1","7","7","1","6","7","7","7","7","7","7","7","6","7","7","7","7","7","7","7","7","7","7","7","7","6","7","7","7","7","7","7","7","7","633748719031812096","张","193","Male","[""好我"",""坏我"",""坏他"",""好他""]","[""强我"",""弱我"",""弱他"",""强他""]","","","","","","","","no","","","","","","","","","SRET","EW_formal","","key","f","16.651612903225868","768","428","朋友","迟钝","Negative","ability","","","","","","","","","","",""
"663","","f","psychophysics","79","206350","0.0-7.0-3.0-0.65","7","7","7","7","6","5","5","5","5","5","5","2","1","2","2","2","2","2","2","5","5","5","5","5","4","4","5","4","4","7","8","7","7","8","6","8","9","8","7","7","7","7","7","6","7","1","7","7","1","6","7","7","7","7","7","7","7","6","7","7","7","7","7","7","7","7","7","7","7","7","6","7","7","7","7","7","7","7","7","633748719031812096","张","193","Male","[""好我"",""坏我"",""坏他"",""好他""]","[""强我"",""弱我"",""弱他"",""强他""]","","","","","","","","no","","","","","","","","","SRET","EW_formal","","key","f","16.654545454545335","768","428","自己","混账","Negative","morality","","","","","","","","","","",""
"614","","f","psychophysics","80","207966","0.0-7.0-3.0-0.66","7","7","7","7","6","5","5","5","5","5","5","2","1","2","2","2","2","2","2","5","5","5","5","5","4","4","5","4","4","7","8","7","7","8","6","8","9","8","7","7","7","7","7","6","7","1","7","7","1","6","7","7","7","7","7","7","7","6","7","7","7","7","7","7","7","7","7","7","7","7","6","7","7","7","7","7","7","7","7","633748719031812096","张","193","Male","[""好我"",""坏我"",""坏他"",""好他""]","[""强我"",""弱我"",""弱他"",""强他""]","","","","","","","","no","","","","","","","","","SRET","EW_formal","","key","f","16.65312500000012","768","428","自己","卑鄙","Negative","morality","","","","","","","","","","",""
"670","","f","psychophysics","81","209638","0.0-7.0-3.0-0.67","7","7","7","7","6","5","5","5","5","5","5","2","1","2","2","2","2","2","2","5","5","5","5","5","4","4","5","4","4","7","8","7","7","8","6","8","9","8","7","7","7","7","7","6","7","1","7","7","1","6","7","7","7","7","7","7","7","6","7","7","7","7","7","7","7","7","7","7","7","7","6","7","7","7","7","7","7","7","7","633748719031812096","张","193","Male","[""好我"",""坏我"",""坏他"",""好他""]","[""强我"",""弱我"",""弱他"",""强他""]","","","","","","","","no","","","","","","","","","SRET","EW_formal","","key","f","16.651000000000057","768","428","朋友","短视","Negative","ability","","","","","","","","","","",""
"575","","j","psychophysics","82","211214","0.0-7.0-3.0-0.68","7","7","7","7","6","5","5","5","5","5","5","2","1","2","2","2","2","2","2","5","5","5","5","5","4","4","5","4","4","7","8","7","7","8","6","8","9","8","7","7","7","7","7","6","7","1","7","7","1","6","7","7","7","7","7","7","7","6","7","7","7","7","7","7","7","7","7","7","7","7","6","7","7","7","7","7","7","7","7","633748719031812096","张","193","Male","[""好我"",""坏我"",""坏他"",""好他""]","[""强我"",""弱我"",""弱他"",""强他""]","","","","","","","","yes","","","","","","","","","SRET","EW_formal","","key","j","16.651612903225868","768","428","自己","有力","Positive","ability","","","","","","","","","","",""
"640","","j","psychophysics","83","212855","0.0-7.0-3.0-0.69","7","7","7","7","6","5","5","5","5","5","5","2","1","2","2","2","2","2","2","5","5","5","5","5","4","4","5","4","4","7","8","7","7","8","6","8","9","8","7","7","7","7","7","6","7","1","7","7","1","6","7","7","7","7","7","7","7","6","7","7","7","7","7","7","7","7","7","7","7","7","6","7","7","7","7","7","7","7","7","633748719031812096","张","193","Male","[""好我"",""坏我"",""坏他"",""好他""]","[""强我"",""弱我"",""弱他"",""强他""]","","","","","","","","yes","","","","","","","","","SRET","EW_formal","","key","j","16.651020408163145","768","428","朋友","礼貌","Positive","morality","","","","","","","","","","",""
"757","","j","psychophysics","84","214613","0.0-7.0-3.0-0.70","7","7","7","7","6","5","5","5","5","5","5","2","1","2","2","2","2","2","2","5","5","5","5","5","4","4","5","4","4","7","8","7","7","8","6","8","9","8","7","7","7","7","7","6","7","1","7","7","1","6","7","7","7","7","7","7","7","6","7","7","7","7","7","7","7","7","7","7","7","7","6","7","7","7","7","7","7","7","7","633748719031812096","张","193","Male","[""好我"",""坏我"",""坏他"",""好他""]","[""强我"",""弱我"",""弱他"",""强他""]","","","","","","","","yes","","","","","","","","","SRET","EW_formal","","key","j","16.651923076923246","768","428","自己","果断","Positive","ability","","","","","","","","","","",""
"688","","j","psychophysics","85","216302","0.0-7.0-3.0-0.71","7","7","7","7","6","5","5","5","5","5","5","2","1","2","2","2","2","2","2","5","5","5","5","5","4","4","5","4","4","7","8","7","7","8","6","8","9","8","7","7","7","7","7","6","7","1","7","7","1","6","7","7","7","7","7","7","7","6","7","7","7","7","7","7","7","7","7","7","7","7","6","7","7","7","7","7","7","7","7","633748719031812096","张","193","Male","[""好我"",""坏我"",""坏他"",""好他""]","[""强我"",""弱我"",""弱他"",""强他""]","","","","","","","","yes","","","","","","","","","SRET","EW_formal","","key","j","16.650495049505064","768","428","朋友","奉献","Positive","morality","","","","","","","","","","",""
"910","","j","psychophysics","86","218214","0.0-7.0-3.0-0.72","7","7","7","7","6","5","5","5","5","5","5","2","1","2","2","2","2","2","2","5","5","5","5","5","4","4","5","4","4","7","8","7","7","8","6","8","9","8","7","7","7","7","7","6","7","1","7","7","1","6","7","7","7","7","7","7","7","6","7","7","7","7","7","7","7","7","7","7","7","7","6","7","7","7","7","7","7","7","7","633748719031812096","张","193","Male","[""好我"",""坏我"",""坏他"",""好他""]","[""强我"",""弱我"",""弱他"",""强他""]","","","","","","","","yes","","","","","","","","","SRET","EW_formal","","key","j","16.648245614035037","768","428","朋友","谦逊","Positive","morality","","","","","","","","","","",""
"774","","f","psychophysics","87","219990","0.0-7.0-3.0-0.73","7","7","7","7","6","5","5","5","5","5","5","2","1","2","2","2","2","2","2","5","5","5","5","5","4","4","5","4","4","7","8","7","7","8","6","8","9","8","7","7","7","7","7","6","7","1","7","7","1","6","7","7","7","7","7","7","7","6","7","7","7","7","7","7","7","7","7","7","7","7","6","7","7","7","7","7","7","7","7","633748719031812096","张","193","Male","[""好我"",""坏我"",""坏他"",""好他""]","[""强我"",""弱我"",""弱他"",""强他""]","","","","","","","","no","","","","","","","","","SRET","EW_formal","","key","f","16.65047619047608","768","428","朋友","短浅","Negative","ability","","","","","","","","","","",""
"1062","","j","psychophysics","88","222054","0.0-7.0-3.0-0.74","7","7","7","7","6","5","5","5","5","5","5","2","1","2","2","2","2","2","2","5","5","5","5","5","4","4","5","4","4","7","8","7","7","8","6","8","9","8","7","7","7","7","7","6","7","1","7","7","1","6","7","7","7","7","7","7","7","6","7","7","7","7","7","7","7","7","7","7","7","7","6","7","7","7","7","7","7","7","7","633748719031812096","张","193","Male","[""好我"",""坏我"",""坏他"",""好他""]","[""强我"",""弱我"",""弱他"",""强他""]","","","","","","","","yes","","","","","","","","","SRET","EW_formal","","key","j","16.652845528455188","768","428","自己","远见","Positive","ability","","","","","","","","","","",""
"982","","f","psychophysics","89","224038","0.0-7.0-3.0-0.75","7","7","7","7","6","5","5","5","5","5","5","2","1","2","2","2","2","2","2","5","5","5","5","5","4","4","5","4","4","7","8","7","7","8","6","8","9","8","7","7","7","7","7","6","7","1","7","7","1","6","7","7","7","7","7","7","7","6","7","7","7","7","7","7","7","7","7","7","7","7","6","7","7","7","7","7","7","7","7","633748719031812096","张","193","Male","[""好我"",""坏我"",""坏他"",""好他""]","[""强我"",""弱我"",""弱他"",""强他""]","","","","","","","","no","","","","","","","","","SRET","EW_formal","","key","f","16.651694915254186","768","428","自己","独断","Negative","ability","","","","","","","","","","",""
"632","","j","psychophysics","90","225671","0.0-7.0-3.0-0.76","7","7","7","7","6","5","5","5","5","5","5","2","1","2","2","2","2","2","2","5","5","5","5","5","4","4","5","4","4","7","8","7","7","8","6","8","9","8","7","7","7","7","7","6","7","1","7","7","1","6","7","7","7","7","7","7","7","6","7","7","7","7","7","7","7","7","7","7","7","7","6","7","7","7","7","7","7","7","7","633748719031812096","张","193","Male","[""好我"",""坏我"",""坏他"",""好他""]","[""强我"",""弱我"",""弱他"",""强他""]","","","","","","","","yes","","","","","","","","","SRET","EW_formal","","key","j","16.650515463917586","768","428","自己","廉正","Positive","morality","","","","","","","","","","",""
"917","","f","psychophysics","91","227590","0.0-7.0-3.0-0.77","7","7","7","7","6","5","5","5","5","5","5","2","1","2","2","2","2","2","2","5","5","5","5","5","4","4","5","4","4","7","8","7","7","8","6","8","9","8","7","7","7","7","7","6","7","1","7","7","1","6","7","7","7","7","7","7","7","6","7","7","7","7","7","7","7","7","7","7","7","7","6","7","7","7","7","7","7","7","7","633748719031812096","张","193","Male","[""好我"",""坏我"",""坏他"",""好他""]","[""强我"",""弱我"",""弱他"",""强他""]","","","","","","","","no","","","","","","","","","SRET","EW_formal","","key","f","16.651304347826038","768","428","自己","贪污","Negative","morality","","","","","","","","","","",""
"1078","","f","psychophysics","92","229669","0.0-7.0-3.0-0.78","7","7","7","7","6","5","5","5","5","5","5","2","1","2","2","2","2","2","2","5","5","5","5","5","4","4","5","4","4","7","8","7","7","8","6","8","9","8","7","7","7","7","7","6","7","1","7","7","1","6","7","7","7","7","7","7","7","6","7","7","7","7","7","7","7","7","7","7","7","7","6","7","7","7","7","7","7","7","7","633748719031812096","张","193","Male","[""好我"",""坏我"",""坏他"",""好他""]","[""强我"",""弱我"",""弱他"",""强他""]","","","","","","","","no","","","","","","","","","SRET","EW_formal","","key","f","16.65000000000005","768","428","朋友","迂拙","Negative","ability","","","","","","","","","","",""
"1415","","f","psychophysics","93","232086","0.0-7.0-3.0-0.79","7","7","7","7","6","5","5","5","5","5","5","2","1","2","2","2","2","2","2","5","5","5","5","5","4","4","5","4","4","7","8","7","7","8","6","8","9","8","7","7","7","7","7","6","7","1","7","7","1","6","7","7","7","7","7","7","7","6","7","7","7","7","7","7","7","7","7","7","7","7","6","7","7","7","7","7","7","7","7","633748719031812096","张","193","Male","[""好我"",""坏我"",""坏他"",""好他""]","[""强我"",""弱我"",""弱他"",""强他""]","","","","","","","","no","","","","","","","","","SRET","EW_formal","","key","f","16.651388888888807","768","428","朋友","拖拉","Negative","ability","","","","","","","","","","",""
"967","","f","psychophysics","94","234054","0.0-7.0-3.0-0.80","7","7","7","7","6","5","5","5","5","5","5","2","1","2","2","2","2","2","2","5","5","5","5","5","4","4","5","4","4","7","8","7","7","8","6","8","9","8","7","7","7","7","7","6","7","1","7","7","1","6","7","7","7","7","7","7","7","6","7","7","7","7","7","7","7","7","7","7","7","7","6","7","7","7","7","7","7","7","7","633748719031812096","张","193","Male","[""好我"",""坏我"",""坏他"",""好他""]","[""强我"",""弱我"",""弱他"",""强他""]","","","","","","","","no","","","","","","","","","SRET","EW_formal","","key","f","16.6504273504274","768","428","自己","无敌","Positive","ability","","","","","","","","","","",""
"942","","j","psychophysics","95","235998","0.0-7.0-3.0-0.81","7","7","7","7","6","5","5","5","5","5","5","2","1","2","2","2","2","2","2","5","5","5","5","5","4","4","5","4","4","7","8","7","7","8","6","8","9","8","7","7","7","7","7","6","7","1","7","7","1","6","7","7","7","7","7","7","7","6","7","7","7","7","7","7","7","7","7","7","7","7","6","7","7","7","7","7","7","7","7","633748719031812096","张","193","Male","[""好我"",""坏我"",""坏他"",""好他""]","[""强我"",""弱我"",""弱他"",""强他""]","","","","","","","","yes","","","","","","","","","SRET","EW_formal","","key","j","16.650862068965516","768","428","朋友","果决","Positive","ability","","","","","","","","","","",""
"1424","","f","psychophysics","96","238423","0.0-7.0-3.0-0.82","7","7","7","7","6","5","5","5","5","5","5","2","1","2","2","2","2","2","2","5","5","5","5","5","4","4","5","4","4","7","8","7","7","8","6","8","9","8","7","7","7","7","7","6","7","1","7","7","1","6","7","7","7","7","7","7","7","6","7","7","7","7","7","7","7","7","7","7","7","7","6","7","7","7","7","7","7","7","7","633748719031812096","张","193","Male","[""好我"",""坏我"",""坏他"",""好他""]","[""强我"",""弱我"",""弱他"",""强他""]","","","","","","","","no","","","","","","","","","SRET","EW_formal","","key","f","16.650694444444323","768","428","朋友","虚假","Negative","morality","","","","","","","","","","",""
"1437","","f","psychophysics","97","240862","0.0-7.0-3.0-0.83","7","7","7","7","6","5","5","5","5","5","5","2","1","2","2","2","2","2","2","5","5","5","5","5","4","4","5","4","4","7","8","7","7","8","6","8","9","8","7","7","7","7","7","6","7","1","7","7","1","6","7","7","7","7","7","7","7","6","7","7","7","7","7","7","7","7","7","7","7","7","6","7","7","7","7","7","7","7","7","633748719031812096","张","193","Male","[""好我"",""坏我"",""坏他"",""好他""]","[""强我"",""弱我"",""弱他"",""强他""]","","","","","","","","no","","","","","","","","","SRET","EW_formal","","key","f","16.651369863013738","768","428","自己","庸碌","Negative","ability","","","","","","","","","","",""
"743","","f","psychophysics","98","242606","0.0-7.0-3.0-0.84","7","7","7","7","6","5","5","5","5","5","5","2","1","2","2","2","2","2","2","5","5","5","5","5","4","4","5","4","4","7","8","7","7","8","6","8","9","8","7","7","7","7","7","6","7","1","7","7","1","6","7","7","7","7","7","7","7","6","7","7","7","7","7","7","7","7","7","7","7","7","6","7","7","7","7","7","7","7","7","633748719031812096","张","193","Male","[""好我"",""坏我"",""坏他"",""好他""]","[""强我"",""弱我"",""弱他"",""强他""]","","","","","","","","no","","","","","","","","","SRET","EW_formal","","key","f","16.65096153846165","768","428","朋友","低俗","Negative","morality","","","","","","","","","","",""
"1262","","f","psychophysics","99","244870","0.0-7.0-3.0-0.85","7","7","7","7","6","5","5","5","5","5","5","2","1","2","2","2","2","2","2","5","5","5","5","5","4","4","5","4","4","7","8","7","7","8","6","8","9","8","7","7","7","7","7","6","7","1","7","7","1","6","7","7","7","7","7","7","7","6","7","7","7","7","7","7","7","7","7","7","7","7","6","7","7","7","7","7","7","7","7","633748719031812096","张","193","Male","[""好我"",""坏我"",""坏他"",""好他""]","[""强我"",""弱我"",""弱他"",""强他""]","","","","","","","","no","","","","","","","","","SRET","EW_formal","","key","f","16.651492537313345","768","428","自己","缓慢","Negative","ability","","","","","","","","","","",""
"657","","j","psychophysics","100","246527","0.0-7.0-3.0-0.86","7","7","7","7","6","5","5","5","5","5","5","2","1","2","2","2","2","2","2","5","5","5","5","5","4","4","5","4","4","7","8","7","7","8","6","8","9","8","7","7","7","7","7","6","7","1","7","7","1","6","7","7","7","7","7","7","7","6","7","7","7","7","7","7","7","7","7","7","7","7","6","7","7","7","7","7","7","7","7","633748719031812096","张","193","Male","[""好我"",""坏我"",""坏他"",""好他""]","[""强我"",""弱我"",""弱他"",""强他""]","","","","","","","","yes","","","","","","","","","SRET","EW_formal","","key","j","16.651515151515152","768","428","自己","主见","Positive","ability","","","","","","","","","","",""
"623","","j","psychophysics","101","248152","0.0-7.0-3.0-0.87","7","7","7","7","6","5","5","5","5","5","5","2","1","2","2","2","2","2","2","5","5","5","5","5","4","4","5","4","4","7","8","7","7","8","6","8","9","8","7","7","7","7","7","6","7","1","7","7","1","6","7","7","7","7","7","7","7","6","7","7","7","7","7","7","7","7","7","7","7","7","6","7","7","7","7","7","7","7","7","633748719031812096","张","193","Male","[""好我"",""坏我"",""坏他"",""好他""]","[""强我"",""弱我"",""弱他"",""强他""]","","","","","","","","yes","","","","","","","","","SRET","EW_formal","","key","j","16.649484536082475","768","428","朋友","素养","Positive","morality","","","","","","","","","","",""
"4285","
    <p><div style='color:white;font-size:35px; line-height:20px;'>计算任务</div></p><br>
    <p><div style='color:red;font-size:25px; line-height:20px;'>接下来，您将看到一些四则运算题，<b>请从键盘选择 0-9 进行反应。</b></div></p>
    <p><div style='color:red;font-size:25px; line-height:20px;'>请尽可能快地进行计算，计算的速度和正确率将影响报酬的发放。</div></p>
    <p><div class='footer' style='color:white;font-size:25px; line-height:20px;'>如果对本实验还有不清楚之处，请立即向实验员咨询。</p><p style='color:white;font-size:25px; line-height:20px;'>如果您明白了规则：</p><p style='color:white;font-size:22px; line-height:20px;'>请按 继续 进入练习</p>
    </div>
    ","0","html-button-response","102","252438","0.0-7.0-4.0","7","7","7","7","6","5","5","5","5","5","5","2","1","2","2","2","2","2","2","5","5","5","5","5","4","4","5","4","4","7","8","7","7","8","6","8","9","8","7","7","7","7","7","6","7","1","7","7","1","6","7","7","7","7","7","7","7","6","7","7","7","7","7","7","7","7","7","7","7","7","6","7","7","7","7","7","7","7","7","633748719031812096","张","193","Male","[""好我"",""坏我"",""坏他"",""好他""]","[""强我"",""弱我"",""弱他"",""强他""]","","","","","","","","","","","","","","","","","SRET_math","math_instructions","Wed Jan 10 2024 20:04:27 GMT+0800 (中国标准时间)","","","","","","","","","","","","","","","","","","","",""
"1749","","4","psychophysics","103","254190","0.0-7.0-5.0-0.0","7","7","7","7","6","5","5","5","5","5","5","2","1","2","2","2","2","2","2","5","5","5","5","5","4","4","5","4","4","7","8","7","7","8","6","8","9","8","7","7","7","7","7","6","7","1","7","7","1","6","7","7","7","7","7","7","7","6","7","7","7","7","7","7","7","7","7","7","7","7","6","7","7","7","7","7","7","7","7","633748719031812096","张","193","Male","[""好我"",""坏我"",""坏他"",""好他""]","[""强我"",""弱我"",""弱他"",""强他""]","","","","","","","","4","","","","","","","","","SRET","SRET_math_calculate","","key","4","16.648571428571483","768","428","","","","","20/5= ?","4","1","","","","","","","",""
"1919","","0","psychophysics","104","256110","0.0-7.0-5.0-0.1","7","7","7","7","6","5","5","5","5","5","5","2","1","2","2","2","2","2","2","5","5","5","5","5","4","4","5","4","4","7","8","7","7","8","6","8","9","8","7","7","7","7","7","6","7","1","7","7","1","6","7","7","7","7","7","7","7","6","7","7","7","7","7","7","7","7","7","7","7","7","6","7","7","7","7","7","7","7","7","633748719031812096","张","193","Male","[""好我"",""坏我"",""坏他"",""好他""]","[""强我"",""弱我"",""弱他"",""强他""]","","","","","","","","0","","","","","","","","","SRET","SRET_math_calculate","","key","0","16.650877192982303","768","428","","","","","22-22= ?","0","1","","","","","","","",""
"1734","","2","psychophysics","105","257846","0.0-7.0-5.0-0.2","7","7","7","7","6","5","5","5","5","5","5","2","1","2","2","2","2","2","2","5","5","5","5","5","4","4","5","4","4","7","8","7","7","8","6","8","9","8","7","7","7","7","7","6","7","1","7","7","1","6","7","7","7","7","7","7","7","6","7","7","7","7","7","7","7","7","7","7","7","7","6","7","7","7","7","7","7","7","7","633748719031812096","张","193","Male","[""好我"",""坏我"",""坏他"",""好他""]","[""强我"",""弱我"",""弱他"",""强他""]","","","","","","","","2","","","","","","","","","SRET","SRET_math_calculate","","key","2","16.651923076922966","768","428","","","","","5-3= ?","2","1","","","","","","","",""
"1727","","7","psychophysics","106","259574","0.0-7.0-5.0-0.3","7","7","7","7","6","5","5","5","5","5","5","2","1","2","2","2","2","2","2","5","5","5","5","5","4","4","5","4","4","7","8","7","7","8","6","8","9","8","7","7","7","7","7","6","7","1","7","7","1","6","7","7","7","7","7","7","7","6","7","7","7","7","7","7","7","7","7","7","7","7","6","7","7","7","7","7","7","7","7","633748719031812096","张","193","Male","[""好我"",""坏我"",""坏他"",""好他""]","[""强我"",""弱我"",""弱他"",""强他""]","","","","","","","","7","","","","","","","","","SRET","SRET_math_calculate","","key","7","16.651456310679666","768","428","","","","","2+5= ?","7","1","","","","","","","",""
"1743","","1","psychophysics","107","261318","0.0-7.0-5.0-0.4","7","7","7","7","6","5","5","5","5","5","5","2","1","2","2","2","2","2","2","5","5","5","5","5","4","4","5","4","4","7","8","7","7","8","6","8","9","8","7","7","7","7","7","6","7","1","7","7","1","6","7","7","7","7","7","7","7","6","7","7","7","7","7","7","7","7","7","7","7","7","6","7","7","7","7","7","7","7","7","633748719031812096","张","193","Male","[""好我"",""坏我"",""坏他"",""好他""]","[""强我"",""弱我"",""弱他"",""强他""]","","","","","","","","1","","","","","","","","","SRET","SRET_math_calculate","","key","1","16.649514563106738","768","428","","","","","9-8= ?","1","1","","","","","","","",""
"1880","","9","psychophysics","108","263199","0.0-7.0-5.0-0.5","7","7","7","7","6","5","5","5","5","5","5","2","1","2","2","2","2","2","2","5","5","5","5","5","4","4","5","4","4","7","8","7","7","8","6","8","9","8","7","7","7","7","7","6","7","1","7","7","1","6","7","7","7","7","7","7","7","6","7","7","7","7","7","7","7","7","7","7","7","7","6","7","7","7","7","7","7","7","7","633748719031812096","张","193","Male","[""好我"",""坏我"",""坏他"",""好他""]","[""强我"",""弱我"",""弱他"",""强他""]","","","","","","","","9","","","","","","","","","SRET","SRET_math_calculate","","key","9","16.650892857142544","768","428","","","","","4+5= ?","9","1","","","","","","","",""
"1767","","6","psychophysics","109","264967","0.0-7.0-5.0-0.6","7","7","7","7","6","5","5","5","5","5","5","2","1","2","2","2","2","2","2","5","5","5","5","5","4","4","5","4","4","7","8","7","7","8","6","8","9","8","7","7","7","7","7","6","7","1","7","7","1","6","7","7","7","7","7","7","7","6","7","7","7","7","7","7","7","7","7","7","7","7","6","7","7","7","7","7","7","7","7","633748719031812096","张","193","Male","[""好我"",""坏我"",""坏他"",""好他""]","[""强我"",""弱我"",""弱他"",""强他""]","","","","","","","","6","","","","","","","","","SRET","SRET_math_calculate","","key","6","16.652380952380952","768","428","","","","","3*2= ?","6","1","","","","","","","",""
"1774","","0","psychophysics","110","266742","0.0-7.0-5.0-0.7","7","7","7","7","6","5","5","5","5","5","5","2","1","2","2","2","2","2","2","5","5","5","5","5","4","4","5","4","4","7","8","7","7","8","6","8","9","8","7","7","7","7","7","6","7","1","7","7","1","6","7","7","7","7","7","7","7","6","7","7","7","7","7","7","7","7","7","7","7","7","6","7","7","7","7","7","7","7","7","633748719031812096","张","193","Male","[""好我"",""坏我"",""坏他"",""好他""]","[""强我"",""弱我"",""弱他"",""强他""]","","","","","","","","0","","","","","","","","","SRET","SRET_math_calculate","","key","0","16.650943396226417","768","428","","","","","9-9= ?","0","1","","","","","","","",""
"1871","","8","psychophysics","111","268614","0.0-7.0-5.0-0.8","7","7","7","7","6","5","5","5","5","5","5","2","1","2","2","2","2","2","2","5","5","5","5","5","4","4","5","4","4","7","8","7","7","8","6","8","9","8","7","7","7","7","7","6","7","1","7","7","1","6","7","7","7","7","7","7","7","6","7","7","7","7","7","7","7","7","7","7","7","7","6","7","7","7","7","7","7","7","7","633748719031812096","张","193","Male","[""好我"",""坏我"",""坏他"",""好他""]","[""强我"",""弱我"",""弱他"",""强他""]","","","","","","","","8","","","","","","","","","SRET","SRET_math_calculate","","key","8","16.650450450450556","768","428","","","","","4*2= ?","8","1","","","","","","","",""
"1848","","3","psychophysics","112","270462","0.0-7.0-5.0-0.9","7","7","7","7","6","5","5","5","5","5","5","2","1","2","2","2","2","2","2","5","5","5","5","5","4","4","5","4","4","7","8","7","7","8","6","8","9","8","7","7","7","7","7","6","7","1","7","7","1","6","7","7","7","7","7","7","7","6","7","7","7","7","7","7","7","7","7","7","7","7","6","7","7","7","7","7","7","7","7","633748719031812096","张","193","Male","[""好我"",""坏我"",""坏他"",""好他""]","[""强我"",""弱我"",""弱他"",""强他""]","","","","","","","","3","","","","","","","","","SRET","SRET_math_calculate","","key","3","16.65090909090941","768","428","","","","","8-5= ?","3","1","","","","","","","",""
"1695","","8","psychophysics","113","272158","0.0-7.0-5.0-0.10","7","7","7","7","6","5","5","5","5","5","5","2","1","2","2","2","2","2","2","5","5","5","5","5","4","4","5","4","4","7","8","7","7","8","6","8","9","8","7","7","7","7","7","6","7","1","7","7","1","6","7","7","7","7","7","7","7","6","7","7","7","7","7","7","7","7","7","7","7","7","6","7","7","7","7","7","7","7","7","633748719031812096","张","193","Male","[""好我"",""坏我"",""坏他"",""好他""]","[""强我"",""弱我"",""弱他"",""强他""]","","","","","","","","8","","","","","","","","","SRET","SRET_math_calculate","","key","8","16.651485148514737","768","428","","","","","4+4= ?","8","1","","","","","","","",""
"1711","","9","psychophysics","114","273870","0.0-7.0-5.0-0.11","7","7","7","7","6","5","5","5","5","5","5","2","1","2","2","2","2","2","2","5","5","5","5","5","4","4","5","4","4","7","8","7","7","8","6","8","9","8","7","7","7","7","7","6","7","1","7","7","1","6","7","7","7","7","7","7","7","6","7","7","7","7","7","7","7","7","7","7","7","7","6","7","7","7","7","7","7","7","7","633748719031812096","张","193","Male","[""好我"",""坏我"",""坏他"",""好他""]","[""强我"",""弱我"",""弱他"",""强他""]","","","","","","","","9","","","","","","","","","SRET","SRET_math_calculate","","key","9","16.65098039215709","768","428","","","","","6+3= ?","9","1","","","","","","","",""
"1687","","9","psychophysics","115","275558","0.0-7.0-5.0-0.12","7","7","7","7","6","5","5","5","5","5","5","2","1","2","2","2","2","2","2","5","5","5","5","5","4","4","5","4","4","7","8","7","7","8","6","8","9","8","7","7","7","7","7","6","7","1","7","7","1","6","7","7","7","7","7","7","7","6","7","7","7","7","7","7","7","7","7","7","7","7","6","7","7","7","7","7","7","7","7","633748719031812096","张","193","Male","[""好我"",""坏我"",""坏他"",""好他""]","[""强我"",""弱我"",""弱他"",""强他""]","","","","","","","","9","","","","","","","","","SRET","SRET_math_calculate","","key","9","16.652999999999885","768","428","","","","","81/9= ?","9","1","","","","","","","",""
"1726","","7","psychophysics","116","277286","0.0-7.0-5.0-0.13","7","7","7","7","6","5","5","5","5","5","5","2","1","2","2","2","2","2","2","5","5","5","5","5","4","4","5","4","4","7","8","7","7","8","6","8","9","8","7","7","7","7","7","6","7","1","7","7","1","6","7","7","7","7","7","7","7","6","7","7","7","7","7","7","7","7","7","7","7","7","6","7","7","7","7","7","7","7","7","633748719031812096","张","193","Male","[""好我"",""坏我"",""坏他"",""好他""]","[""强我"",""弱我"",""弱他"",""强他""]","","","","","","","","7","","","","","","","","","SRET","SRET_math_calculate","","key","7","16.650485436893202","768","428","","","","","5+2= ?","7","1","","","","","","","",""
"1887","","2","psychophysics","117","279173","0.0-7.0-5.0-0.14","7","7","7","7","6","5","5","5","5","5","5","2","1","2","2","2","2","2","2","5","5","5","5","5","4","4","5","4","4","7","8","7","7","8","6","8","9","8","7","7","7","7","7","6","7","1","7","7","1","6","7","7","7","7","7","7","7","6","7","7","7","7","7","7","7","7","7","7","7","7","6","7","7","7","7","7","7","7","7","633748719031812096","张","193","Male","[""好我"",""坏我"",""坏他"",""好他""]","[""强我"",""弱我"",""弱他"",""强他""]","","","","","","","","2","","","","","","","","","SRET","SRET_math_calculate","","key","2","16.65132743362811","768","428","","","","","1+1= ?","2","1","","","","","","","",""
"1751","","8","psychophysics","118","280926","0.0-7.0-5.0-0.15","7","7","7","7","6","5","5","5","5","5","5","2","1","2","2","2","2","2","2","5","5","5","5","5","4","4","5","4","4","7","8","7","7","8","6","8","9","8","7","7","7","7","7","6","7","1","7","7","1","6","7","7","7","7","7","7","7","6","7","7","7","7","7","7","7","7","7","7","7","7","6","7","7","7","7","7","7","7","7","633748719031812096","张","193","Male","[""好我"",""坏我"",""坏他"",""好他""]","[""强我"",""弱我"",""弱他"",""强他""]","","","","","","","","8","","","","","","","","","SRET","SRET_math_calculate","","key","8","16.649999999999775","768","428","","","","","2+6= ?","8","1","","","","","","","",""
"1879","","3","psychophysics","119","282806","0.0-7.0-5.0-0.16","7","7","7","7","6","5","5","5","5","5","5","2","1","2","2","2","2","2","2","5","5","5","5","5","4","4","5","4","4","7","8","7","7","8","6","8","9","8","7","7","7","7","7","6","7","1","7","7","1","6","7","7","7","7","7","7","7","6","7","7","7","7","7","7","7","7","7","7","7","7","6","7","7","7","7","7","7","7","7","633748719031812096","张","193","Male","[""好我"",""坏我"",""坏他"",""好他""]","[""强我"",""弱我"",""弱他"",""强他""]","","","","","","","","3","","","","","","","","","SRET","SRET_math_calculate","","key","3","16.649999999999896","768","428","","","","","6/2= ?","3","1","","","","","","","",""
"1752","","9","psychophysics","120","284559","0.0-7.0-5.0-0.17","7","7","7","7","6","5","5","5","5","5","5","2","1","2","2","2","2","2","2","5","5","5","5","5","4","4","5","4","4","7","8","7","7","8","6","8","9","8","7","7","7","7","7","6","7","1","7","7","1","6","7","7","7","7","7","7","7","6","7","7","7","7","7","7","7","7","7","7","7","7","6","7","7","7","7","7","7","7","7","633748719031812096","张","193","Male","[""好我"",""坏我"",""坏他"",""好他""]","[""强我"",""弱我"",""弱他"",""强他""]","","","","","","","","9","","","","","","","","","SRET","SRET_math_calculate","","key","9","16.649999999999775","768","428","","","","","3+6= ?","9","1","","","","","","","",""
"1710","","3","psychophysics","121","286270","0.0-7.0-5.0-0.18","7","7","7","7","6","5","5","5","5","5","5","2","1","2","2","2","2","2","2","5","5","5","5","5","4","4","5","4","4","7","8","7","7","8","6","8","9","8","7","7","7","7","7","6","7","1","7","7","1","6","7","7","7","7","7","7","7","6","7","7","7","7","7","7","7","7","7","7","7","7","6","7","7","7","7","7","7","7","7","633748719031812096","张","193","Male","[""好我"",""坏我"",""坏他"",""好他""]","[""强我"",""弱我"",""弱他"",""强他""]","","","","","","","","3","","","","","","","","","SRET","SRET_math_calculate","","key","3","16.65098039215709","768","428","","","","","11-8= ?","3","1","","","","","","","",""
"1735","","8","psychophysics","122","288006","0.0-7.0-5.0-0.19","7","7","7","7","6","5","5","5","5","5","5","2","1","2","2","2","2","2","2","5","5","5","5","5","4","4","5","4","4","7","8","7","7","8","6","8","9","8","7","7","7","7","7","6","7","1","7","7","1","6","7","7","7","7","7","7","7","6","7","7","7","7","7","7","7","7","7","7","7","7","6","7","7","7","7","7","7","7","7","633748719031812096","张","193","Male","[""好我"",""坏我"",""坏他"",""好他""]","[""强我"",""弱我"",""弱他"",""强他""]","","","","","","","","8","","","","","","","","","SRET","SRET_math_calculate","","key","8","16.65242718446613","768","428","","","","","13-5= ?","8","1","","","","","","","",""
"2440","","9","psychophysics","123","290446","0.0-7.0-5.0-0.20","7","7","7","7","6","5","5","5","5","5","5","2","1","2","2","2","2","2","2","5","5","5","5","5","4","4","5","4","4","7","8","7","7","8","6","8","9","8","7","7","7","7","7","6","7","1","7","7","1","6","7","7","7","7","7","7","7","6","7","7","7","7","7","7","7","7","7","7","7","7","6","7","7","7","7","7","7","7","7","633748719031812096","张","193","Male","[""好我"",""坏我"",""坏他"",""好他""]","[""强我"",""弱我"",""弱他"",""强他""]","","","","","","","","9","","","","","","","","","SRET","SRET_math_calculate","","key","9","16.65068493150685","768","428","","","","","32-23= ?","9","1","","","","","","","",""
"1854","","1","psychophysics","124","292302","0.0-7.0-5.0-0.21","7","7","7","7","6","5","5","5","5","5","5","2","1","2","2","2","2","2","2","5","5","5","5","5","4","4","5","4","4","7","8","7","7","8","6","8","9","8","7","7","7","7","7","6","7","1","7","7","1","6","7","7","7","7","7","7","7","6","7","7","7","7","7","7","7","7","7","7","7","7","6","7","7","7","7","7","7","7","7","633748719031812096","张","193","Male","[""好我"",""坏我"",""坏他"",""好他""]","[""强我"",""弱我"",""弱他"",""强他""]","","","","","","","","1","","","","","","","","","SRET","SRET_math_calculate","","key","1","16.65090909090888","768","428","","","","","4/4= ?","1","1","","","","","","","",""
"1951","","5","psychophysics","125","294254","0.0-7.0-5.0-0.22","7","7","7","7","6","5","5","5","5","5","5","2","1","2","2","2","2","2","2","5","5","5","5","5","4","4","5","4","4","7","8","7","7","8","6","8","9","8","7","7","7","7","7","6","7","1","7","7","1","6","7","7","7","7","7","7","7","6","7","7","7","7","7","7","7","7","7","7","7","7","6","7","7","7","7","7","7","7","7","633748719031812096","张","193","Male","[""好我"",""坏我"",""坏他"",""好他""]","[""强我"",""弱我"",""弱他"",""强他""]","","","","","","","","5","","","","","","","","","SRET","SRET_math_calculate","","key","5","16.651724137930835","768","428","","","","","12-7= ?","5","1","","","","","","","",""
"1687","","6","psychophysics","126","295942","0.0-7.0-5.0-0.23","7","7","7","7","6","5","5","5","5","5","5","2","1","2","2","2","2","2","2","5","5","5","5","5","4","4","5","4","4","7","8","7","7","8","6","8","9","8","7","7","7","7","7","6","7","1","7","7","1","6","7","7","7","7","7","7","7","6","7","7","7","7","7","7","7","7","7","7","7","7","6","7","7","7","7","7","7","7","7","633748719031812096","张","193","Male","[""好我"",""坏我"",""坏他"",""好他""]","[""强我"",""弱我"",""弱他"",""强他""]","","","","","","","","6","","","","","","","","","SRET","SRET_math_calculate","","key","6","16.651485148514737","768","428","","","","","11-5= ?","6","1","","","","","","","",""
"1759","","7","psychophysics","127","297702","0.0-7.0-5.0-0.24","7","7","7","7","6","5","5","5","5","5","5","2","1","2","2","2","2","2","2","5","5","5","5","5","4","4","5","4","4","7","8","7","7","8","6","8","9","8","7","7","7","7","7","6","7","1","7","7","1","6","7","7","7","7","7","7","7","6","7","7","7","7","7","7","7","7","7","7","7","7","6","7","7","7","7","7","7","7","7","633748719031812096","张","193","Male","[""好我"",""坏我"",""坏他"",""好他""]","[""强我"",""弱我"",""弱他"",""强他""]","","","","","","","","7","","","","","","","","","SRET","SRET_math_calculate","","key","7","16.651923076922966","768","428","","","","","6+1= ?","7","1","","","","","","","",""
"1815","","0","psychophysics","128","299517","0.0-7.0-5.0-0.25","7","7","7","7","6","5","5","5","5","5","5","2","1","2","2","2","2","2","2","5","5","5","5","5","4","4","5","4","4","7","8","7","7","8","6","8","9","8","7","7","7","7","7","6","7","1","7","7","1","6","7","7","7","7","7","7","7","6","7","7","7","7","7","7","7","7","7","7","7","7","6","7","7","7","7","7","7","7","7","633748719031812096","张","193","Male","[""好我"",""坏我"",""坏他"",""好他""]","[""强我"",""弱我"",""弱他"",""强他""]","","","","","","","","0","","","","","","","","","SRET","SRET_math_calculate","","key","0","16.65000000000011","768","428","","","","","5*0= ?","0","1","","","","","","","",""
"2359","","8","psychophysics","129","301877","0.0-7.0-5.0-0.26","7","7","7","7","6","5","5","5","5","5","5","2","1","2","2","2","2","2","2","5","5","5","5","5","4","4","5","4","4","7","8","7","7","8","6","8","9","8","7","7","7","7","7","6","7","1","7","7","1","6","7","7","7","7","7","7","7","6","7","7","7","7","7","7","7","7","7","7","7","7","6","7","7","7","7","7","7","7","7","633748719031812096","张","193","Male","[""好我"",""坏我"",""坏他"",""好他""]","[""强我"",""弱我"",""弱他"",""强他""]","","","","","","","","8","","","","","","","","","SRET","SRET_math_calculate","","key","8","16.651773049645556","768","428","","","","","56/7= ?","8","1","","","","","","","",""
"1840","","6","psychophysics","130","303719","0.0-7.0-5.0-0.27","7","7","7","7","6","5","5","5","5","5","5","2","1","2","2","2","2","2","2","5","5","5","5","5","4","4","5","4","4","7","8","7","7","8","6","8","9","8","7","7","7","7","7","6","7","1","7","7","1","6","7","7","7","7","7","7","7","6","7","7","7","7","7","7","7","7","7","7","7","7","6","7","7","7","7","7","7","7","7","633748719031812096","张","193","Male","[""好我"",""坏我"",""坏他"",""好他""]","[""强我"",""弱我"",""弱他"",""强他""]","","","","","","","","6","","","","","","","","","SRET","SRET_math_calculate","","key","6","16.65181818181829","768","428","","","","","2*3= ?","6","1","","","","","","","",""
"1910","","9","psychophysics","131","305630","0.0-7.0-5.0-0.28","7","7","7","7","6","5","5","5","5","5","5","2","1","2","2","2","2","2","2","5","5","5","5","5","4","4","5","4","4","7","8","7","7","8","6","8","9","8","7","7","7","7","7","6","7","1","7","7","1","6","7","7","7","7","7","7","7","6","7","7","7","7","7","7","7","7","7","7","7","7","6","7","7","7","7","7","7","7","7","633748719031812096","张","193","Male","[""好我"",""坏我"",""坏他"",""好他""]","[""强我"",""弱我"",""弱他"",""强他""]","","","","","","","","9","","","","","","","","","SRET","SRET_math_calculate","","key","9","16.652212389380118","768","428","","","","","3*3= ?","9","1","","","","","","","",""
"1749","","4","psychophysics","132","307382","0.0-7.0-5.0-0.29","7","7","7","7","6","5","5","5","5","5","5","2","1","2","2","2","2","2","2","5","5","5","5","5","4","4","5","4","4","7","8","7","7","8","6","8","9","8","7","7","7","7","7","6","7","1","7","7","1","6","7","7","7","7","7","7","7","6","7","7","7","7","7","7","7","7","7","7","7","7","6","7","7","7","7","7","7","7","7","633748719031812096","张","193","Male","[""好我"",""坏我"",""坏他"",""好他""]","[""强我"",""弱我"",""弱他"",""强他""]","","","","","","","","4","","","","","","","","","SRET","SRET_math_calculate","","key","4","16.65142857142879","768","428","","","","","2+2= ?","4","1","","","","","","","",""
"1743","","8","psychophysics","133","309126","0.0-7.0-5.0-0.30","7","7","7","7","6","5","5","5","5","5","5","2","1","2","2","2","2","2","2","5","5","5","5","5","4","4","5","4","4","7","8","7","7","8","6","8","9","8","7","7","7","7","7","6","7","1","7","7","1","6","7","7","7","7","7","7","7","6","7","7","7","7","7","7","7","7","7","7","7","7","6","7","7","7","7","7","7","7","7","633748719031812096","张","193","Male","[""好我"",""坏我"",""坏他"",""好他""]","[""强我"",""弱我"",""弱他"",""强他""]","","","","","","","","8","","","","","","","","","SRET","SRET_math_calculate","","key","8","16.65339805825288","768","428","","","","","8*1= ?","8","1","","","","","","","",""
"1903","","2","psychophysics","134","311030","0.0-7.0-5.0-0.31","7","7","7","7","6","5","5","5","5","5","5","2","1","2","2","2","2","2","2","5","5","5","5","5","4","4","5","4","4","7","8","7","7","8","6","8","9","8","7","7","7","7","7","6","7","1","7","7","1","6","7","7","7","7","7","7","7","6","7","7","7","7","7","7","7","7","7","7","7","7","6","7","7","7","7","7","7","7","7","633748719031812096","张","193","Male","[""好我"",""坏我"",""坏他"",""好他""]","[""强我"",""弱我"",""弱他"",""强他""]","","","","","","","","2","","","","","","","","","SRET","SRET_math_calculate","","key","2","16.65175438596481","768","428","","","","","29-27= ?","2","1","","","","","","","",""
"2375","","7","psychophysics","135","313405","0.0-7.0-5.0-0.32","7","7","7","7","6","5","5","5","5","5","5","2","1","2","2","2","2","2","2","5","5","5","5","5","4","4","5","4","4","7","8","7","7","8","6","8","9","8","7","7","7","7","7","6","7","1","7","7","1","6","7","7","7","7","7","7","7","6","7","7","7","7","7","7","7","7","7","7","7","7","6","7","7","7","7","7","7","7","7","633748719031812096","张","193","Male","[""好我"",""坏我"",""坏他"",""好他""]","[""强我"",""弱我"",""弱他"",""强他""]","","","","","","","","7","","","","","","","","","SRET","SRET_math_calculate","","key","7","16.65106382978715","768","428","","","","","13-6= ?","7","1","","","","","","","",""
"1927","","3","psychophysics","136","315334","0.0-7.0-5.0-0.33","7","7","7","7","6","5","5","5","5","5","5","2","1","2","2","2","2","2","2","5","5","5","5","5","4","4","5","4","4","7","8","7","7","8","6","8","9","8","7","7","7","7","7","6","7","1","7","7","1","6","7","7","7","7","7","7","7","6","7","7","7","7","7","7","7","7","7","7","7","7","6","7","7","7","7","7","7","7","7","633748719031812096","张","193","Male","[""好我"",""坏我"",""坏他"",""好他""]","[""强我"",""弱我"",""弱他"",""强他""]","","","","","","","","3","","","","","","","","","SRET","SRET_math_calculate","","key","3","16.652173913043477","768","428","","","","","9/3= ?","3","1","","","","","","","",""
"1816","","5","psychophysics","137","317151","0.0-7.0-5.0-0.34","7","7","7","7","6","5","5","5","5","5","5","2","1","2","2","2","2","2","2","5","5","5","5","5","4","4","5","4","4","7","8","7","7","8","6","8","9","8","7","7","7","7","7","6","7","1","7","7","1","6","7","7","7","7","7","7","7","6","7","7","7","7","7","7","7","7","7","7","7","7","6","7","7","7","7","7","7","7","7","633748719031812096","张","193","Male","[""好我"",""坏我"",""坏他"",""好他""]","[""强我"",""弱我"",""弱他"",""强他""]","","","","","","","","5","","","","","","","","","SRET","SRET_math_calculate","","key","5","16.65277777777778","768","428","","","","","17-12= ? ","5","1","","","","","","","",""
"1855","","2","psychophysics","138","319006","0.0-7.0-5.0-0.35","7","7","7","7","6","5","5","5","5","5","5","2","1","2","2","2","2","2","2","5","5","5","5","5","4","4","5","4","4","7","8","7","7","8","6","8","9","8","7","7","7","7","7","6","7","1","7","7","1","6","7","7","7","7","7","7","7","6","7","7","7","7","7","7","7","7","7","7","7","7","6","7","7","7","7","7","7","7","7","633748719031812096","张","193","Male","[""好我"",""坏我"",""坏他"",""好他""]","[""强我"",""弱我"",""弱他"",""强他""]","","","","","","","","2","","","","","","","","","SRET","SRET_math_calculate","","key","2","16.652252252252463","768","428","","","","","22/11= ?","2","1","","","","","","","",""
"2479","","7","psychophysics","139","321486","0.0-7.0-5.0-0.36","7","7","7","7","6","5","5","5","5","5","5","2","1","2","2","2","2","2","2","5","5","5","5","5","4","4","5","4","4","7","8","7","7","8","6","8","9","8","7","7","7","7","7","6","7","1","7","7","1","6","7","7","7","7","7","7","7","6","7","7","7","7","7","7","7","7","7","7","7","7","6","7","7","7","7","7","7","7","7","633748719031812096","张","193","Male","[""好我"",""坏我"",""坏他"",""好他""]","[""强我"",""弱我"",""弱他"",""强他""]","","","","","","","","7","","","","","","","","","SRET","SRET_math_calculate","","key","7","16.650675675675597","768","428","","","","","11-4= ?","7","1","","","","","","","",""
"2023","","7","psychophysics","140","323510","0.0-7.0-5.0-0.37","7","7","7","7","6","5","5","5","5","5","5","2","1","2","2","2","2","2","2","5","5","5","5","5","4","4","5","4","4","7","8","7","7","8","6","8","9","8","7","7","7","7","7","6","7","1","7","7","1","6","7","7","7","7","7","7","7","6","7","7","7","7","7","7","7","7","7","7","7","7","6","7","7","7","7","7","7","7","7","633748719031812096","张","193","Male","[""好我"",""坏我"",""坏他"",""好他""]","[""强我"",""弱我"",""弱他"",""强他""]","","","","","","","","7","","","","","","","","","SRET","SRET_math_calculate","","key","7","16.65333333333304","768","428","","","","","49/7 = ?","7","1","","","","","","","",""
"1695","","5","psychophysics","141","325206","0.0-7.0-5.0-0.38","7","7","7","7","6","5","5","5","5","5","5","2","1","2","2","2","2","2","2","5","5","5","5","5","4","4","5","4","4","7","8","7","7","8","6","8","9","8","7","7","7","7","7","6","7","1","7","7","1","6","7","7","7","7","7","7","7","6","7","7","7","7","7","7","7","7","7","7","7","7","6","7","7","7","7","7","7","7","7","633748719031812096","张","193","Male","[""好我"",""坏我"",""坏他"",""好他""]","[""强我"",""弱我"",""弱他"",""强他""]","","","","","","","","5","","","","","","","","","SRET","SRET_math_calculate","","key","5","16.653465346534652","768","428","","","","","10-5= ?","5","1","","","","","","","",""
"1841","","6","psychophysics","142","327047","0.0-7.0-5.0-0.39","7","7","7","7","6","5","5","5","5","5","5","2","1","2","2","2","2","2","2","5","5","5","5","5","4","4","5","4","4","7","8","7","7","8","6","8","9","8","7","7","7","7","7","6","7","1","7","7","1","6","7","7","7","7","7","7","7","6","7","7","7","7","7","7","7","7","7","7","7","7","6","7","7","7","7","7","7","7","7","633748719031812096","张","193","Male","[""好我"",""坏我"",""坏他"",""好他""]","[""强我"",""弱我"",""弱他"",""强他""]","","","","","","","","6","","","","","","","","","SRET","SRET_math_calculate","","key","6","16.65181818181829","768","428","","","","","8-2= ?","6","1","","","","","","","",""
"1877","","2","psychophysics","143","328926","0.0-7.0-5.0-0.40","7","7","7","7","6","5","5","5","5","5","5","2","1","2","2","2","2","2","2","5","5","5","5","5","4","4","5","4","4","7","8","7","7","8","6","8","9","8","7","7","7","7","7","6","7","1","7","7","1","6","7","7","7","7","7","7","7","6","7","7","7","7","7","7","7","7","7","7","7","7","6","7","7","7","7","7","7","7","7","633748719031812096","张","193","Male","[""好我"",""坏我"",""坏他"",""好他""]","[""强我"",""弱我"",""弱他"",""强他""]","","","","","","","","2","","","","","","","","","SRET","SRET_math_calculate","","key","2","16.651785714285715","768","428","","","","","9-7= ?","2","1","","","","","","","",""
