"rt","stimulus","response","trial_type","trial_index","time_elapsed","internal_node_id","swb_1","swb_2","swb_3","swb_4","swb_5","LOT_1","LOT_2","LOT_3","LOT_4","LOT_5","LOT_6","IPC_1","IPC_2","IPC_3","IPC_4","IPC_5","IPC_6","IPC_7","IPC_8","MorIden_1","MorIden_2","MorIden_3","MorIden_4","MorIden_5","MorIden_6","MorIden_7","MorIden_8","MorIden_9","MorIden_10","moralSeImag_1","moralSeImag_2","moralSeImag_3","moralSeImag_4","moralSeImag_5","moralSeImag_6","moralSeImag_7","moralSeImag_8","moralSeImag_9","sde_1","sde_2","sde_3","sde_4","sde_5","sde_6","sde_7","sde_8","sde_9","sde_10","trap2","sde_11","sde_12","sde_13","sde_14","sde_15","sde_16","sde_17","sde_18","sde_19","sde_20","IM_1","IM_2","IM_3","IM_4","IM_5","IM_6","IM_7","IM_8","IM_9","IM_10","IM_11","IM_12","IM_13","IM_14","IM_15","IM_16","IM_17","IM_18","IM_19","IM_20","subj_idx","friend_name","ParticipantID","Sex","Word","Word2","value","success","timeout","failed_images","failed_audio","failed_video","user_agent","responses","item_order","radio_event_ids","radio_event_times","key_event_times","mouse_event_times","straightlining","zigzagging","honeypot","view_history","response_type","key_press","avg_frame_time","center_x","center_y","correct_response","correct","identity","Image","word","condition","task_id","screen_id","time_stamp","person","valence","domain","math","status","duration","question_order","trap2_item"
"5863","
   <p><div style='color:white; font-size: 25px'>您好，欢迎参加本次实验。</div></p>
   <p><div style='color:white; font-size: 25px'>为充分保障您的权利，请确保您已经知晓并同意《参与实验同意书》以及《数据公开知情同意书》。</div></p>
   <p><div style='color:white; font-size: 25px'>如果您未见过上述内容，请咨询实验员。</div></p>
   <p style='color:white; font-size: 25px'>如果您选择继续实验，则表示您已经清楚两份知情同意书的内容并同意。</p>
   <p><div style = ""color: pink;font-size:30px;"">请确保您记得day0的实验编号，您将在本次实验输入该编号，若您忘记，请咨询实验员后作答。</div></p>
   <p><div style = ""color:lightblue;font-size:25px;"">请您尽可能认真地作答，我们将依据您在各问卷和按键任务中的作答质量发放报酬。</div></p>
   <p> <div style = ""color: green""><按空格键至下页></div> </p>
   "," ","html-keyboard-response","0","5865","0.0-0.0","5","4","5","4","3","5","3","4","4","5","5","1","0","0","1","0","1","2","1","5","4","5","4","5","4","4","3","5","4","5","7","5","5","4","4","4","4","5","5","5","3","4","5","2","5","3","4","2","1","4","4","6","3","5","4","5","3","5","4","2","4","3","4","3","7","3","5","3","7","3","4","7","3","2","6","1","7","3","2","792475678095319042","李","438","Male","[""坏我"",""好我"",""好他"",""坏他""]","[""弱我"",""强我"",""强他"",""弱他""]","","","","","","","","","","","","","","","","","","","","","","","","","","","","","","","","","","","","","","",""
"","","","call-function","1","5867","0.0-1.0-0.0","5","4","5","4","3","5","3","4","4","5","5","1","0","0","1","0","1","2","1","5","4","5","4","5","4","4","3","5","4","5","7","5","5","4","4","4","4","5","5","5","3","4","5","2","5","3","4","2","1","4","4","6","3","5","4","5","3","5","4","2","4","3","4","3","7","3","5","3","7","3","4","7","3","2","6","1","7","3","2","792475678095319042","李","438","Male","[""坏我"",""好我"",""好他"",""坏他""]","[""弱我"",""强我"",""强他"",""弱他""]","","","","","","","","","","","","","","","","","","","","","","","","","","","","","","","","","","","","","","",""
"13981","","[{""name"":""Sex"",""value"":""0""},{""name"":""friend_name"",""value"":""李""},{""name"":""ParticipantID"",""value"":""438""}]","survey-html-form","2","19849","0.0-1.0-1.0","5","4","5","4","3","5","3","4","4","5","5","1","0","0","1","0","1","2","1","5","4","5","4","5","4","4","3","5","4","5","7","5","5","4","4","4","4","5","5","5","3","4","5","2","5","3","4","2","1","4","4","6","3","5","4","5","3","5","4","2","4","3","4","3","7","3","5","3","7","3","4","7","3","2","6","1","7","3","2","792475678095319042","李","438","Male","[""坏我"",""好我"",""好他"",""坏他""]","[""弱我"",""强我"",""强他"",""弱他""]","","","","","","","","","","","","","","","","","","","","","","","","","","","","","","","","","","","","","","",""
"","","","preload","3","20263","0.0-2.0","5","4","5","4","3","5","3","4","4","5","5","1","0","0","1","0","1","2","1","5","4","5","4","5","4","4","3","5","4","5","7","5","5","4","4","4","4","5","5","5","3","4","5","2","5","3","4","2","1","4","4","6","3","5","4","5","3","5","4","2","4","3","4","3","7","3","5","3","7","3","4","7","3","2","6","1","7","3","2","792475678095319042","李","438","Male","[""坏我"",""好我"",""好他"",""坏他""]","[""弱我"",""强我"",""强他"",""弱他""]","","true","false","[]","[]","[]","","","","","","","","","","","","","","","","","","","","","","","","","","","","","","","","",""
"","","","fullscreen","4","23300","0.0-3.0","5","4","5","4","3","5","3","4","4","5","5","1","0","0","1","0","1","2","1","5","4","5","4","5","4","4","3","5","4","5","7","5","5","4","4","4","4","5","5","5","3","4","5","2","5","3","4","2","1","4","4","6","3","5","4","5","3","5","4","2","4","3","4","3","7","3","5","3","7","3","4","7","3","2","6","1","7","3","2","792475678095319042","李","438","Male","[""坏我"",""好我"",""好他"",""坏他""]","[""弱我"",""强我"",""强他"",""弱他""]","","true","","","","","{}","","","","","","","","","","","","","","","","","","","","","","","","","","","","","","","",""
"16603.600000000093","","{""Q01"":""5"",""Q02"":""4"",""Q03"":""5"",""Q04"":""4"",""Q05"":""3""}","survey-template","5","39906","0.0-4.0","5","4","5","4","3","5","3","4","4","5","5","1","0","0","1","0","1","2","1","5","4","5","4","5","4","4","3","5","4","5","7","5","5","4","4","4","4","5","5","5","3","4","5","2","5","3","4","2","1","4","4","6","3","5","4","5","3","5","4","2","4","3","4","3","7","3","5","3","7","3","4","7","3","2","6","1","7","3","2","792475678095319042","李","438","Male","[""坏我"",""好我"",""好他"",""坏他""]","[""弱我"",""强我"",""强他"",""弱他""]","","","","","","","","{""Q01"":""5"",""Q02"":""4"",""Q03"":""5"",""Q04"":""4"",""Q05"":""3""}","[0,1,2,3,4]","[""Q01"",""Q02"",""Q03"",""Q04"",""Q05""]","[3309.100000000093,7054.399999999907,8860.5,12437.80000000028,15426.399999999907]","[]","[3309.100000000093,7054.399999999907,8860.5,12437.80000000028,15426.399999999907,16602.600000000093]","0.4","1","0","","","","","","","","","","","","","","","","","","","","","","",""
"24809.899999999907","","{""Q01"":""5"",""Q02"":""3"",""Q03"":""4"",""Q04"":""4"",""Q05"":""5"",""Q06"":""5""}","survey-template","6","64719","0.0-5.0","5","4","5","4","3","5","3","4","4","5","5","1","0","0","1","0","1","2","1","5","4","5","4","5","4","4","3","5","4","5","7","5","5","4","4","4","4","5","5","5","3","4","5","2","5","3","4","2","1","4","4","6","3","5","4","5","3","5","4","2","4","3","4","3","7","3","5","3","7","3","4","7","3","2","6","1","7","3","2","792475678095319042","李","438","Male","[""坏我"",""好我"",""好他"",""坏他""]","[""弱我"",""强我"",""强他"",""弱他""]","","","","","","","","{""Q01"":""5"",""Q02"":""3"",""Q03"":""4"",""Q04"":""4"",""Q05"":""5"",""Q06"":""5""}","[0,1,2,3,4,5]","[""Q01"",""Q02"",""Q03"",""Q04"",""Q05"",""Q06""]","[4216.299999999814,11971.19999999972,13537.299999999814,19123,20859.099999999627,24143.399999999907]","[]","[4216.299999999814,11971.19999999972,13537.299999999814,19123,20859.099999999627,24143.399999999907,24809.099999999627]","0.3333333333333333","0.6","0","","","","","","","","","","","","","","","","","","","","","","",""
"24043.700000000186","","{""Q01"":""1"",""Q02"":""0"",""Q03"":""0"",""Q04"":""1"",""Q05"":""0"",""Q06"":""1"",""Q07"":""2"",""Q08"":""1""}","survey-template","7","88766","0.0-6.0","5","4","5","4","3","5","3","4","4","5","5","1","0","0","1","0","1","2","1","5","4","5","4","5","4","4","3","5","4","5","7","5","5","4","4","4","4","5","5","5","3","4","5","2","5","3","4","2","1","4","4","6","3","5","4","5","3","5","4","2","4","3","4","3","7","3","5","3","7","3","4","7","3","2","6","1","7","3","2","792475678095319042","李","438","Male","[""坏我"",""好我"",""好他"",""坏他""]","[""弱我"",""强我"",""强他"",""弱他""]","","","","","","","","{""Q01"":""1"",""Q02"":""0"",""Q03"":""0"",""Q04"":""1"",""Q05"":""0"",""Q06"":""1"",""Q07"":""2"",""Q08"":""1""}","[0,1,2,3,4,5,6,7]","[""Q01"",""Q02"",""Q03"",""Q04"",""Q05"",""Q06"",""Q07"",""Q07"",""Q08""]","[4488.800000000279,8648.600000000093,11138.600000000093,13764.600000000093,16064.400000000373,18274.400000000373,20530.5,22106.5,23166.600000000093]","[]","[4488.800000000279,8648.600000000093,11138.600000000093,13764.600000000093,16064.400000000373,18274.400000000373,20530.5,22106.5,23166.600000000093,24042.700000000186]","0.5","0.8571428571428571","0","","","","","","","","","","","","","","","","","","","","","","",""
"11990","","","instructions","8","100758","0.0-7.0","5","4","5","4","3","5","3","4","4","5","5","1","0","0","1","0","1","2","1","5","4","5","4","5","4","4","3","5","4","5","7","5","5","4","4","4","4","5","5","5","3","4","5","2","5","3","4","2","1","4","4","6","3","5","4","5","3","5","4","2","4","3","4","3","7","3","5","3","7","3","4","7","3","2","6","1","7","3","2","792475678095319042","李","438","Male","[""坏我"",""好我"",""好他"",""坏他""]","[""弱我"",""强我"",""强他"",""弱他""]","","","","","","","","","","","","","","","","","[{""page_index"":0,""viewing_time"":11990}]","","","","","","","","","","","","","","","","","","","","","",""
"173613","","","instructions","9","274372","0.0-8.0-1.0-0.0","5","4","5","4","3","5","3","4","4","5","5","1","0","0","1","0","1","2","1","5","4","5","4","5","4","4","3","5","4","5","7","5","5","4","4","4","4","5","5","5","3","4","5","2","5","3","4","2","1","4","4","6","3","5","4","5","3","5","4","2","4","3","4","3","7","3","5","3","7","3","4","7","3","2","6","1","7","3","2","792475678095319042","李","438","Male","[""坏我"",""好我"",""好他"",""坏他""]","[""弱我"",""强我"",""强他"",""弱他""]","","","","","","","","","","","","","","","","","[{""page_index"":0,""viewing_time"":48707},{""page_index"":1,""viewing_time"":115185},{""page_index"":2,""viewing_time"":7950},{""page_index"":3,""viewing_time"":1772}]","","","","","","","","","","","","","","","","","","","","","",""
"null","","null","psychophysics","10","276577","0.0-8.0-1.0-1.0-0.0-0.0","5","4","5","4","3","5","3","4","4","5","5","1","0","0","1","0","1","2","1","5","4","5","4","5","4","4","3","5","4","5","7","5","5","4","4","4","4","5","5","5","3","4","5","2","5","3","4","2","1","4","4","6","3","5","4","5","3","5","4","2","4","3","4","3","7","3","5","3","7","3","4","7","3","2","6","1","7","3","2","792475678095319042","李","438","Male","[""坏我"",""好我"",""好他"",""坏他""]","[""弱我"",""强我"",""强他"",""弱他""]","","","","","","","","null","","","","","","","","","","key","null","16.663358778626133","768","428","j","false","nonmatch","img/hexagon.png","强他","弱我","prac_ALT2_ability","practice_ability","","","","","","","","",""
"null","<span class='add_' style='color:yellow; font-size: 70px;'> 太慢! </span>","null","html-keyboard-response","11","277080","0.0-8.0-1.0-1.0-0.0-1.0","5","4","5","4","3","5","3","4","4","5","5","1","0","0","1","0","1","2","1","5","4","5","4","5","4","4","3","5","4","5","7","5","5","4","4","4","4","5","5","5","3","4","5","2","5","3","4","2","1","4","4","6","3","5","4","5","3","5","4","2","4","3","4","3","7","3","5","3","7","3","4","7","3","2","6","1","7","3","2","792475678095319042","李","438","Male","[""坏我"",""好我"",""好他"",""坏他""]","[""弱我"",""强我"",""强他"",""弱他""]","","","","","","","","","","","","","","","","","","","","","","","","","","","","","","feedback_test","","","","","","","","",""
"739","","j","psychophysics","12","278821","0.0-8.0-1.0-1.0-0.0-0.1","5","4","5","4","3","5","3","4","4","5","5","1","0","0","1","0","1","2","1","5","4","5","4","5","4","4","3","5","4","5","7","5","5","4","4","4","4","5","5","5","3","4","5","2","5","3","4","2","1","4","4","6","3","5","4","5","3","5","4","2","4","3","4","3","7","3","5","3","7","3","4","7","3","2","6","1","7","3","2","792475678095319042","李","438","Male","[""坏我"",""好我"",""好他"",""坏他""]","[""弱我"",""强我"",""强他"",""弱他""]","","","","","","","","nonmatch","","","","","","","","","","key","j","16.66442307692285","768","428","j","true","nonmatch","img/triangle.png","弱他","强我","prac_ALT2_ability","practice_ability","","","","","","","","",""
"null","<span style='color:GreenYellow; font-size: 70px;'>正确! </span>","null","html-keyboard-response","13","279322","0.0-8.0-1.0-1.0-0.0-1.1","5","4","5","4","3","5","3","4","4","5","5","1","0","0","1","0","1","2","1","5","4","5","4","5","4","4","3","5","4","5","7","5","5","4","4","4","4","5","5","5","3","4","5","2","5","3","4","2","1","4","4","6","3","5","4","5","3","5","4","2","4","3","4","3","7","3","5","3","7","3","4","7","3","2","6","1","7","3","2","792475678095319042","李","438","Male","[""坏我"",""好我"",""好他"",""坏他""]","[""弱我"",""强我"",""强他"",""弱他""]","","","","","","","","","","","","","","","","","","","","","","","","","","","","","","feedback_test","","","","","","","","",""
"670","","j","psychophysics","14","280994","0.0-8.0-1.0-1.0-0.0-0.2","5","4","5","4","3","5","3","4","4","5","5","1","0","0","1","0","1","2","1","5","4","5","4","5","4","4","3","5","4","5","7","5","5","4","4","4","4","5","5","5","3","4","5","2","5","3","4","2","1","4","4","6","3","5","4","5","3","5","4","2","4","3","4","3","7","3","5","3","7","3","4","7","3","2","6","1","7","3","2","792475678095319042","李","438","Male","[""坏我"",""好我"",""好他"",""坏他""]","[""弱我"",""强我"",""强他"",""弱他""]","","","","","","","","nonmatch","","","","","","","","","","key","j","16.661616161616163","768","428","j","true","nonmatch","img/ellipse.png","强他","弱他","prac_ALT2_ability","practice_ability","","","","","","","","",""
"null","<span style='color:GreenYellow; font-size: 70px;'>正确! </span>","null","html-keyboard-response","15","281498","0.0-8.0-1.0-1.0-0.0-1.2","5","4","5","4","3","5","3","4","4","5","5","1","0","0","1","0","1","2","1","5","4","5","4","5","4","4","3","5","4","5","7","5","5","4","4","4","4","5","5","5","3","4","5","2","5","3","4","2","1","4","4","6","3","5","4","5","3","5","4","2","4","3","4","3","7","3","5","3","7","3","4","7","3","2","6","1","7","3","2","792475678095319042","李","438","Male","[""坏我"",""好我"",""好他"",""坏他""]","[""弱我"",""强我"",""强他"",""弱他""]","","","","","","","","","","","","","","","","","","","","","","","","","","","","","","feedback_test","","","","","","","","",""
"730","","f","psychophysics","16","283230","0.0-8.0-1.0-1.0-0.0-0.3","5","4","5","4","3","5","3","4","4","5","5","1","0","0","1","0","1","2","1","5","4","5","4","5","4","4","3","5","4","5","7","5","5","4","4","4","4","5","5","5","3","4","5","2","5","3","4","2","1","4","4","6","3","5","4","5","3","5","4","2","4","3","4","3","7","3","5","3","7","3","4","7","3","2","6","1","7","3","2","792475678095319042","李","438","Male","[""坏我"",""好我"",""好他"",""坏他""]","[""弱我"",""强我"",""强他"",""弱他""]","","","","","","","","match","","","","","","","","","","key","f","16.66601941747607","768","428","f","true","match","img/triangle.png","强我","强我","prac_ALT2_ability","practice_ability","","","","","","","","",""
"null","<span style='color:GreenYellow; font-size: 70px;'>正确! </span>","null","html-keyboard-response","17","283731","0.0-8.0-1.0-1.0-0.0-1.3","5","4","5","4","3","5","3","4","4","5","5","1","0","0","1","0","1","2","1","5","4","5","4","5","4","4","3","5","4","5","7","5","5","4","4","4","4","5","5","5","3","4","5","2","5","3","4","2","1","4","4","6","3","5","4","5","3","5","4","2","4","3","4","3","7","3","5","3","7","3","4","7","3","2","6","1","7","3","2","792475678095319042","李","438","Male","[""坏我"",""好我"",""好他"",""坏他""]","[""弱我"",""强我"",""强他"",""弱他""]","","","","","","","","","","","","","","","","","","","","","","","","","","","","","","feedback_test","","","","","","","","",""
"960","","f","psychophysics","18","285694","0.0-8.0-1.0-1.0-0.0-0.4","5","4","5","4","3","5","3","4","4","5","5","1","0","0","1","0","1","2","1","5","4","5","4","5","4","4","3","5","4","5","7","5","5","4","4","4","4","5","5","5","3","4","5","2","5","3","4","2","1","4","4","6","3","5","4","5","3","5","4","2","4","3","4","3","7","3","5","3","7","3","4","7","3","2","6","1","7","3","2","792475678095319042","李","438","Male","[""坏我"",""好我"",""好他"",""坏他""]","[""弱我"",""强我"",""强他"",""弱他""]","","","","","","","","match","","","","","","","","","","key","f","16.662393162393162","768","428","f","true","match","img/hexagon.png","弱我","弱我","prac_ALT2_ability","practice_ability","","","","","","","","",""
"null","<span style='color:GreenYellow; font-size: 70px;'>正确! </span>","null","html-keyboard-response","19","286195","0.0-8.0-1.0-1.0-0.0-1.4","5","4","5","4","3","5","3","4","4","5","5","1","0","0","1","0","1","2","1","5","4","5","4","5","4","4","3","5","4","5","7","5","5","4","4","4","4","5","5","5","3","4","5","2","5","3","4","2","1","4","4","6","3","5","4","5","3","5","4","2","4","3","4","3","7","3","5","3","7","3","4","7","3","2","6","1","7","3","2","792475678095319042","李","438","Male","[""坏我"",""好我"",""好他"",""坏他""]","[""弱我"",""强我"",""强他"",""弱他""]","","","","","","","","","","","","","","","","","","","","","","","","","","","","","","feedback_test","","","","","","","","",""
"906","","j","psychophysics","20","288103","0.0-8.0-1.0-1.0-0.0-0.5","5","4","5","4","3","5","3","4","4","5","5","1","0","0","1","0","1","2","1","5","4","5","4","5","4","4","3","5","4","5","7","5","5","4","4","4","4","5","5","5","3","4","5","2","5","3","4","2","1","4","4","6","3","5","4","5","3","5","4","2","4","3","4","3","7","3","5","3","7","3","4","7","3","2","6","1","7","3","2","792475678095319042","李","438","Male","[""坏我"",""好我"",""好他"",""坏他""]","[""弱我"",""强我"",""强他"",""弱他""]","","","","","","","","nonmatch","","","","","","","","","","key","j","16.662280701754387","768","428","j","true","nonmatch","img/triangle.png","弱我","强我","prac_ALT2_ability","practice_ability","","","","","","","","",""
"null","<span style='color:GreenYellow; font-size: 70px;'>正确! </span>","null","html-keyboard-response","21","288605","0.0-8.0-1.0-1.0-0.0-1.5","5","4","5","4","3","5","3","4","4","5","5","1","0","0","1","0","1","2","1","5","4","5","4","5","4","4","3","5","4","5","7","5","5","4","4","4","4","5","5","5","3","4","5","2","5","3","4","2","1","4","4","6","3","5","4","5","3","5","4","2","4","3","4","3","7","3","5","3","7","3","4","7","3","2","6","1","7","3","2","792475678095319042","李","438","Male","[""坏我"",""好我"",""好他"",""坏他""]","[""弱我"",""强我"",""强他"",""弱他""]","","","","","","","","","","","","","","","","","","","","","","","","","","","","","","feedback_test","","","","","","","","",""
"1062","","f","psychophysics","22","290668","0.0-8.0-1.0-1.0-0.0-0.6","5","4","5","4","3","5","3","4","4","5","5","1","0","0","1","0","1","2","1","5","4","5","4","5","4","4","3","5","4","5","7","5","5","4","4","4","4","5","5","5","3","4","5","2","5","3","4","2","1","4","4","6","3","5","4","5","3","5","4","2","4","3","4","3","7","3","5","3","7","3","4","7","3","2","6","1","7","3","2","792475678095319042","李","438","Male","[""坏我"",""好我"",""好他"",""坏他""]","[""弱我"",""强我"",""强他"",""弱他""]","","","","","","","","match","","","","","","","","","","key","f","16.660975609756004","768","428","j","false","nonmatch","img/ellipse.png","弱我","弱他","prac_ALT2_ability","practice_ability","","","","","","","","",""
"null","<span style='color:red; font-size: 70px;'>错误! </span>","null","html-keyboard-response","23","291170","0.0-8.0-1.0-1.0-0.0-1.6","5","4","5","4","3","5","3","4","4","5","5","1","0","0","1","0","1","2","1","5","4","5","4","5","4","4","3","5","4","5","7","5","5","4","4","4","4","5","5","5","3","4","5","2","5","3","4","2","1","4","4","6","3","5","4","5","3","5","4","2","4","3","4","3","7","3","5","3","7","3","4","7","3","2","6","1","7","3","2","792475678095319042","李","438","Male","[""坏我"",""好我"",""好他"",""坏他""]","[""弱我"",""强我"",""强他"",""弱他""]","","","","","","","","","","","","","","","","","","","","","","","","","","","","","","feedback_test","","","","","","","","",""
"965","","j","psychophysics","24","293137","0.0-8.0-1.0-1.0-0.0-0.7","5","4","5","4","3","5","3","4","4","5","5","1","0","0","1","0","1","2","1","5","4","5","4","5","4","4","3","5","4","5","7","5","5","4","4","4","4","5","5","5","3","4","5","2","5","3","4","2","1","4","4","6","3","5","4","5","3","5","4","2","4","3","4","3","7","3","5","3","7","3","4","7","3","2","6","1","7","3","2","792475678095319042","李","438","Male","[""坏我"",""好我"",""好他"",""坏他""]","[""弱我"",""强我"",""强他"",""弱他""]","","","","","","","","nonmatch","","","","","","","","","","key","j","16.663247863248163","768","428","j","true","nonmatch","img/triangle.png","强他","强我","prac_ALT2_ability","practice_ability","","","","","","","","",""
"null","<span style='color:GreenYellow; font-size: 70px;'>正确! </span>","null","html-keyboard-response","25","293638","0.0-8.0-1.0-1.0-0.0-1.7","5","4","5","4","3","5","3","4","4","5","5","1","0","0","1","0","1","2","1","5","4","5","4","5","4","4","3","5","4","5","7","5","5","4","4","4","4","5","5","5","3","4","5","2","5","3","4","2","1","4","4","6","3","5","4","5","3","5","4","2","4","3","4","3","7","3","5","3","7","3","4","7","3","2","6","1","7","3","2","792475678095319042","李","438","Male","[""坏我"",""好我"",""好他"",""坏他""]","[""弱我"",""强我"",""强他"",""弱他""]","","","","","","","","","","","","","","","","","","","","","","","","","","","","","","feedback_test","","","","","","","","",""
"826","","f","psychophysics","26","295467","0.0-8.0-1.0-1.0-0.0-0.8","5","4","5","4","3","5","3","4","4","5","5","1","0","0","1","0","1","2","1","5","4","5","4","5","4","4","3","5","4","5","7","5","5","4","4","4","4","5","5","5","3","4","5","2","5","3","4","2","1","4","4","6","3","5","4","5","3","5","4","2","4","3","4","3","7","3","5","3","7","3","4","7","3","2","6","1","7","3","2","792475678095319042","李","438","Male","[""坏我"",""好我"",""好他"",""坏他""]","[""弱我"",""强我"",""强他"",""弱他""]","","","","","","","","match","","","","","","","","","","key","f","16.662385321101024","768","428","j","false","nonmatch","img/trapezoid.png","弱我","强他","prac_ALT2_ability","practice_ability","","","","","","","","",""
"null","<span style='color:red; font-size: 70px;'>错误! </span>","null","html-keyboard-response","27","295967","0.0-8.0-1.0-1.0-0.0-1.8","5","4","5","4","3","5","3","4","4","5","5","1","0","0","1","0","1","2","1","5","4","5","4","5","4","4","3","5","4","5","7","5","5","4","4","4","4","5","5","5","3","4","5","2","5","3","4","2","1","4","4","6","3","5","4","5","3","5","4","2","4","3","4","3","7","3","5","3","7","3","4","7","3","2","6","1","7","3","2","792475678095319042","李","438","Male","[""坏我"",""好我"",""好他"",""坏他""]","[""弱我"",""强我"",""强他"",""弱他""]","","","","","","","","","","","","","","","","","","","","","","","","","","","","","","feedback_test","","","","","","","","",""
"1174","","f","psychophysics","28","298143","0.0-8.0-1.0-1.0-0.0-0.9","5","4","5","4","3","5","3","4","4","5","5","1","0","0","1","0","1","2","1","5","4","5","4","5","4","4","3","5","4","5","7","5","5","4","4","4","4","5","5","5","3","4","5","2","5","3","4","2","1","4","4","6","3","5","4","5","3","5","4","2","4","3","4","3","7","3","5","3","7","3","4","7","3","2","6","1","7","3","2","792475678095319042","李","438","Male","[""坏我"",""好我"",""好他"",""坏他""]","[""弱我"",""强我"",""强他"",""弱他""]","","","","","","","","match","","","","","","","","","","key","f","16.662790697674417","768","428","f","true","match","img/hexagon.png","弱我","弱我","prac_ALT2_ability","practice_ability","","","","","","","","",""
"null","<span style='color:GreenYellow; font-size: 70px;'>正确! </span>","null","html-keyboard-response","29","298644","0.0-8.0-1.0-1.0-0.0-1.9","5","4","5","4","3","5","3","4","4","5","5","1","0","0","1","0","1","2","1","5","4","5","4","5","4","4","3","5","4","5","7","5","5","4","4","4","4","5","5","5","3","4","5","2","5","3","4","2","1","4","4","6","3","5","4","5","3","5","4","2","4","3","4","3","7","3","5","3","7","3","4","7","3","2","6","1","7","3","2","792475678095319042","李","438","Male","[""坏我"",""好我"",""好他"",""坏他""]","[""弱我"",""强我"",""强他"",""弱他""]","","","","","","","","","","","","","","","","","","","","","","","","","","","","","","feedback_test","","","","","","","","",""
"1106","","f","psychophysics","30","300752","0.0-8.0-1.0-1.0-0.0-0.10","5","4","5","4","3","5","3","4","4","5","5","1","0","0","1","0","1","2","1","5","4","5","4","5","4","4","3","5","4","5","7","5","5","4","4","4","4","5","5","5","3","4","5","2","5","3","4","2","1","4","4","6","3","5","4","5","3","5","4","2","4","3","4","3","7","3","5","3","7","3","4","7","3","2","6","1","7","3","2","792475678095319042","李","438","Male","[""坏我"",""好我"",""好他"",""坏他""]","[""弱我"",""强我"",""强他"",""弱他""]","","","","","","","","match","","","","","","","","","","key","f","16.66269841269841","768","428","f","true","match","img/trapezoid.png","强他","强他","prac_ALT2_ability","practice_ability","","","","","","","","",""
"null","<span style='color:GreenYellow; font-size: 70px;'>正确! </span>","null","html-keyboard-response","31","301254","0.0-8.0-1.0-1.0-0.0-1.10","5","4","5","4","3","5","3","4","4","5","5","1","0","0","1","0","1","2","1","5","4","5","4","5","4","4","3","5","4","5","7","5","5","4","4","4","4","5","5","5","3","4","5","2","5","3","4","2","1","4","4","6","3","5","4","5","3","5","4","2","4","3","4","3","7","3","5","3","7","3","4","7","3","2","6","1","7","3","2","792475678095319042","李","438","Male","[""坏我"",""好我"",""好他"",""坏他""]","[""弱我"",""强我"",""强他"",""弱他""]","","","","","","","","","","","","","","","","","","","","","","","","","","","","","","feedback_test","","","","","","","","",""
"null","","null","psychophysics","32","303458","0.0-8.0-1.0-1.0-0.0-0.11","5","4","5","4","3","5","3","4","4","5","5","1","0","0","1","0","1","2","1","5","4","5","4","5","4","4","3","5","4","5","7","5","5","4","4","4","4","5","5","5","3","4","5","2","5","3","4","2","1","4","4","6","3","5","4","5","3","5","4","2","4","3","4","3","7","3","5","3","7","3","4","7","3","2","6","1","7","3","2","792475678095319042","李","438","Male","[""坏我"",""好我"",""好他"",""坏他""]","[""弱我"",""强我"",""强他"",""弱他""]","","","","","","","","null","","","","","","","","","","key","null","16.662595419847683","768","428","f","false","match","img/ellipse.png","弱他","弱他","prac_ALT2_ability","practice_ability","","","","","","","","",""
"null","<span class='add_' style='color:yellow; font-size: 70px;'> 太慢! </span>","null","html-keyboard-response","33","303959","0.0-8.0-1.0-1.0-0.0-1.11","5","4","5","4","3","5","3","4","4","5","5","1","0","0","1","0","1","2","1","5","4","5","4","5","4","4","3","5","4","5","7","5","5","4","4","4","4","5","5","5","3","4","5","2","5","3","4","2","1","4","4","6","3","5","4","5","3","5","4","2","4","3","4","3","7","3","5","3","7","3","4","7","3","2","6","1","7","3","2","792475678095319042","李","438","Male","[""坏我"",""好我"",""好他"",""坏他""]","[""弱我"",""强我"",""强他"",""弱他""]","","","","","","","","","","","","","","","","","","","","","","","","","","","","","","feedback_test","","","","","","","","",""
"1118","","f","psychophysics","34","306078","0.0-8.0-1.0-1.0-0.0-0.12","5","4","5","4","3","5","3","4","4","5","5","1","0","0","1","0","1","2","1","5","4","5","4","5","4","4","3","5","4","5","7","5","5","4","4","4","4","5","5","5","3","4","5","2","5","3","4","2","1","4","4","6","3","5","4","5","3","5","4","2","4","3","4","3","7","3","5","3","7","3","4","7","3","2","6","1","7","3","2","792475678095319042","李","438","Male","[""坏我"",""好我"",""好他"",""坏他""]","[""弱我"",""强我"",""强他"",""弱他""]","","","","","","","","match","","","","","","","","","","key","f","16.665079365079272","768","428","f","true","match","img/ellipse.png","弱他","弱他","prac_ALT2_ability","practice_ability","","","","","","","","",""
"null","<span style='color:GreenYellow; font-size: 70px;'>正确! </span>","null","html-keyboard-response","35","306579","0.0-8.0-1.0-1.0-0.0-1.12","5","4","5","4","3","5","3","4","4","5","5","1","0","0","1","0","1","2","1","5","4","5","4","5","4","4","3","5","4","5","7","5","5","4","4","4","4","5","5","5","3","4","5","2","5","3","4","2","1","4","4","6","3","5","4","5","3","5","4","2","4","3","4","3","7","3","5","3","7","3","4","7","3","2","6","1","7","3","2","792475678095319042","李","438","Male","[""坏我"",""好我"",""好他"",""坏他""]","[""弱我"",""强我"",""强他"",""弱他""]","","","","","","","","","","","","","","","","","","","","","","","","","","","","","","feedback_test","","","","","","","","",""
"948","","f","psychophysics","36","308528","0.0-8.0-1.0-1.0-0.0-0.13","5","4","5","4","3","5","3","4","4","5","5","1","0","0","1","0","1","2","1","5","4","5","4","5","4","4","3","5","4","5","7","5","5","4","4","4","4","5","5","5","3","4","5","2","5","3","4","2","1","4","4","6","3","5","4","5","3","5","4","2","4","3","4","3","7","3","5","3","7","3","4","7","3","2","6","1","7","3","2","792475678095319042","李","438","Male","[""坏我"",""好我"",""好他"",""坏他""]","[""弱我"",""强我"",""强他"",""弱他""]","","","","","","","","match","","","","","","","","","","key","f","16.660869565217393","768","428","f","true","match","img/ellipse.png","弱他","弱他","prac_ALT2_ability","practice_ability","","","","","","","","",""
"null","<span style='color:GreenYellow; font-size: 70px;'>正确! </span>","null","html-keyboard-response","37","309029","0.0-8.0-1.0-1.0-0.0-1.13","5","4","5","4","3","5","3","4","4","5","5","1","0","0","1","0","1","2","1","5","4","5","4","5","4","4","3","5","4","5","7","5","5","4","4","4","4","5","5","5","3","4","5","2","5","3","4","2","1","4","4","6","3","5","4","5","3","5","4","2","4","3","4","3","7","3","5","3","7","3","4","7","3","2","6","1","7","3","2","792475678095319042","李","438","Male","[""坏我"",""好我"",""好他"",""坏他""]","[""弱我"",""强我"",""强他"",""弱他""]","","","","","","","","","","","","","","","","","","","","","","","","","","","","","","feedback_test","","","","","","","","",""
"692","","j","psychophysics","38","310722","0.0-8.0-1.0-1.0-0.0-0.14","5","4","5","4","3","5","3","4","4","5","5","1","0","0","1","0","1","2","1","5","4","5","4","5","4","4","3","5","4","5","7","5","5","4","4","4","4","5","5","5","3","4","5","2","5","3","4","2","1","4","4","6","3","5","4","5","3","5","4","2","4","3","4","3","7","3","5","3","7","3","4","7","3","2","6","1","7","3","2","792475678095319042","李","438","Male","[""坏我"",""好我"",""好他"",""坏他""]","[""弱我"",""强我"",""强他"",""弱他""]","","","","","","","","nonmatch","","","","","","","","","","key","j","16.665","768","428","f","false","match","img/triangle.png","强我","强我","prac_ALT2_ability","practice_ability","","","","","","","","",""
"null","<span style='color:red; font-size: 70px;'>错误! </span>","null","html-keyboard-response","39","311223","0.0-8.0-1.0-1.0-0.0-1.14","5","4","5","4","3","5","3","4","4","5","5","1","0","0","1","0","1","2","1","5","4","5","4","5","4","4","3","5","4","5","7","5","5","4","4","4","4","5","5","5","3","4","5","2","5","3","4","2","1","4","4","6","3","5","4","5","3","5","4","2","4","3","4","3","7","3","5","3","7","3","4","7","3","2","6","1","7","3","2","792475678095319042","李","438","Male","[""坏我"",""好我"",""好他"",""坏他""]","[""弱我"",""强我"",""强他"",""弱他""]","","","","","","","","","","","","","","","","","","","","","","","","","","","","","","feedback_test","","","","","","","","",""
"932","","f","psychophysics","40","313156","0.0-8.0-1.0-1.0-0.0-0.15","5","4","5","4","3","5","3","4","4","5","5","1","0","0","1","0","1","2","1","5","4","5","4","5","4","4","3","5","4","5","7","5","5","4","4","4","4","5","5","5","3","4","5","2","5","3","4","2","1","4","4","6","3","5","4","5","3","5","4","2","4","3","4","3","7","3","5","3","7","3","4","7","3","2","6","1","7","3","2","792475678095319042","李","438","Male","[""坏我"",""好我"",""好他"",""坏他""]","[""弱我"",""强我"",""强他"",""弱他""]","","","","","","","","match","","","","","","","","","","key","f","16.662608695652274","768","428","f","true","match","img/trapezoid.png","强他","强他","prac_ALT2_ability","practice_ability","","","","","","","","",""
"null","<span style='color:GreenYellow; font-size: 70px;'>正确! </span>","null","html-keyboard-response","41","313658","0.0-8.0-1.0-1.0-0.0-1.15","5","4","5","4","3","5","3","4","4","5","5","1","0","0","1","0","1","2","1","5","4","5","4","5","4","4","3","5","4","5","7","5","5","4","4","4","4","5","5","5","3","4","5","2","5","3","4","2","1","4","4","6","3","5","4","5","3","5","4","2","4","3","4","3","7","3","5","3","7","3","4","7","3","2","6","1","7","3","2","792475678095319042","李","438","Male","[""坏我"",""好我"",""好他"",""坏他""]","[""弱我"",""强我"",""强他"",""弱他""]","","","","","","","","","","","","","","","","","","","","","","","","","","","","","","feedback_test","","","","","","","","",""
"1157","","j","psychophysics","42","315817","0.0-8.0-1.0-1.0-0.0-0.16","5","4","5","4","3","5","3","4","4","5","5","1","0","0","1","0","1","2","1","5","4","5","4","5","4","4","3","5","4","5","7","5","5","4","4","4","4","5","5","5","3","4","5","2","5","3","4","2","1","4","4","6","3","5","4","5","3","5","4","2","4","3","4","3","7","3","5","3","7","3","4","7","3","2","6","1","7","3","2","792475678095319042","李","438","Male","[""坏我"",""好我"",""好他"",""坏他""]","[""弱我"",""强我"",""强他"",""弱他""]","","","","","","","","nonmatch","","","","","","","","","","key","j","16.666666666666668","768","428","j","true","nonmatch","img/hexagon.png","弱他","弱我","prac_ALT2_ability","practice_ability","","","","","","","","",""
"null","<span style='color:GreenYellow; font-size: 70px;'>正确! </span>","null","html-keyboard-response","43","316318","0.0-8.0-1.0-1.0-0.0-1.16","5","4","5","4","3","5","3","4","4","5","5","1","0","0","1","0","1","2","1","5","4","5","4","5","4","4","3","5","4","5","7","5","5","4","4","4","4","5","5","5","3","4","5","2","5","3","4","2","1","4","4","6","3","5","4","5","3","5","4","2","4","3","4","3","7","3","5","3","7","3","4","7","3","2","6","1","7","3","2","792475678095319042","李","438","Male","[""坏我"",""好我"",""好他"",""坏他""]","[""弱我"",""强我"",""强他"",""弱他""]","","","","","","","","","","","","","","","","","","","","","","","","","","","","","","feedback_test","","","","","","","","",""
"1122","","j","psychophysics","44","318442","0.0-8.0-1.0-1.0-0.0-0.17","5","4","5","4","3","5","3","4","4","5","5","1","0","0","1","0","1","2","1","5","4","5","4","5","4","4","3","5","4","5","7","5","5","4","4","4","4","5","5","5","3","4","5","2","5","3","4","2","1","4","4","6","3","5","4","5","3","5","4","2","4","3","4","3","7","3","5","3","7","3","4","7","3","2","6","1","7","3","2","792475678095319042","李","438","Male","[""坏我"",""好我"",""好他"",""坏他""]","[""弱我"",""强我"",""强他"",""弱他""]","","","","","","","","nonmatch","","","","","","","","","","key","j","16.661904761904484","768","428","j","true","nonmatch","img/trapezoid.png","弱他","强他","prac_ALT2_ability","practice_ability","","","","","","","","",""
"null","<span style='color:GreenYellow; font-size: 70px;'>正确! </span>","null","html-keyboard-response","45","318958","0.0-8.0-1.0-1.0-0.0-1.17","5","4","5","4","3","5","3","4","4","5","5","1","0","0","1","0","1","2","1","5","4","5","4","5","4","4","3","5","4","5","7","5","5","4","4","4","4","5","5","5","3","4","5","2","5","3","4","2","1","4","4","6","3","5","4","5","3","5","4","2","4","3","4","3","7","3","5","3","7","3","4","7","3","2","6","1","7","3","2","792475678095319042","李","438","Male","[""坏我"",""好我"",""好他"",""坏他""]","[""弱我"",""强我"",""强他"",""弱他""]","","","","","","","","","","","","","","","","","","","","","","","","","","","","","","feedback_test","","","","","","","","",""
"1144","","j","psychophysics","46","321104","0.0-8.0-1.0-1.0-0.0-0.18","5","4","5","4","3","5","3","4","4","5","5","1","0","0","1","0","1","2","1","5","4","5","4","5","4","4","3","5","4","5","7","5","5","4","4","4","4","5","5","5","3","4","5","2","5","3","4","2","1","4","4","6","3","5","4","5","3","5","4","2","4","3","4","3","7","3","5","3","7","3","4","7","3","2","6","1","7","3","2","792475678095319042","李","438","Male","[""坏我"",""好我"",""好他"",""坏他""]","[""弱我"",""强我"",""强他"",""弱他""]","","","","","","","","nonmatch","","","","","","","","","","key","j","16.664566929133585","768","428","j","true","nonmatch","img/trapezoid.png","强我","强他","prac_ALT2_ability","practice_ability","","","","","","","","",""
"null","<span style='color:GreenYellow; font-size: 70px;'>正确! </span>","null","html-keyboard-response","47","321614","0.0-8.0-1.0-1.0-0.0-1.18","5","4","5","4","3","5","3","4","4","5","5","1","0","0","1","0","1","2","1","5","4","5","4","5","4","4","3","5","4","5","7","5","5","4","4","4","4","5","5","5","3","4","5","2","5","3","4","2","1","4","4","6","3","5","4","5","3","5","4","2","4","3","4","3","7","3","5","3","7","3","4","7","3","2","6","1","7","3","2","792475678095319042","李","438","Male","[""坏我"",""好我"",""好他"",""坏他""]","[""弱我"",""强我"",""强他"",""弱他""]","","","","","","","","","","","","","","","","","","","","","","","","","","","","","","feedback_test","","","","","","","","",""
"849","","j","psychophysics","48","323465","0.0-8.0-1.0-1.0-0.0-0.19","5","4","5","4","3","5","3","4","4","5","5","1","0","0","1","0","1","2","1","5","4","5","4","5","4","4","3","5","4","5","7","5","5","4","4","4","4","5","5","5","3","4","5","2","5","3","4","2","1","4","4","6","3","5","4","5","3","5","4","2","4","3","4","3","7","3","5","3","7","3","4","7","3","2","6","1","7","3","2","792475678095319042","李","438","Male","[""坏我"",""好我"",""好他"",""坏他""]","[""弱我"",""强我"",""强他"",""弱他""]","","","","","","","","nonmatch","","","","","","","","","","key","j","16.659999999999787","768","428","j","true","nonmatch","img/ellipse.png","强我","弱他","prac_ALT2_ability","practice_ability","","","","","","","","",""
"null","<span style='color:GreenYellow; font-size: 70px;'>正确! </span>","null","html-keyboard-response","49","323967","0.0-8.0-1.0-1.0-0.0-1.19","5","4","5","4","3","5","3","4","4","5","5","1","0","0","1","0","1","2","1","5","4","5","4","5","4","4","3","5","4","5","7","5","5","4","4","4","4","5","5","5","3","4","5","2","5","3","4","2","1","4","4","6","3","5","4","5","3","5","4","2","4","3","4","3","7","3","5","3","7","3","4","7","3","2","6","1","7","3","2","792475678095319042","李","438","Male","[""坏我"",""好我"",""好他"",""坏他""]","[""弱我"",""强我"",""强他"",""弱他""]","","","","","","","","","","","","","","","","","","","","","","","","","","","","","","feedback_test","","","","","","","","",""
"1042","","f","psychophysics","50","326010","0.0-8.0-1.0-1.0-0.0-0.20","5","4","5","4","3","5","3","4","4","5","5","1","0","0","1","0","1","2","1","5","4","5","4","5","4","4","3","5","4","5","7","5","5","4","4","4","4","5","5","5","3","4","5","2","5","3","4","2","1","4","4","6","3","5","4","5","3","5","4","2","4","3","4","3","7","3","5","3","7","3","4","7","3","2","6","1","7","3","2","792475678095319042","李","438","Male","[""坏我"",""好我"",""好他"",""坏他""]","[""弱我"",""强我"",""强他"",""弱他""]","","","","","","","","match","","","","","","","","","","key","f","16.66393442622951","768","428","f","true","match","img/hexagon.png","弱我","弱我","prac_ALT2_ability","practice_ability","","","","","","","","",""
"null","<span style='color:GreenYellow; font-size: 70px;'>正确! </span>","null","html-keyboard-response","51","326510","0.0-8.0-1.0-1.0-0.0-1.20","5","4","5","4","3","5","3","4","4","5","5","1","0","0","1","0","1","2","1","5","4","5","4","5","4","4","3","5","4","5","7","5","5","4","4","4","4","5","5","5","3","4","5","2","5","3","4","2","1","4","4","6","3","5","4","5","3","5","4","2","4","3","4","3","7","3","5","3","7","3","4","7","3","2","6","1","7","3","2","792475678095319042","李","438","Male","[""坏我"",""好我"",""好他"",""坏他""]","[""弱我"",""强我"",""强他"",""弱他""]","","","","","","","","","","","","","","","","","","","","","","","","","","","","","","feedback_test","","","","","","","","",""
"834","","f","psychophysics","52","328345","0.0-8.0-1.0-1.0-0.0-0.21","5","4","5","4","3","5","3","4","4","5","5","1","0","0","1","0","1","2","1","5","4","5","4","5","4","4","3","5","4","5","7","5","5","4","4","4","4","5","5","5","3","4","5","2","5","3","4","2","1","4","4","6","3","5","4","5","3","5","4","2","4","3","4","3","7","3","5","3","7","3","4","7","3","2","6","1","7","3","2","792475678095319042","李","438","Male","[""坏我"",""好我"",""好他"",""坏他""]","[""弱我"",""强我"",""强他"",""弱他""]","","","","","","","","match","","","","","","","","","","key","f","16.662385321101024","768","428","f","true","match","img/triangle.png","强我","强我","prac_ALT2_ability","practice_ability","","","","","","","","",""
"null","<span style='color:GreenYellow; font-size: 70px;'>正确! </span>","null","html-keyboard-response","53","328846","0.0-8.0-1.0-1.0-0.0-1.21","5","4","5","4","3","5","3","4","4","5","5","1","0","0","1","0","1","2","1","5","4","5","4","5","4","4","3","5","4","5","7","5","5","4","4","4","4","5","5","5","3","4","5","2","5","3","4","2","1","4","4","6","3","5","4","5","3","5","4","2","4","3","4","3","7","3","5","3","7","3","4","7","3","2","6","1","7","3","2","792475678095319042","李","438","Male","[""坏我"",""好我"",""好他"",""坏他""]","[""弱我"",""强我"",""强他"",""弱他""]","","","","","","","","","","","","","","","","","","","","","","","","","","","","","","feedback_test","","","","","","","","",""
"991","","f","psychophysics","54","330837","0.0-8.0-1.0-1.0-0.0-0.22","5","4","5","4","3","5","3","4","4","5","5","1","0","0","1","0","1","2","1","5","4","5","4","5","4","4","3","5","4","5","7","5","5","4","4","4","4","5","5","5","3","4","5","2","5","3","4","2","1","4","4","6","3","5","4","5","3","5","4","2","4","3","4","3","7","3","5","3","7","3","4","7","3","2","6","1","7","3","2","792475678095319042","李","438","Male","[""坏我"",""好我"",""好他"",""坏他""]","[""弱我"",""强我"",""强他"",""弱他""]","","","","","","","","match","","","","","","","","","","key","f","16.662711864406877","768","428","f","true","match","img/trapezoid.png","强他","强他","prac_ALT2_ability","practice_ability","","","","","","","","",""
"null","<span style='color:GreenYellow; font-size: 70px;'>正确! </span>","null","html-keyboard-response","55","331339","0.0-8.0-1.0-1.0-0.0-1.22","5","4","5","4","3","5","3","4","4","5","5","1","0","0","1","0","1","2","1","5","4","5","4","5","4","4","3","5","4","5","7","5","5","4","4","4","4","5","5","5","3","4","5","2","5","3","4","2","1","4","4","6","3","5","4","5","3","5","4","2","4","3","4","3","7","3","5","3","7","3","4","7","3","2","6","1","7","3","2","792475678095319042","李","438","Male","[""坏我"",""好我"",""好他"",""坏他""]","[""弱我"",""强我"",""强他"",""弱他""]","","","","","","","","","","","","","","","","","","","","","","","","","","","","","","feedback_test","","","","","","","","",""
"null","","null","psychophysics","56","333541","0.0-8.0-1.0-1.0-0.0-0.23","5","4","5","4","3","5","3","4","4","5","5","1","0","0","1","0","1","2","1","5","4","5","4","5","4","4","3","5","4","5","7","5","5","4","4","4","4","5","5","5","3","4","5","2","5","3","4","2","1","4","4","6","3","5","4","5","3","5","4","2","4","3","4","3","7","3","5","3","7","3","4","7","3","2","6","1","7","3","2","792475678095319042","李","438","Male","[""坏我"",""好我"",""好他"",""坏他""]","[""弱我"",""强我"",""强他"",""弱他""]","","","","","","","","null","","","","","","","","","","key","null","16.662595419847683","768","428","j","false","nonmatch","img/hexagon.png","强我","弱我","prac_ALT2_ability","practice_ability","","","","","","","","",""
"null","<span class='add_' style='color:yellow; font-size: 70px;'> 太慢! </span>","null","html-keyboard-response","57","334049","0.0-8.0-1.0-1.0-0.0-1.23","5","4","5","4","3","5","3","4","4","5","5","1","0","0","1","0","1","2","1","5","4","5","4","5","4","4","3","5","4","5","7","5","5","4","4","4","4","5","5","5","3","4","5","2","5","3","4","2","1","4","4","6","3","5","4","5","3","5","4","2","4","3","4","3","7","3","5","3","7","3","4","7","3","2","6","1","7","3","2","792475678095319042","李","438","Male","[""坏我"",""好我"",""好他"",""坏他""]","[""弱我"",""强我"",""强他"",""弱他""]","","","","","","","","","","","","","","","","","","","","","","","","","","","","","","feedback_test","","","","","","","","",""
"1080","","j","psychophysics","58","336132","0.0-8.0-1.0-1.0-0.0-0.24","5","4","5","4","3","5","3","4","4","5","5","1","0","0","1","0","1","2","1","5","4","5","4","5","4","4","3","5","4","5","7","5","5","4","4","4","4","5","5","5","3","4","5","2","5","3","4","2","1","4","4","6","3","5","4","5","3","5","4","2","4","3","4","3","7","3","5","3","7","3","4","7","3","2","6","1","7","3","2","792475678095319042","李","438","Male","[""坏我"",""好我"",""好他"",""坏他""]","[""弱我"",""强我"",""强他"",""弱他""]","","","","","","","","nonmatch","","","","","","","","","","key","j","16.66532258064516","768","428","j","true","nonmatch","img/hexagon.png","强我","弱我","prac_ALT2_ability","practice_ability","","","","","","","","",""
"null","<span style='color:GreenYellow; font-size: 70px;'>正确! </span>","null","html-keyboard-response","59","336639","0.0-8.0-1.0-1.0-0.0-1.24","5","4","5","4","3","5","3","4","4","5","5","1","0","0","1","0","1","2","1","5","4","5","4","5","4","4","3","5","4","5","7","5","5","4","4","4","4","5","5","5","3","4","5","2","5","3","4","2","1","4","4","6","3","5","4","5","3","5","4","2","4","3","4","3","7","3","5","3","7","3","4","7","3","2","6","1","7","3","2","792475678095319042","李","438","Male","[""坏我"",""好我"",""好他"",""坏他""]","[""弱我"",""强我"",""强他"",""弱他""]","","","","","","","","","","","","","","","","","","","","","","","","","","","","","","feedback_test","","","","","","","","",""
"1178","","j","psychophysics","60","338819","0.0-8.0-1.0-1.0-0.0-0.25","5","4","5","4","3","5","3","4","4","5","5","1","0","0","1","0","1","2","1","5","4","5","4","5","4","4","3","5","4","5","7","5","5","4","4","4","4","5","5","5","3","4","5","2","5","3","4","2","1","4","4","6","3","5","4","5","3","5","4","2","4","3","4","3","7","3","5","3","7","3","4","7","3","2","6","1","7","3","2","792475678095319042","李","438","Male","[""坏我"",""好我"",""好他"",""坏他""]","[""弱我"",""强我"",""强他"",""弱他""]","","","","","","","","nonmatch","","","","","","","","","","key","j","16.661240310077428","768","428","j","true","nonmatch","img/ellipse.png","强他","弱他","prac_ALT2_ability","practice_ability","","","","","","","","",""
"null","<span style='color:GreenYellow; font-size: 70px;'>正确! </span>","null","html-keyboard-response","61","339320","0.0-8.0-1.0-1.0-0.0-1.25","5","4","5","4","3","5","3","4","4","5","5","1","0","0","1","0","1","2","1","5","4","5","4","5","4","4","3","5","4","5","7","5","5","4","4","4","4","5","5","5","3","4","5","2","5","3","4","2","1","4","4","6","3","5","4","5","3","5","4","2","4","3","4","3","7","3","5","3","7","3","4","7","3","2","6","1","7","3","2","792475678095319042","李","438","Male","[""坏我"",""好我"",""好他"",""坏他""]","[""弱我"",""强我"",""强他"",""弱他""]","","","","","","","","","","","","","","","","","","","","","","","","","","","","","","feedback_test","","","","","","","","",""
"982","","j","psychophysics","62","341304","0.0-8.0-1.0-1.0-0.0-0.26","5","4","5","4","3","5","3","4","4","5","5","1","0","0","1","0","1","2","1","5","4","5","4","5","4","4","3","5","4","5","7","5","5","4","4","4","4","5","5","5","3","4","5","2","5","3","4","2","1","4","4","6","3","5","4","5","3","5","4","2","4","3","4","3","7","3","5","3","7","3","4","7","3","2","6","1","7","3","2","792475678095319042","李","438","Male","[""坏我"",""好我"",""好他"",""坏他""]","[""弱我"",""强我"",""强他"",""弱他""]","","","","","","","","nonmatch","","","","","","","","","","key","j","16.664102564102663","768","428","j","true","nonmatch","img/hexagon.png","弱他","弱我","prac_ALT2_ability","practice_ability","","","","","","","","",""
"null","<span style='color:GreenYellow; font-size: 70px;'>正确! </span>","null","html-keyboard-response","63","341806","0.0-8.0-1.0-1.0-0.0-1.26","5","4","5","4","3","5","3","4","4","5","5","1","0","0","1","0","1","2","1","5","4","5","4","5","4","4","3","5","4","5","7","5","5","4","4","4","4","5","5","5","3","4","5","2","5","3","4","2","1","4","4","6","3","5","4","5","3","5","4","2","4","3","4","3","7","3","5","3","7","3","4","7","3","2","6","1","7","3","2","792475678095319042","李","438","Male","[""坏我"",""好我"",""好他"",""坏他""]","[""弱我"",""强我"",""强他"",""弱他""]","","","","","","","","","","","","","","","","","","","","","","","","","","","","","","feedback_test","","","","","","","","",""
"908","","f","psychophysics","64","343715","0.0-8.0-1.0-1.0-0.0-0.27","5","4","5","4","3","5","3","4","4","5","5","1","0","0","1","0","1","2","1","5","4","5","4","5","4","4","3","5","4","5","7","5","5","4","4","4","4","5","5","5","3","4","5","2","5","3","4","2","1","4","4","6","3","5","4","5","3","5","4","2","4","3","4","3","7","3","5","3","7","3","4","7","3","2","6","1","7","3","2","792475678095319042","李","438","Male","[""坏我"",""好我"",""好他"",""坏他""]","[""弱我"",""强我"",""强他"",""弱他""]","","","","","","","","match","","","","","","","","","","key","f","16.65929203539823","768","428","f","true","match","img/hexagon.png","弱我","弱我","prac_ALT2_ability","practice_ability","","","","","","","","",""
"null","<span style='color:GreenYellow; font-size: 70px;'>正确! </span>","null","html-keyboard-response","65","344216","0.0-8.0-1.0-1.0-0.0-1.27","5","4","5","4","3","5","3","4","4","5","5","1","0","0","1","0","1","2","1","5","4","5","4","5","4","4","3","5","4","5","7","5","5","4","4","4","4","5","5","5","3","4","5","2","5","3","4","2","1","4","4","6","3","5","4","5","3","5","4","2","4","3","4","3","7","3","5","3","7","3","4","7","3","2","6","1","7","3","2","792475678095319042","李","438","Male","[""坏我"",""好我"",""好他"",""坏他""]","[""弱我"",""强我"",""强他"",""弱他""]","","","","","","","","","","","","","","","","","","","","","","","","","","","","","","feedback_test","","","","","","","","",""
"1015","","f","psychophysics","66","346233","0.0-8.0-1.0-1.0-0.0-0.28","5","4","5","4","3","5","3","4","4","5","5","1","0","0","1","0","1","2","1","5","4","5","4","5","4","4","3","5","4","5","7","5","5","4","4","4","4","5","5","5","3","4","5","2","5","3","4","2","1","4","4","6","3","5","4","5","3","5","4","2","4","3","4","3","7","3","5","3","7","3","4","7","3","2","6","1","7","3","2","792475678095319042","李","438","Male","[""坏我"",""好我"",""好他"",""坏他""]","[""弱我"",""强我"",""强他"",""弱他""]","","","","","","","","match","","","","","","","","","","key","f","16.665833333333044","768","428","f","true","match","img/trapezoid.png","强他","强他","prac_ALT2_ability","practice_ability","","","","","","","","",""
"null","<span style='color:GreenYellow; font-size: 70px;'>正确! </span>","null","html-keyboard-response","67","346734","0.0-8.0-1.0-1.0-0.0-1.28","5","4","5","4","3","5","3","4","4","5","5","1","0","0","1","0","1","2","1","5","4","5","4","5","4","4","3","5","4","5","7","5","5","4","4","4","4","5","5","5","3","4","5","2","5","3","4","2","1","4","4","6","3","5","4","5","3","5","4","2","4","3","4","3","7","3","5","3","7","3","4","7","3","2","6","1","7","3","2","792475678095319042","李","438","Male","[""坏我"",""好我"",""好他"",""坏他""]","[""弱我"",""强我"",""强他"",""弱他""]","","","","","","","","","","","","","","","","","","","","","","","","","","","","","","feedback_test","","","","","","","","",""
"736","","f","psychophysics","68","348472","0.0-8.0-1.0-1.0-0.0-0.29","5","4","5","4","3","5","3","4","4","5","5","1","0","0","1","0","1","2","1","5","4","5","4","5","4","4","3","5","4","5","7","5","5","4","4","4","4","5","5","5","3","4","5","2","5","3","4","2","1","4","4","6","3","5","4","5","3","5","4","2","4","3","4","3","7","3","5","3","7","3","4","7","3","2","6","1","7","3","2","792475678095319042","李","438","Male","[""坏我"",""好我"",""好他"",""坏他""]","[""弱我"",""强我"",""强他"",""弱他""]","","","","","","","","match","","","","","","","","","","key","f","16.665384615384728","768","428","f","true","match","img/trapezoid.png","强他","强他","prac_ALT2_ability","practice_ability","","","","","","","","",""
"null","<span style='color:GreenYellow; font-size: 70px;'>正确! </span>","null","html-keyboard-response","69","348973","0.0-8.0-1.0-1.0-0.0-1.29","5","4","5","4","3","5","3","4","4","5","5","1","0","0","1","0","1","2","1","5","4","5","4","5","4","4","3","5","4","5","7","5","5","4","4","4","4","5","5","5","3","4","5","2","5","3","4","2","1","4","4","6","3","5","4","5","3","5","4","2","4","3","4","3","7","3","5","3","7","3","4","7","3","2","6","1","7","3","2","792475678095319042","李","438","Male","[""坏我"",""好我"",""好他"",""坏他""]","[""弱我"",""强我"",""强他"",""弱他""]","","","","","","","","","","","","","","","","","","","","","","","","","","","","","","feedback_test","","","","","","","","",""
"869","","j","psychophysics","70","350844","0.0-8.0-1.0-1.0-0.0-0.30","5","4","5","4","3","5","3","4","4","5","5","1","0","0","1","0","1","2","1","5","4","5","4","5","4","4","3","5","4","5","7","5","5","4","4","4","4","5","5","5","3","4","5","2","5","3","4","2","1","4","4","6","3","5","4","5","3","5","4","2","4","3","4","3","7","3","5","3","7","3","4","7","3","2","6","1","7","3","2","792475678095319042","李","438","Male","[""坏我"",""好我"",""好他"",""坏他""]","[""弱我"",""强我"",""强他"",""弱他""]","","","","","","","","nonmatch","","","","","","","","","","key","j","16.66396396396407","768","428","j","true","nonmatch","img/trapezoid.png","强我","强他","prac_ALT2_ability","practice_ability","","","","","","","","",""
"null","<span style='color:GreenYellow; font-size: 70px;'>正确! </span>","null","html-keyboard-response","71","351346","0.0-8.0-1.0-1.0-0.0-1.30","5","4","5","4","3","5","3","4","4","5","5","1","0","0","1","0","1","2","1","5","4","5","4","5","4","4","3","5","4","5","7","5","5","4","4","4","4","5","5","5","3","4","5","2","5","3","4","2","1","4","4","6","3","5","4","5","3","5","4","2","4","3","4","3","7","3","5","3","7","3","4","7","3","2","6","1","7","3","2","792475678095319042","李","438","Male","[""坏我"",""好我"",""好他"",""坏他""]","[""弱我"",""强我"",""强他"",""弱他""]","","","","","","","","","","","","","","","","","","","","","","","","","","","","","","feedback_test","","","","","","","","",""
"894","","j","psychophysics","72","353242","0.0-8.0-1.0-1.0-0.0-0.31","5","4","5","4","3","5","3","4","4","5","5","1","0","0","1","0","1","2","1","5","4","5","4","5","4","4","3","5","4","5","7","5","5","4","4","4","4","5","5","5","3","4","5","2","5","3","4","2","1","4","4","6","3","5","4","5","3","5","4","2","4","3","4","3","7","3","5","3","7","3","4","7","3","2","6","1","7","3","2","792475678095319042","李","438","Male","[""坏我"",""好我"",""好他"",""坏他""]","[""弱我"",""强我"",""强他"",""弱他""]","","","","","","","","nonmatch","","","","","","","","","","key","j","16.662831858406772","768","428","j","true","nonmatch","img/trapezoid.png","弱我","强他","prac_ALT2_ability","practice_ability","","","","","","","","",""
"null","<span style='color:GreenYellow; font-size: 70px;'>正确! </span>","null","html-keyboard-response","73","353743","0.0-8.0-1.0-1.0-0.0-1.31","5","4","5","4","3","5","3","4","4","5","5","1","0","0","1","0","1","2","1","5","4","5","4","5","4","4","3","5","4","5","7","5","5","4","4","4","4","5","5","5","3","4","5","2","5","3","4","2","1","4","4","6","3","5","4","5","3","5","4","2","4","3","4","3","7","3","5","3","7","3","4","7","3","2","6","1","7","3","2","792475678095319042","李","438","Male","[""坏我"",""好我"",""好他"",""坏他""]","[""弱我"",""强我"",""强他"",""弱他""]","","","","","","","","","","","","","","","","","","","","","","","","","","","","","","feedback_test","","","","","","","","",""
"858","","f","psychophysics","74","355603","0.0-8.0-1.0-1.0-0.0-0.32","5","4","5","4","3","5","3","4","4","5","5","1","0","0","1","0","1","2","1","5","4","5","4","5","4","4","3","5","4","5","7","5","5","4","4","4","4","5","5","5","3","4","5","2","5","3","4","2","1","4","4","6","3","5","4","5","3","5","4","2","4","3","4","3","7","3","5","3","7","3","4","7","3","2","6","1","7","3","2","792475678095319042","李","438","Male","[""坏我"",""好我"",""好他"",""坏他""]","[""弱我"",""强我"",""强他"",""弱他""]","","","","","","","","match","","","","","","","","","","key","f","16.66486486486476","768","428","f","true","match","img/hexagon.png","弱我","弱我","prac_ALT2_ability","practice_ability","","","","","","","","",""
"null","<span style='color:GreenYellow; font-size: 70px;'>正确! </span>","null","html-keyboard-response","75","356114","0.0-8.0-1.0-1.0-0.0-1.32","5","4","5","4","3","5","3","4","4","5","5","1","0","0","1","0","1","2","1","5","4","5","4","5","4","4","3","5","4","5","7","5","5","4","4","4","4","5","5","5","3","4","5","2","5","3","4","2","1","4","4","6","3","5","4","5","3","5","4","2","4","3","4","3","7","3","5","3","7","3","4","7","3","2","6","1","7","3","2","792475678095319042","李","438","Male","[""坏我"",""好我"",""好他"",""坏他""]","[""弱我"",""强我"",""强他"",""弱他""]","","","","","","","","","","","","","","","","","","","","","","","","","","","","","","feedback_test","","","","","","","","",""
"975","","f","psychophysics","76","358090","0.0-8.0-1.0-1.0-0.0-0.33","5","4","5","4","3","5","3","4","4","5","5","1","0","0","1","0","1","2","1","5","4","5","4","5","4","4","3","5","4","5","7","5","5","4","4","4","4","5","5","5","3","4","5","2","5","3","4","2","1","4","4","6","3","5","4","5","3","5","4","2","4","3","4","3","7","3","5","3","7","3","4","7","3","2","6","1","7","3","2","792475678095319042","李","438","Male","[""坏我"",""好我"",""好他"",""坏他""]","[""弱我"",""强我"",""强他"",""弱他""]","","","","","","","","match","","","","","","","","","","key","f","16.64786324786315","768","428","f","true","match","img/triangle.png","强我","强我","prac_ALT2_ability","practice_ability","","","","","","","","",""
"null","<span style='color:GreenYellow; font-size: 70px;'>正确! </span>","null","html-keyboard-response","77","358591","0.0-8.0-1.0-1.0-0.0-1.33","5","4","5","4","3","5","3","4","4","5","5","1","0","0","1","0","1","2","1","5","4","5","4","5","4","4","3","5","4","5","7","5","5","4","4","4","4","5","5","5","3","4","5","2","5","3","4","2","1","4","4","6","3","5","4","5","3","5","4","2","4","3","4","3","7","3","5","3","7","3","4","7","3","2","6","1","7","3","2","792475678095319042","李","438","Male","[""坏我"",""好我"",""好他"",""坏他""]","[""弱我"",""强我"",""强他"",""弱他""]","","","","","","","","","","","","","","","","","","","","","","","","","","","","","","feedback_test","","","","","","","","",""
"1093","","f","psychophysics","78","360686","0.0-8.0-1.0-1.0-0.0-0.34","5","4","5","4","3","5","3","4","4","5","5","1","0","0","1","0","1","2","1","5","4","5","4","5","4","4","3","5","4","5","7","5","5","4","4","4","4","5","5","5","3","4","5","2","5","3","4","2","1","4","4","6","3","5","4","5","3","5","4","2","4","3","4","3","7","3","5","3","7","3","4","7","3","2","6","1","7","3","2","792475678095319042","李","438","Male","[""坏我"",""好我"",""好他"",""坏他""]","[""弱我"",""强我"",""强他"",""弱他""]","","","","","","","","match","","","","","","","","","","key","f","16.665600000000094","768","428","f","true","match","img/ellipse.png","弱他","弱他","prac_ALT2_ability","practice_ability","","","","","","","","",""
"null","<span style='color:GreenYellow; font-size: 70px;'>正确! </span>","null","html-keyboard-response","79","361187","0.0-8.0-1.0-1.0-0.0-1.34","5","4","5","4","3","5","3","4","4","5","5","1","0","0","1","0","1","2","1","5","4","5","4","5","4","4","3","5","4","5","7","5","5","4","4","4","4","5","5","5","3","4","5","2","5","3","4","2","1","4","4","6","3","5","4","5","3","5","4","2","4","3","4","3","7","3","5","3","7","3","4","7","3","2","6","1","7","3","2","792475678095319042","李","438","Male","[""坏我"",""好我"",""好他"",""坏他""]","[""弱我"",""强我"",""强他"",""弱他""]","","","","","","","","","","","","","","","","","","","","","","","","","","","","","","feedback_test","","","","","","","","",""
"936","","f","psychophysics","80","363125","0.0-8.0-1.0-1.0-0.0-0.35","5","4","5","4","3","5","3","4","4","5","5","1","0","0","1","0","1","2","1","5","4","5","4","5","4","4","3","5","4","5","7","5","5","4","4","4","4","5","5","5","3","4","5","2","5","3","4","2","1","4","4","6","3","5","4","5","3","5","4","2","4","3","4","3","7","3","5","3","7","3","4","7","3","2","6","1","7","3","2","792475678095319042","李","438","Male","[""坏我"",""好我"",""好他"",""坏他""]","[""弱我"",""强我"",""强他"",""弱他""]","","","","","","","","match","","","","","","","","","","key","f","16.66173913043458","768","428","f","true","match","img/triangle.png","强我","强我","prac_ALT2_ability","practice_ability","","","","","","","","",""
"null","<span style='color:GreenYellow; font-size: 70px;'>正确! </span>","null","html-keyboard-response","81","363625","0.0-8.0-1.0-1.0-0.0-1.35","5","4","5","4","3","5","3","4","4","5","5","1","0","0","1","0","1","2","1","5","4","5","4","5","4","4","3","5","4","5","7","5","5","4","4","4","4","5","5","5","3","4","5","2","5","3","4","2","1","4","4","6","3","5","4","5","3","5","4","2","4","3","4","3","7","3","5","3","7","3","4","7","3","2","6","1","7","3","2","792475678095319042","李","438","Male","[""坏我"",""好我"",""好他"",""坏他""]","[""弱我"",""强我"",""强他"",""弱他""]","","","","","","","","","","","","","","","","","","","","","","","","","","","","","","feedback_test","","","","","","","","",""
"655","","j","psychophysics","82","365283","0.0-8.0-1.0-1.0-0.0-0.36","5","4","5","4","3","5","3","4","4","5","5","1","0","0","1","0","1","2","1","5","4","5","4","5","4","4","3","5","4","5","7","5","5","4","4","4","4","5","5","5","3","4","5","2","5","3","4","2","1","4","4","6","3","5","4","5","3","5","4","2","4","3","4","3","7","3","5","3","7","3","4","7","3","2","6","1","7","3","2","792475678095319042","李","438","Male","[""坏我"",""好我"",""好他"",""坏他""]","[""弱我"",""强我"",""强他"",""弱他""]","","","","","","","","nonmatch","","","","","","","","","","key","j","16.665656565656214","768","428","j","true","nonmatch","img/triangle.png","弱他","强我","prac_ALT2_ability","practice_ability","","","","","","","","",""
"null","<span style='color:GreenYellow; font-size: 70px;'>正确! </span>","null","html-keyboard-response","83","365784","0.0-8.0-1.0-1.0-0.0-1.36","5","4","5","4","3","5","3","4","4","5","5","1","0","0","1","0","1","2","1","5","4","5","4","5","4","4","3","5","4","5","7","5","5","4","4","4","4","5","5","5","3","4","5","2","5","3","4","2","1","4","4","6","3","5","4","5","3","5","4","2","4","3","4","3","7","3","5","3","7","3","4","7","3","2","6","1","7","3","2","792475678095319042","李","438","Male","[""坏我"",""好我"",""好他"",""坏他""]","[""弱我"",""强我"",""强他"",""弱他""]","","","","","","","","","","","","","","","","","","","","","","","","","","","","","","feedback_test","","","","","","","","",""
"942","","j","psychophysics","84","367728","0.0-8.0-1.0-1.0-0.0-0.37","5","4","5","4","3","5","3","4","4","5","5","1","0","0","1","0","1","2","1","5","4","5","4","5","4","4","3","5","4","5","7","5","5","4","4","4","4","5","5","5","3","4","5","2","5","3","4","2","1","4","4","6","3","5","4","5","3","5","4","2","4","3","4","3","7","3","5","3","7","3","4","7","3","2","6","1","7","3","2","792475678095319042","李","438","Male","[""坏我"",""好我"",""好他"",""坏他""]","[""弱我"",""强我"",""强他"",""弱他""]","","","","","","","","nonmatch","","","","","","","","","","key","j","16.66173913043458","768","428","j","true","nonmatch","img/ellipse.png","弱我","弱他","prac_ALT2_ability","practice_ability","","","","","","","","",""
"null","<span style='color:GreenYellow; font-size: 70px;'>正确! </span>","null","html-keyboard-response","85","368241","0.0-8.0-1.0-1.0-0.0-1.37","5","4","5","4","3","5","3","4","4","5","5","1","0","0","1","0","1","2","1","5","4","5","4","5","4","4","3","5","4","5","7","5","5","4","4","4","4","5","5","5","3","4","5","2","5","3","4","2","1","4","4","6","3","5","4","5","3","5","4","2","4","3","4","3","7","3","5","3","7","3","4","7","3","2","6","1","7","3","2","792475678095319042","李","438","Male","[""坏我"",""好我"",""好他"",""坏他""]","[""弱我"",""强我"",""强他"",""弱他""]","","","","","","","","","","","","","","","","","","","","","","","","","","","","","","feedback_test","","","","","","","","",""
"1040","","f","psychophysics","86","370282","0.0-8.0-1.0-1.0-0.0-0.38","5","4","5","4","3","5","3","4","4","5","5","1","0","0","1","0","1","2","1","5","4","5","4","5","4","4","3","5","4","5","7","5","5","4","4","4","4","5","5","5","3","4","5","2","5","3","4","2","1","4","4","6","3","5","4","5","3","5","4","2","4","3","4","3","7","3","5","3","7","3","4","7","3","2","6","1","7","3","2","792475678095319042","李","438","Male","[""坏我"",""好我"",""好他"",""坏他""]","[""弱我"",""强我"",""强他"",""弱他""]","","","","","","","","match","","","","","","","","","","key","f","16.65983606557377","768","428","f","true","match","img/triangle.png","强我","强我","prac_ALT2_ability","practice_ability","","","","","","","","",""
"null","<span style='color:GreenYellow; font-size: 70px;'>正确! </span>","null","html-keyboard-response","87","370783","0.0-8.0-1.0-1.0-0.0-1.38","5","4","5","4","3","5","3","4","4","5","5","1","0","0","1","0","1","2","1","5","4","5","4","5","4","4","3","5","4","5","7","5","5","4","4","4","4","5","5","5","3","4","5","2","5","3","4","2","1","4","4","6","3","5","4","5","3","5","4","2","4","3","4","3","7","3","5","3","7","3","4","7","3","2","6","1","7","3","2","792475678095319042","李","438","Male","[""坏我"",""好我"",""好他"",""坏他""]","[""弱我"",""强我"",""强他"",""弱他""]","","","","","","","","","","","","","","","","","","","","","","","","","","","","","","feedback_test","","","","","","","","",""
"748","","f","psychophysics","88","372533","0.0-8.0-1.0-1.0-0.0-0.39","5","4","5","4","3","5","3","4","4","5","5","1","0","0","1","0","1","2","1","5","4","5","4","5","4","4","3","5","4","5","7","5","5","4","4","4","4","5","5","5","3","4","5","2","5","3","4","2","1","4","4","6","3","5","4","5","3","5","4","2","4","3","4","3","7","3","5","3","7","3","4","7","3","2","6","1","7","3","2","792475678095319042","李","438","Male","[""坏我"",""好我"",""好他"",""坏他""]","[""弱我"",""强我"",""强他"",""弱他""]","","","","","","","","match","","","","","","","","","","key","f","16.66153846153835","768","428","f","true","match","img/trapezoid.png","强他","强他","prac_ALT2_ability","practice_ability","","","","","","","","",""
"null","<span style='color:GreenYellow; font-size: 70px;'>正确! </span>","null","html-keyboard-response","89","373035","0.0-8.0-1.0-1.0-0.0-1.39","5","4","5","4","3","5","3","4","4","5","5","1","0","0","1","0","1","2","1","5","4","5","4","5","4","4","3","5","4","5","7","5","5","4","4","4","4","5","5","5","3","4","5","2","5","3","4","2","1","4","4","6","3","5","4","5","3","5","4","2","4","3","4","3","7","3","5","3","7","3","4","7","3","2","6","1","7","3","2","792475678095319042","李","438","Male","[""坏我"",""好我"",""好他"",""坏他""]","[""弱我"",""强我"",""强他"",""弱他""]","","","","","","","","","","","","","","","","","","","","","","","","","","","","","","feedback_test","","","","","","","","",""
"930","","f","psychophysics","90","374968","0.0-8.0-1.0-1.0-0.0-0.40","5","4","5","4","3","5","3","4","4","5","5","1","0","0","1","0","1","2","1","5","4","5","4","5","4","4","3","5","4","5","7","5","5","4","4","4","4","5","5","5","3","4","5","2","5","3","4","2","1","4","4","6","3","5","4","5","3","5","4","2","4","3","4","3","7","3","5","3","7","3","4","7","3","2","6","1","7","3","2","792475678095319042","李","438","Male","[""坏我"",""好我"",""好他"",""坏他""]","[""弱我"",""强我"",""强他"",""弱他""]","","","","","","","","match","","","","","","","","","","key","f","16.66260869565177","768","428","f","true","match","img/ellipse.png","弱他","弱他","prac_ALT2_ability","practice_ability","","","","","","","","",""
"null","<span style='color:GreenYellow; font-size: 70px;'>正确! </span>","null","html-keyboard-response","91","375468","0.0-8.0-1.0-1.0-0.0-1.40","5","4","5","4","3","5","3","4","4","5","5","1","0","0","1","0","1","2","1","5","4","5","4","5","4","4","3","5","4","5","7","5","5","4","4","4","4","5","5","5","3","4","5","2","5","3","4","2","1","4","4","6","3","5","4","5","3","5","4","2","4","3","4","3","7","3","5","3","7","3","4","7","3","2","6","1","7","3","2","792475678095319042","李","438","Male","[""坏我"",""好我"",""好他"",""坏他""]","[""弱我"",""强我"",""强他"",""弱他""]","","","","","","","","","","","","","","","","","","","","","","","","","","","","","","feedback_test","","","","","","","","",""
"962","","f","psychophysics","92","377431","0.0-8.0-1.0-1.0-0.0-0.41","5","4","5","4","3","5","3","4","4","5","5","1","0","0","1","0","1","2","1","5","4","5","4","5","4","4","3","5","4","5","7","5","5","4","4","4","4","5","5","5","3","4","5","2","5","3","4","2","1","4","4","6","3","5","4","5","3","5","4","2","4","3","4","3","7","3","5","3","7","3","4","7","3","2","6","1","7","3","2","792475678095319042","李","438","Male","[""坏我"",""好我"",""好他"",""坏他""]","[""弱我"",""强我"",""强他"",""弱他""]","","","","","","","","match","","","","","","","","","","key","f","16.664102564102663","768","428","j","false","nonmatch","img/trapezoid.png","弱他","强他","prac_ALT2_ability","practice_ability","","","","","","","","",""
"null","<span style='color:red; font-size: 70px;'>错误! </span>","null","html-keyboard-response","93","377933","0.0-8.0-1.0-1.0-0.0-1.41","5","4","5","4","3","5","3","4","4","5","5","1","0","0","1","0","1","2","1","5","4","5","4","5","4","4","3","5","4","5","7","5","5","4","4","4","4","5","5","5","3","4","5","2","5","3","4","2","1","4","4","6","3","5","4","5","3","5","4","2","4","3","4","3","7","3","5","3","7","3","4","7","3","2","6","1","7","3","2","792475678095319042","李","438","Male","[""坏我"",""好我"",""好他"",""坏他""]","[""弱我"",""强我"",""强他"",""弱他""]","","","","","","","","","","","","","","","","","","","","","","","","","","","","","","feedback_test","","","","","","","","",""
"1121","","j","psychophysics","94","380055","0.0-8.0-1.0-1.0-0.0-0.42","5","4","5","4","3","5","3","4","4","5","5","1","0","0","1","0","1","2","1","5","4","5","4","5","4","4","3","5","4","5","7","5","5","4","4","4","4","5","5","5","3","4","5","2","5","3","4","2","1","4","4","6","3","5","4","5","3","5","4","2","4","3","4","3","7","3","5","3","7","3","4","7","3","2","6","1","7","3","2","792475678095319042","李","438","Male","[""坏我"",""好我"",""好他"",""坏他""]","[""弱我"",""强我"",""强他"",""弱他""]","","","","","","","","nonmatch","","","","","","","","","","key","j","16.66269841269841","768","428","j","true","nonmatch","img/hexagon.png","强他","弱我","prac_ALT2_ability","practice_ability","","","","","","","","",""
"null","<span style='color:GreenYellow; font-size: 70px;'>正确! </span>","null","html-keyboard-response","95","380556","0.0-8.0-1.0-1.0-0.0-1.42","5","4","5","4","3","5","3","4","4","5","5","1","0","0","1","0","1","2","1","5","4","5","4","5","4","4","3","5","4","5","7","5","5","4","4","4","4","5","5","5","3","4","5","2","5","3","4","2","1","4","4","6","3","5","4","5","3","5","4","2","4","3","4","3","7","3","5","3","7","3","4","7","3","2","6","1","7","3","2","792475678095319042","李","438","Male","[""坏我"",""好我"",""好他"",""坏他""]","[""弱我"",""强我"",""强他"",""弱他""]","","","","","","","","","","","","","","","","","","","","","","","","","","","","","","feedback_test","","","","","","","","",""
"857","","f","psychophysics","96","382414","0.0-8.0-1.0-1.0-0.0-0.43","5","4","5","4","3","5","3","4","4","5","5","1","0","0","1","0","1","2","1","5","4","5","4","5","4","4","3","5","4","5","7","5","5","4","4","4","4","5","5","5","3","4","5","2","5","3","4","2","1","4","4","6","3","5","4","5","3","5","4","2","4","3","4","3","7","3","5","3","7","3","4","7","3","2","6","1","7","3","2","792475678095319042","李","438","Male","[""坏我"",""好我"",""好他"",""坏他""]","[""弱我"",""强我"",""强他"",""弱他""]","","","","","","","","match","","","","","","","","","","key","f","16.665765765765975","768","428","f","true","match","img/ellipse.png","弱他","弱他","prac_ALT2_ability","practice_ability","","","","","","","","",""
"null","<span style='color:GreenYellow; font-size: 70px;'>正确! </span>","null","html-keyboard-response","97","382915","0.0-8.0-1.0-1.0-0.0-1.43","5","4","5","4","3","5","3","4","4","5","5","1","0","0","1","0","1","2","1","5","4","5","4","5","4","4","3","5","4","5","7","5","5","4","4","4","4","5","5","5","3","4","5","2","5","3","4","2","1","4","4","6","3","5","4","5","3","5","4","2","4","3","4","3","7","3","5","3","7","3","4","7","3","2","6","1","7","3","2","792475678095319042","李","438","Male","[""坏我"",""好我"",""好他"",""坏他""]","[""弱我"",""强我"",""强他"",""弱他""]","","","","","","","","","","","","","","","","","","","","","","","","","","","","","","feedback_test","","","","","","","","",""
"1198","","j","psychophysics","98","385114","0.0-8.0-1.0-1.0-0.0-0.44","5","4","5","4","3","5","3","4","4","5","5","1","0","0","1","0","1","2","1","5","4","5","4","5","4","4","3","5","4","5","7","5","5","4","4","4","4","5","5","5","3","4","5","2","5","3","4","2","1","4","4","6","3","5","4","5","3","5","4","2","4","3","4","3","7","3","5","3","7","3","4","7","3","2","6","1","7","3","2","792475678095319042","李","438","Male","[""坏我"",""好我"",""好他"",""坏他""]","[""弱我"",""强我"",""强他"",""弱他""]","","","","","","","","nonmatch","","","","","","","","","","key","j","16.66412213740458","768","428","f","false","match","img/hexagon.png","弱我","弱我","prac_ALT2_ability","practice_ability","","","","","","","","",""
"null","<span style='color:red; font-size: 70px;'>错误! </span>","null","html-keyboard-response","99","385615","0.0-8.0-1.0-1.0-0.0-1.44","5","4","5","4","3","5","3","4","4","5","5","1","0","0","1","0","1","2","1","5","4","5","4","5","4","4","3","5","4","5","7","5","5","4","4","4","4","5","5","5","3","4","5","2","5","3","4","2","1","4","4","6","3","5","4","5","3","5","4","2","4","3","4","3","7","3","5","3","7","3","4","7","3","2","6","1","7","3","2","792475678095319042","李","438","Male","[""坏我"",""好我"",""好他"",""坏他""]","[""弱我"",""强我"",""强他"",""弱他""]","","","","","","","","","","","","","","","","","","","","","","","","","","","","","","feedback_test","","","","","","","","",""
"886","","j","psychophysics","100","387502","0.0-8.0-1.0-1.0-0.0-0.45","5","4","5","4","3","5","3","4","4","5","5","1","0","0","1","0","1","2","1","5","4","5","4","5","4","4","3","5","4","5","7","5","5","4","4","4","4","5","5","5","3","4","5","2","5","3","4","2","1","4","4","6","3","5","4","5","3","5","4","2","4","3","4","3","7","3","5","3","7","3","4","7","3","2","6","1","7","3","2","792475678095319042","李","438","Male","[""坏我"",""好我"",""好他"",""坏他""]","[""弱我"",""强我"",""强他"",""弱他""]","","","","","","","","nonmatch","","","","","","","","","","key","j","16.662500000000104","768","428","j","true","nonmatch","img/triangle.png","弱我","强我","prac_ALT2_ability","practice_ability","","","","","","","","",""
"null","<span style='color:GreenYellow; font-size: 70px;'>正确! </span>","null","html-keyboard-response","101","388004","0.0-8.0-1.0-1.0-0.0-1.45","5","4","5","4","3","5","3","4","4","5","5","1","0","0","1","0","1","2","1","5","4","5","4","5","4","4","3","5","4","5","7","5","5","4","4","4","4","5","5","5","3","4","5","2","5","3","4","2","1","4","4","6","3","5","4","5","3","5","4","2","4","3","4","3","7","3","5","3","7","3","4","7","3","2","6","1","7","3","2","792475678095319042","李","438","Male","[""坏我"",""好我"",""好他"",""坏他""]","[""弱我"",""强我"",""强他"",""弱他""]","","","","","","","","","","","","","","","","","","","","","","","","","","","","","","feedback_test","","","","","","","","",""
"868","","j","psychophysics","102","389873","0.0-8.0-1.0-1.0-0.0-0.46","5","4","5","4","3","5","3","4","4","5","5","1","0","0","1","0","1","2","1","5","4","5","4","5","4","4","3","5","4","5","7","5","5","4","4","4","4","5","5","5","3","4","5","2","5","3","4","2","1","4","4","6","3","5","4","5","3","5","4","2","4","3","4","3","7","3","5","3","7","3","4","7","3","2","6","1","7","3","2","792475678095319042","李","438","Male","[""坏我"",""好我"",""好他"",""坏他""]","[""弱我"",""强我"",""强他"",""弱他""]","","","","","","","","nonmatch","","","","","","","","","","key","j","16.665765765765975","768","428","j","true","nonmatch","img/triangle.png","强他","强我","prac_ALT2_ability","practice_ability","","","","","","","","",""
"null","<span style='color:GreenYellow; font-size: 70px;'>正确! </span>","null","html-keyboard-response","103","390374","0.0-8.0-1.0-1.0-0.0-1.46","5","4","5","4","3","5","3","4","4","5","5","1","0","0","1","0","1","2","1","5","4","5","4","5","4","4","3","5","4","5","7","5","5","4","4","4","4","5","5","5","3","4","5","2","5","3","4","2","1","4","4","6","3","5","4","5","3","5","4","2","4","3","4","3","7","3","5","3","7","3","4","7","3","2","6","1","7","3","2","792475678095319042","李","438","Male","[""坏我"",""好我"",""好他"",""坏他""]","[""弱我"",""强我"",""强他"",""弱他""]","","","","","","","","","","","","","","","","","","","","","","","","","","","","","","feedback_test","","","","","","","","",""
"919","","j","psychophysics","104","392294","0.0-8.0-1.0-1.0-0.0-0.47","5","4","5","4","3","5","3","4","4","5","5","1","0","0","1","0","1","2","1","5","4","5","4","5","4","4","3","5","4","5","7","5","5","4","4","4","4","5","5","5","3","4","5","2","5","3","4","2","1","4","4","6","3","5","4","5","3","5","4","2","4","3","4","3","7","3","5","3","7","3","4","7","3","2","6","1","7","3","2","792475678095319042","李","438","Male","[""坏我"",""好我"",""好他"",""坏他""]","[""弱我"",""强我"",""强他"",""弱他""]","","","","","","","","nonmatch","","","","","","","","","","key","j","16.65614035087709","768","428","j","true","nonmatch","img/ellipse.png","强我","弱他","prac_ALT2_ability","practice_ability","","","","","","","","",""
"null","<span style='color:GreenYellow; font-size: 70px;'>正确! </span>","null","html-keyboard-response","105","392795","0.0-8.0-1.0-1.0-0.0-1.47","5","4","5","4","3","5","3","4","4","5","5","1","0","0","1","0","1","2","1","5","4","5","4","5","4","4","3","5","4","5","7","5","5","4","4","4","4","5","5","5","3","4","5","2","5","3","4","2","1","4","4","6","3","5","4","5","3","5","4","2","4","3","4","3","7","3","5","3","7","3","4","7","3","2","6","1","7","3","2","792475678095319042","李","438","Male","[""坏我"",""好我"",""好他"",""坏他""]","[""弱我"",""强我"",""强他"",""弱他""]","","","","","","","","","","","","","","","","","","","","","","","","","","","","","","feedback_test","","","","","","","","",""
"8209","<style>.context{color:white; font-size: 35px; line-height:40px}</style>                          <div><p class='context'>您正确回答了83% 的试次。</p><p class='context'>您的平均反应时为947毫秒。</p><p class='context'>恭喜您完成练习。按空格键进入正式实验。</p><p class='footer' style='color:white;font-size: 35px; line-height:40px;'>请在进入正式实验实验之前将您的<span style='color: lightgreen;'>食指</span>放在电脑键盘的相应键位上进行按键。</p>"," ","html-keyboard-response","106","401006","0.0-8.0-1.0-2.0","5","4","5","4","3","5","3","4","4","5","5","1","0","0","1","0","1","2","1","5","4","5","4","5","4","4","3","5","4","5","7","5","5","4","4","4","4","5","5","5","3","4","5","2","5","3","4","2","1","4","4","6","3","5","4","5","3","5","4","2","4","3","4","3","7","3","5","3","7","3","4","7","3","2","6","1","7","3","2","792475678095319042","李","438","Male","[""坏我"",""好我"",""好他"",""坏他""]","[""弱我"",""强我"",""强他"",""弱他""]","","","","","","","","","","","","","","","","","","","","","","","","","","","","","","","","","","","","","","",""
"1821","
  <p style='color: white; font-size: 22px'>请您将手指放在按键上，准备进入正式的匹配任务。</p>
  <p> <div style = ""color: green""><按空格键进入下一阶段的匹配任务></div></p>
  "," ","html-keyboard-response","107","402830","0.0-8.0-1.0-3.0","5","4","5","4","3","5","3","4","4","5","5","1","0","0","1","0","1","2","1","5","4","5","4","5","4","4","3","5","4","5","7","5","5","4","4","4","4","5","5","5","3","4","5","2","5","3","4","2","1","4","4","6","3","5","4","5","3","5","4","2","4","3","4","3","7","3","5","3","7","3","4","7","3","2","6","1","7","3","2","792475678095319042","李","438","Male","[""坏我"",""好我"",""好他"",""坏他""]","[""弱我"",""强我"",""强他"",""弱他""]","","","","","","","","","","","","","","","","","","","","","","","","","","","","","","","","","","","","","","",""
"841","","f","psychophysics","108","404673","0.0-8.0-1.0-4.0-0.0-0.0","5","4","5","4","3","5","3","4","4","5","5","1","0","0","1","0","1","2","1","5","4","5","4","5","4","4","3","5","4","5","7","5","5","4","4","4","4","5","5","5","3","4","5","2","5","3","4","2","1","4","4","6","3","5","4","5","3","5","4","2","4","3","4","3","7","3","5","3","7","3","4","7","3","2","6","1","7","3","2","792475678095319042","李","438","Male","[""坏我"",""好我"",""好他"",""坏他""]","[""弱我"",""强我"",""强他"",""弱他""]","","","","","","","","match","","","","","","","","","","key","f","16.660909090908667","768","428","f","true","match","img/ellipse.png","弱他","弱他","ALT2","ability","","","","","","","","",""
"null","<span style='color:GreenYellow; font-size: 70px;'>正确! </span>","null","html-keyboard-response","109","405186","0.0-8.0-1.0-4.0-0.0-1.0","5","4","5","4","3","5","3","4","4","5","5","1","0","0","1","0","1","2","1","5","4","5","4","5","4","4","3","5","4","5","7","5","5","4","4","4","4","5","5","5","3","4","5","2","5","3","4","2","1","4","4","6","3","5","4","5","3","5","4","2","4","3","4","3","7","3","5","3","7","3","4","7","3","2","6","1","7","3","2","792475678095319042","李","438","Male","[""坏我"",""好我"",""好他"",""坏他""]","[""弱我"",""强我"",""强他"",""弱他""]","","","","","","","","","","","","","","","","","","","","","","","","","","","","","","feedback_test","","","","","","","","",""
"1157","","j","psychophysics","110","407344","0.0-8.0-1.0-4.0-0.0-0.1","5","4","5","4","3","5","3","4","4","5","5","1","0","0","1","0","1","2","1","5","4","5","4","5","4","4","3","5","4","5","7","5","5","4","4","4","4","5","5","5","3","4","5","2","5","3","4","2","1","4","4","6","3","5","4","5","3","5","4","2","4","3","4","3","7","3","5","3","7","3","4","7","3","2","6","1","7","3","2","792475678095319042","李","438","Male","[""坏我"",""好我"",""好他"",""坏他""]","[""弱我"",""强我"",""强他"",""弱他""]","","","","","","","","nonmatch","","","","","","","","","","key","j","16.66511627906968","768","428","j","true","nonmatch","img/triangle.png","弱他","强我","ALT2","ability","","","","","","","","",""
"null","<span style='color:GreenYellow; font-size: 70px;'>正确! </span>","null","html-keyboard-response","111","407845","0.0-8.0-1.0-4.0-0.0-1.1","5","4","5","4","3","5","3","4","4","5","5","1","0","0","1","0","1","2","1","5","4","5","4","5","4","4","3","5","4","5","7","5","5","4","4","4","4","5","5","5","3","4","5","2","5","3","4","2","1","4","4","6","3","5","4","5","3","5","4","2","4","3","4","3","7","3","5","3","7","3","4","7","3","2","6","1","7","3","2","792475678095319042","李","438","Male","[""坏我"",""好我"",""好他"",""坏他""]","[""弱我"",""强我"",""强他"",""弱他""]","","","","","","","","","","","","","","","","","","","","","","","","","","","","","","feedback_test","","","","","","","","",""
"null","","null","psychophysics","112","410048","0.0-8.0-1.0-4.0-0.0-0.2","5","4","5","4","3","5","3","4","4","5","5","1","0","0","1","0","1","2","1","5","4","5","4","5","4","4","3","5","4","5","7","5","5","4","4","4","4","5","5","5","3","4","5","2","5","3","4","2","1","4","4","6","3","5","4","5","3","5","4","2","4","3","4","3","7","3","5","3","7","3","4","7","3","2","6","1","7","3","2","792475678095319042","李","438","Male","[""坏我"",""好我"",""好他"",""坏他""]","[""弱我"",""强我"",""强他"",""弱他""]","","","","","","","","null","","","","","","","","","","key","null","16.664885496183473","768","428","f","false","match","img/hexagon.png","弱我","弱我","ALT2","ability","","","","","","","","",""
"null","<span class='add_' style='color:yellow; font-size: 70px;'> 太慢! </span>","null","html-keyboard-response","113","410549","0.0-8.0-1.0-4.0-0.0-1.2","5","4","5","4","3","5","3","4","4","5","5","1","0","0","1","0","1","2","1","5","4","5","4","5","4","4","3","5","4","5","7","5","5","4","4","4","4","5","5","5","3","4","5","2","5","3","4","2","1","4","4","6","3","5","4","5","3","5","4","2","4","3","4","3","7","3","5","3","7","3","4","7","3","2","6","1","7","3","2","792475678095319042","李","438","Male","[""坏我"",""好我"",""好他"",""坏他""]","[""弱我"",""强我"",""强他"",""弱他""]","","","","","","","","","","","","","","","","","","","","","","","","","","","","","","feedback_test","","","","","","","","",""
"809","","f","psychophysics","114","412360","0.0-8.0-1.0-4.0-0.0-0.3","5","4","5","4","3","5","3","4","4","5","5","1","0","0","1","0","1","2","1","5","4","5","4","5","4","4","3","5","4","5","7","5","5","4","4","4","4","5","5","5","3","4","5","2","5","3","4","2","1","4","4","6","3","5","4","5","3","5","4","2","4","3","4","3","7","3","5","3","7","3","4","7","3","2","6","1","7","3","2","792475678095319042","李","438","Male","[""坏我"",""好我"",""好他"",""坏他""]","[""弱我"",""强我"",""强他"",""弱他""]","","","","","","","","match","","","","","","","","","","key","f","16.666666666666668","768","428","j","false","nonmatch","img/trapezoid.png","弱我","强他","ALT2","ability","","","","","","","","",""
"null","<span style='color:red; font-size: 70px;'>错误! </span>","null","html-keyboard-response","115","412860","0.0-8.0-1.0-4.0-0.0-1.3","5","4","5","4","3","5","3","4","4","5","5","1","0","0","1","0","1","2","1","5","4","5","4","5","4","4","3","5","4","5","7","5","5","4","4","4","4","5","5","5","3","4","5","2","5","3","4","2","1","4","4","6","3","5","4","5","3","5","4","2","4","3","4","3","7","3","5","3","7","3","4","7","3","2","6","1","7","3","2","792475678095319042","李","438","Male","[""坏我"",""好我"",""好他"",""坏他""]","[""弱我"",""强我"",""强他"",""弱他""]","","","","","","","","","","","","","","","","","","","","","","","","","","","","","","feedback_test","","","","","","","","",""
"1081","","f","psychophysics","116","414943","0.0-8.0-1.0-4.0-0.0-0.4","5","4","5","4","3","5","3","4","4","5","5","1","0","0","1","0","1","2","1","5","4","5","4","5","4","4","3","5","4","5","7","5","5","4","4","4","4","5","5","5","3","4","5","2","5","3","4","2","1","4","4","6","3","5","4","5","3","5","4","2","4","3","4","3","7","3","5","3","7","3","4","7","3","2","6","1","7","3","2","792475678095319042","李","438","Male","[""坏我"",""好我"",""好他"",""坏他""]","[""弱我"",""强我"",""强他"",""弱他""]","","","","","","","","match","","","","","","","","","","key","f","16.661290322580644","768","428","f","true","match","img/triangle.png","强我","强我","ALT2","ability","","","","","","","","",""
"null","<span style='color:GreenYellow; font-size: 70px;'>正确! </span>","null","html-keyboard-response","117","415445","0.0-8.0-1.0-4.0-0.0-1.4","5","4","5","4","3","5","3","4","4","5","5","1","0","0","1","0","1","2","1","5","4","5","4","5","4","4","3","5","4","5","7","5","5","4","4","4","4","5","5","5","3","4","5","2","5","3","4","2","1","4","4","6","3","5","4","5","3","5","4","2","4","3","4","3","7","3","5","3","7","3","4","7","3","2","6","1","7","3","2","792475678095319042","李","438","Male","[""坏我"",""好我"",""好他"",""坏他""]","[""弱我"",""强我"",""强他"",""弱他""]","","","","","","","","","","","","","","","","","","","","","","","","","","","","","","feedback_test","","","","","","","","",""
"885","","f","psychophysics","118","417332","0.0-8.0-1.0-4.0-0.0-0.5","5","4","5","4","3","5","3","4","4","5","5","1","0","0","1","0","1","2","1","5","4","5","4","5","4","4","3","5","4","5","7","5","5","4","4","4","4","5","5","5","3","4","5","2","5","3","4","2","1","4","4","6","3","5","4","5","3","5","4","2","4","3","4","3","7","3","5","3","7","3","4","7","3","2","6","1","7","3","2","792475678095319042","李","438","Male","[""坏我"",""好我"",""好他"",""坏他""]","[""弱我"",""强我"",""强他"",""弱他""]","","","","","","","","match","","","","","","","","","","key","f","16.663392857142753","768","428","f","true","match","img/ellipse.png","弱他","弱他","ALT2","ability","","","","","","","","",""
"null","<span style='color:GreenYellow; font-size: 70px;'>正确! </span>","null","html-keyboard-response","119","417833","0.0-8.0-1.0-4.0-0.0-1.5","5","4","5","4","3","5","3","4","4","5","5","1","0","0","1","0","1","2","1","5","4","5","4","5","4","4","3","5","4","5","7","5","5","4","4","4","4","5","5","5","3","4","5","2","5","3","4","2","1","4","4","6","3","5","4","5","3","5","4","2","4","3","4","3","7","3","5","3","7","3","4","7","3","2","6","1","7","3","2","792475678095319042","李","438","Male","[""坏我"",""好我"",""好他"",""坏他""]","[""弱我"",""强我"",""强他"",""弱他""]","","","","","","","","","","","","","","","","","","","","","","","","","","","","","","feedback_test","","","","","","","","",""
"723","","j","psychophysics","120","419558","0.0-8.0-1.0-4.0-0.0-0.6","5","4","5","4","3","5","3","4","4","5","5","1","0","0","1","0","1","2","1","5","4","5","4","5","4","4","3","5","4","5","7","5","5","4","4","4","4","5","5","5","3","4","5","2","5","3","4","2","1","4","4","6","3","5","4","5","3","5","4","2","4","3","4","3","7","3","5","3","7","3","4","7","3","2","6","1","7","3","2","792475678095319042","李","438","Male","[""坏我"",""好我"",""好他"",""坏他""]","[""弱我"",""强我"",""强他"",""弱他""]","","","","","","","","nonmatch","","","","","","","","","","key","j","16.66601941747607","768","428","j","true","nonmatch","img/trapezoid.png","弱他","强他","ALT2","ability","","","","","","","","",""
"null","<span style='color:GreenYellow; font-size: 70px;'>正确! </span>","null","html-keyboard-response","121","420059","0.0-8.0-1.0-4.0-0.0-1.6","5","4","5","4","3","5","3","4","4","5","5","1","0","0","1","0","1","2","1","5","4","5","4","5","4","4","3","5","4","5","7","5","5","4","4","4","4","5","5","5","3","4","5","2","5","3","4","2","1","4","4","6","3","5","4","5","3","5","4","2","4","3","4","3","7","3","5","3","7","3","4","7","3","2","6","1","7","3","2","792475678095319042","李","438","Male","[""坏我"",""好我"",""好他"",""坏他""]","[""弱我"",""强我"",""强他"",""弱他""]","","","","","","","","","","","","","","","","","","","","","","","","","","","","","","feedback_test","","","","","","","","",""
"730","","f","psychophysics","122","421790","0.0-8.0-1.0-4.0-0.0-0.7","5","4","5","4","3","5","3","4","4","5","5","1","0","0","1","0","1","2","1","5","4","5","4","5","4","4","3","5","4","5","7","5","5","4","4","4","4","5","5","5","3","4","5","2","5","3","4","2","1","4","4","6","3","5","4","5","3","5","4","2","4","3","4","3","7","3","5","3","7","3","4","7","3","2","6","1","7","3","2","792475678095319042","李","438","Male","[""坏我"",""好我"",""好他"",""坏他""]","[""弱我"",""强我"",""强他"",""弱他""]","","","","","","","","match","","","","","","","","","","key","f","16.664077669902575","768","428","f","true","match","img/triangle.png","强我","强我","ALT2","ability","","","","","","","","",""
"null","<span style='color:GreenYellow; font-size: 70px;'>正确! </span>","null","html-keyboard-response","123","422291","0.0-8.0-1.0-4.0-0.0-1.7","5","4","5","4","3","5","3","4","4","5","5","1","0","0","1","0","1","2","1","5","4","5","4","5","4","4","3","5","4","5","7","5","5","4","4","4","4","5","5","5","3","4","5","2","5","3","4","2","1","4","4","6","3","5","4","5","3","5","4","2","4","3","4","3","7","3","5","3","7","3","4","7","3","2","6","1","7","3","2","792475678095319042","李","438","Male","[""坏我"",""好我"",""好他"",""坏他""]","[""弱我"",""强我"",""强他"",""弱他""]","","","","","","","","","","","","","","","","","","","","","","","","","","","","","","feedback_test","","","","","","","","",""
"null","","null","psychophysics","124","424494","0.0-8.0-1.0-4.0-0.0-0.8","5","4","5","4","3","5","3","4","4","5","5","1","0","0","1","0","1","2","1","5","4","5","4","5","4","4","3","5","4","5","7","5","5","4","4","4","4","5","5","5","3","4","5","2","5","3","4","2","1","4","4","6","3","5","4","5","3","5","4","2","4","3","4","3","7","3","5","3","7","3","4","7","3","2","6","1","7","3","2","792475678095319042","李","438","Male","[""坏我"",""好我"",""好他"",""坏他""]","[""弱我"",""强我"",""强他"",""弱他""]","","","","","","","","null","","","","","","","","","","key","null","16.66259541984724","768","428","j","false","nonmatch","img/triangle.png","强他","强我","ALT2","ability","","","","","","","","",""
"null","<span class='add_' style='color:yellow; font-size: 70px;'> 太慢! </span>","null","html-keyboard-response","125","424996","0.0-8.0-1.0-4.0-0.0-1.8","5","4","5","4","3","5","3","4","4","5","5","1","0","0","1","0","1","2","1","5","4","5","4","5","4","4","3","5","4","5","7","5","5","4","4","4","4","5","5","5","3","4","5","2","5","3","4","2","1","4","4","6","3","5","4","5","3","5","4","2","4","3","4","3","7","3","5","3","7","3","4","7","3","2","6","1","7","3","2","792475678095319042","李","438","Male","[""坏我"",""好我"",""好他"",""坏他""]","[""弱我"",""强我"",""强他"",""弱他""]","","","","","","","","","","","","","","","","","","","","","","","","","","","","","","feedback_test","","","","","","","","",""
"986","","j","psychophysics","126","426983","0.0-8.0-1.0-4.0-0.0-0.9","5","4","5","4","3","5","3","4","4","5","5","1","0","0","1","0","1","2","1","5","4","5","4","5","4","4","3","5","4","5","7","5","5","4","4","4","4","5","5","5","3","4","5","2","5","3","4","2","1","4","4","6","3","5","4","5","3","5","4","2","4","3","4","3","7","3","5","3","7","3","4","7","3","2","6","1","7","3","2","792475678095319042","李","438","Male","[""坏我"",""好我"",""好他"",""坏他""]","[""弱我"",""强我"",""强他"",""弱他""]","","","","","","","","nonmatch","","","","","","","","","","key","j","16.665254237288135","768","428","j","true","nonmatch","img/hexagon.png","弱他","弱我","ALT2","ability","","","","","","","","",""
"null","<span style='color:GreenYellow; font-size: 70px;'>正确! </span>","null","html-keyboard-response","127","427484","0.0-8.0-1.0-4.0-0.0-1.9","5","4","5","4","3","5","3","4","4","5","5","1","0","0","1","0","1","2","1","5","4","5","4","5","4","4","3","5","4","5","7","5","5","4","4","4","4","5","5","5","3","4","5","2","5","3","4","2","1","4","4","6","3","5","4","5","3","5","4","2","4","3","4","3","7","3","5","3","7","3","4","7","3","2","6","1","7","3","2","792475678095319042","李","438","Male","[""坏我"",""好我"",""好他"",""坏他""]","[""弱我"",""强我"",""强他"",""弱他""]","","","","","","","","","","","","","","","","","","","","","","","","","","","","","","feedback_test","","","","","","","","",""
"749","","f","psychophysics","128","429235","0.0-8.0-1.0-4.0-0.0-0.10","5","4","5","4","3","5","3","4","4","5","5","1","0","0","1","0","1","2","1","5","4","5","4","5","4","4","3","5","4","5","7","5","5","4","4","4","4","5","5","5","3","4","5","2","5","3","4","2","1","4","4","6","3","5","4","5","3","5","4","2","4","3","4","3","7","3","5","3","7","3","4","7","3","2","6","1","7","3","2","792475678095319042","李","438","Male","[""坏我"",""好我"",""好他"",""坏他""]","[""弱我"",""强我"",""强他"",""弱他""]","","","","","","","","match","","","","","","","","","","key","f","16.66153846153835","768","428","f","true","match","img/ellipse.png","弱他","弱他","ALT2","ability","","","","","","","","",""
"null","<span style='color:GreenYellow; font-size: 70px;'>正确! </span>","null","html-keyboard-response","129","429736","0.0-8.0-1.0-4.0-0.0-1.10","5","4","5","4","3","5","3","4","4","5","5","1","0","0","1","0","1","2","1","5","4","5","4","5","4","4","3","5","4","5","7","5","5","4","4","4","4","5","5","5","3","4","5","2","5","3","4","2","1","4","4","6","3","5","4","5","3","5","4","2","4","3","4","3","7","3","5","3","7","3","4","7","3","2","6","1","7","3","2","792475678095319042","李","438","Male","[""坏我"",""好我"",""好他"",""坏他""]","[""弱我"",""强我"",""强他"",""弱他""]","","","","","","","","","","","","","","","","","","","","","","","","","","","","","","feedback_test","","","","","","","","",""
"725","","f","psychophysics","130","431463","0.0-8.0-1.0-4.0-0.0-0.11","5","4","5","4","3","5","3","4","4","5","5","1","0","0","1","0","1","2","1","5","4","5","4","5","4","4","3","5","4","5","7","5","5","4","4","4","4","5","5","5","3","4","5","2","5","3","4","2","1","4","4","6","3","5","4","5","3","5","4","2","4","3","4","3","7","3","5","3","7","3","4","7","3","2","6","1","7","3","2","792475678095319042","李","438","Male","[""坏我"",""好我"",""好他"",""坏他""]","[""弱我"",""强我"",""强他"",""弱他""]","","","","","","","","match","","","","","","","","","","key","f","16.66176470588235","768","428","f","true","match","img/trapezoid.png","强他","强他","ALT2","ability","","","","","","","","",""
"null","<span style='color:GreenYellow; font-size: 70px;'>正确! </span>","null","html-keyboard-response","131","431964","0.0-8.0-1.0-4.0-0.0-1.11","5","4","5","4","3","5","3","4","4","5","5","1","0","0","1","0","1","2","1","5","4","5","4","5","4","4","3","5","4","5","7","5","5","4","4","4","4","5","5","5","3","4","5","2","5","3","4","2","1","4","4","6","3","5","4","5","3","5","4","2","4","3","4","3","7","3","5","3","7","3","4","7","3","2","6","1","7","3","2","792475678095319042","李","438","Male","[""坏我"",""好我"",""好他"",""坏他""]","[""弱我"",""强我"",""强他"",""弱他""]","","","","","","","","","","","","","","","","","","","","","","","","","","","","","","feedback_test","","","","","","","","",""
"958","","j","psychophysics","132","433924","0.0-8.0-1.0-4.0-0.0-0.12","5","4","5","4","3","5","3","4","4","5","5","1","0","0","1","0","1","2","1","5","4","5","4","5","4","4","3","5","4","5","7","5","5","4","4","4","4","5","5","5","3","4","5","2","5","3","4","2","1","4","4","6","3","5","4","5","3","5","4","2","4","3","4","3","7","3","5","3","7","3","4","7","3","2","6","1","7","3","2","792475678095319042","李","438","Male","[""坏我"",""好我"",""好他"",""坏他""]","[""弱我"",""强我"",""强他"",""弱他""]","","","","","","","","nonmatch","","","","","","","","","","key","j","16.6500000000002","768","428","j","true","nonmatch","img/hexagon.png","强我","弱我","ALT2","ability","","","","","","","","",""
"null","<span style='color:GreenYellow; font-size: 70px;'>正确! </span>","null","html-keyboard-response","133","434425","0.0-8.0-1.0-4.0-0.0-1.12","5","4","5","4","3","5","3","4","4","5","5","1","0","0","1","0","1","2","1","5","4","5","4","5","4","4","3","5","4","5","7","5","5","4","4","4","4","5","5","5","3","4","5","2","5","3","4","2","1","4","4","6","3","5","4","5","3","5","4","2","4","3","4","3","7","3","5","3","7","3","4","7","3","2","6","1","7","3","2","792475678095319042","李","438","Male","[""坏我"",""好我"",""好他"",""坏他""]","[""弱我"",""强我"",""强他"",""弱他""]","","","","","","","","","","","","","","","","","","","","","","","","","","","","","","feedback_test","","","","","","","","",""
"798","","j","psychophysics","134","436225","0.0-8.0-1.0-4.0-0.0-0.13","5","4","5","4","3","5","3","4","4","5","5","1","0","0","1","0","1","2","1","5","4","5","4","5","4","4","3","5","4","5","7","5","5","4","4","4","4","5","5","5","3","4","5","2","5","3","4","2","1","4","4","6","3","5","4","5","3","5","4","2","4","3","4","3","7","3","5","3","7","3","4","7","3","2","6","1","7","3","2","792475678095319042","李","438","Male","[""坏我"",""好我"",""好他"",""坏他""]","[""弱我"",""强我"",""强他"",""弱他""]","","","","","","","","nonmatch","","","","","","","","","","key","j","16.66261682242958","768","428","j","true","nonmatch","img/triangle.png","弱我","强我","ALT2","ability","","","","","","","","",""
"null","<span style='color:GreenYellow; font-size: 70px;'>正确! </span>","null","html-keyboard-response","135","436726","0.0-8.0-1.0-4.0-0.0-1.13","5","4","5","4","3","5","3","4","4","5","5","1","0","0","1","0","1","2","1","5","4","5","4","5","4","4","3","5","4","5","7","5","5","4","4","4","4","5","5","5","3","4","5","2","5","3","4","2","1","4","4","6","3","5","4","5","3","5","4","2","4","3","4","3","7","3","5","3","7","3","4","7","3","2","6","1","7","3","2","792475678095319042","李","438","Male","[""坏我"",""好我"",""好他"",""坏他""]","[""弱我"",""强我"",""强他"",""弱他""]","","","","","","","","","","","","","","","","","","","","","","","","","","","","","","feedback_test","","","","","","","","",""
"1056","","f","psychophysics","136","438784","0.0-8.0-1.0-4.0-0.0-0.14","5","4","5","4","3","5","3","4","4","5","5","1","0","0","1","0","1","2","1","5","4","5","4","5","4","4","3","5","4","5","7","5","5","4","4","4","4","5","5","5","3","4","5","2","5","3","4","2","1","4","4","6","3","5","4","5","3","5","4","2","4","3","4","3","7","3","5","3","7","3","4","7","3","2","6","1","7","3","2","792475678095319042","李","438","Male","[""坏我"",""好我"",""好他"",""坏他""]","[""弱我"",""强我"",""强他"",""弱他""]","","","","","","","","match","","","","","","","","","","key","f","16.66747967479656","768","428","f","true","match","img/hexagon.png","弱我","弱我","ALT2","ability","","","","","","","","",""
"null","<span style='color:GreenYellow; font-size: 70px;'>正确! </span>","null","html-keyboard-response","137","439286","0.0-8.0-1.0-4.0-0.0-1.14","5","4","5","4","3","5","3","4","4","5","5","1","0","0","1","0","1","2","1","5","4","5","4","5","4","4","3","5","4","5","7","5","5","4","4","4","4","5","5","5","3","4","5","2","5","3","4","2","1","4","4","6","3","5","4","5","3","5","4","2","4","3","4","3","7","3","5","3","7","3","4","7","3","2","6","1","7","3","2","792475678095319042","李","438","Male","[""坏我"",""好我"",""好他"",""坏他""]","[""弱我"",""强我"",""强他"",""弱他""]","","","","","","","","","","","","","","","","","","","","","","","","","","","","","","feedback_test","","","","","","","","",""
"973","","j","psychophysics","138","441260","0.0-8.0-1.0-4.0-0.0-0.15","5","4","5","4","3","5","3","4","4","5","5","1","0","0","1","0","1","2","1","5","4","5","4","5","4","4","3","5","4","5","7","5","5","4","4","4","4","5","5","5","3","4","5","2","5","3","4","2","1","4","4","6","3","5","4","5","3","5","4","2","4","3","4","3","7","3","5","3","7","3","4","7","3","2","6","1","7","3","2","792475678095319042","李","438","Male","[""坏我"",""好我"",""好他"",""坏他""]","[""弱我"",""强我"",""强他"",""弱他""]","","","","","","","","nonmatch","","","","","","","","","","key","j","16.664102564102663","768","428","f","false","match","img/hexagon.png","弱我","弱我","ALT2","ability","","","","","","","","",""
