"rt","stimulus","response","trial_type","trial_index","time_elapsed","internal_node_id","swb_1","swb_2","swb_3","swb_4","swb_5","LOT_1","LOT_2","LOT_3","LOT_4","LOT_5","LOT_6","IPC_1","IPC_2","IPC_3","IPC_4","IPC_5","IPC_6","IPC_7","IPC_8","MorIden_1","MorIden_2","MorIden_3","MorIden_4","MorIden_5","MorIden_6","MorIden_7","MorIden_8","MorIden_9","MorIden_10","moralSeImag_1","moralSeImag_2","moralSeImag_3","moralSeImag_4","moralSeImag_5","moralSeImag_6","moralSeImag_7","moralSeImag_8","moralSeImag_9","sde_1","sde_2","sde_3","sde_4","sde_5","sde_6","sde_7","sde_8","sde_9","sde_10","trap2","sde_11","sde_12","sde_13","sde_14","sde_15","sde_16","sde_17","sde_18","sde_19","sde_20","IM_1","IM_2","IM_3","IM_4","IM_5","IM_6","IM_7","IM_8","IM_9","IM_10","IM_11","IM_12","IM_13","IM_14","IM_15","IM_16","IM_17","IM_18","IM_19","IM_20","subj_idx","friend_name","ParticipantID","Sex","Word","Word2","value","success","timeout","failed_images","failed_audio","failed_video","user_agent","responses","item_order","radio_event_ids","radio_event_times","key_event_times","mouse_event_times","straightlining","zigzagging","honeypot","task_id","screen_id","time_stamp","response_type","key_press","avg_frame_time","center_x","center_y","person","word","valence","domain","math","correct_response","correct","status","view_history","identity","duration","Image","condition","question_order","trap2_item"
"38752","
   <p><div style='color:white; font-size: 25px'>您好，欢迎参加本次实验。</div></p>
   <p><div style='color:white; font-size: 25px'>为充分保障您的权利，请确保您已经知晓并同意《参与实验同意书》以及《数据公开知情同意书》。</div></p>
   <p><div style='color:white; font-size: 25px'>如果您未见过上述内容，请咨询实验员。</div></p>
   <p style='color:white; font-size: 25px'>如果您选择继续实验，则表示您已经清楚两份知情同意书的内容并同意。</p>
   <p><div style = ""color: pink;font-size:30px;"">请确保您记得day0的实验编号，您将在本次实验输入该编号，若您忘记，请咨询实验员后作答。</div></p>
   <p><div style = ""color:lightblue;font-size:25px;"">请您尽可能认真地作答，我们将依据您在各问卷和按键任务中的作答质量发放报酬。</div></p>
   <p> <div style = ""color: green""><按空格键至下页></div> </p>
   "," ","html-keyboard-response","0","38755","0.0-0.0","4","3","4","2","5","4","2","4","4","4","5","0","-1","-1","1","-1","0","1","1","4","4","5","4","4","3","4","4","4","4","3","6","6","5","4","6","6","7","6","4","5","3","3","5","3","6","1","5","3","1","5","3","5","4","3","3","3","6","3","5","3","3","3","2","3","5","3","6","5","3","6","5","3","2","3","5","3","3","3","5","789237328983101441","黄","461","Female","[""好我"",""坏她"",""好她"",""坏我""]","[""强我"",""弱她"",""强她"",""弱我""]","","","","","","","","","","","","","","","","","","","","","","","","","","","","","","","","","","","","","","",""
"","","","call-function","1","38757","0.0-1.0-0.0","4","3","4","2","5","4","2","4","4","4","5","0","-1","-1","1","-1","0","1","1","4","4","5","4","4","3","4","4","4","4","3","6","6","5","4","6","6","7","6","4","5","3","3","5","3","6","1","5","3","1","5","3","5","4","3","3","3","6","3","5","3","3","3","2","3","5","3","6","5","3","6","5","3","2","3","5","3","3","3","5","789237328983101441","黄","461","Female","[""好我"",""坏她"",""好她"",""坏我""]","[""强我"",""弱她"",""强她"",""弱我""]","","","","","","","","","","","","","","","","","","","","","","","","","","","","","","","","","","","","","","",""
"24054","","[{""name"":""Sex"",""value"":""1""},{""name"":""friend_name"",""value"":""黄""},{""name"":""ParticipantID"",""value"":""461""}]","survey-html-form","2","62812","0.0-1.0-1.0","4","3","4","2","5","4","2","4","4","4","5","0","-1","-1","1","-1","0","1","1","4","4","5","4","4","3","4","4","4","4","3","6","6","5","4","6","6","7","6","4","5","3","3","5","3","6","1","5","3","1","5","3","5","4","3","3","3","6","3","5","3","3","3","2","3","5","3","6","5","3","6","5","3","2","3","5","3","3","3","5","789237328983101441","黄","461","Female","[""好我"",""坏她"",""好她"",""坏我""]","[""强我"",""弱她"",""强她"",""弱我""]","","","","","","","","","","","","","","","","","","","","","","","","","","","","","","","","","","","","","","",""
"","","","preload","3","63170","0.0-2.0","4","3","4","2","5","4","2","4","4","4","5","0","-1","-1","1","-1","0","1","1","4","4","5","4","4","3","4","4","4","4","3","6","6","5","4","6","6","7","6","4","5","3","3","5","3","6","1","5","3","1","5","3","5","4","3","3","3","6","3","5","3","3","3","2","3","5","3","6","5","3","6","5","3","2","3","5","3","3","3","5","789237328983101441","黄","461","Female","[""好我"",""坏她"",""好她"",""坏我""]","[""强我"",""弱她"",""强她"",""弱我""]","","true","false","[]","[]","[]","","","","","","","","","","","","","","","","","","","","","","","","","","","","","","","","",""
"","","","fullscreen","4","81963","0.0-3.0","4","3","4","2","5","4","2","4","4","4","5","0","-1","-1","1","-1","0","1","1","4","4","5","4","4","3","4","4","4","4","3","6","6","5","4","6","6","7","6","4","5","3","3","5","3","6","1","5","3","1","5","3","5","4","3","3","3","6","3","5","3","3","3","2","3","5","3","6","5","3","6","5","3","2","3","5","3","3","3","5","789237328983101441","黄","461","Female","[""好我"",""坏她"",""好她"",""坏我""]","[""强我"",""弱她"",""强她"",""弱我""]","","true","","","","","","","","","","","","","","","","","","","","","","","","","","","","","","","","","","","","",""
"15129","","{""Q01"":""4"",""Q02"":""3"",""Q03"":""4"",""Q04"":""2"",""Q05"":""5""}","survey-template","5","97100","0.0-4.0","4","3","4","2","5","4","2","4","4","4","5","0","-1","-1","1","-1","0","1","1","4","4","5","4","4","3","4","4","4","4","3","6","6","5","4","6","6","7","6","4","5","3","3","5","3","6","1","5","3","1","5","3","5","4","3","3","3","6","3","5","3","3","3","2","3","5","3","6","5","3","6","5","3","2","3","5","3","3","3","5","789237328983101441","黄","461","Female","[""好我"",""坏她"",""好她"",""坏我""]","[""强我"",""弱她"",""强她"",""弱我""]","","","","","","","","{""Q01"":""4"",""Q02"":""3"",""Q03"":""4"",""Q04"":""2"",""Q05"":""5""}","[0,1,2,3,4]","[""Q01"",""Q02"",""Q03"",""Q04"",""Q05""]","[2487,5752,7240,8449,14416]","[]","[2487,4800,5752,7240,8449,13208,13983,14416,15129]","0.4","0.5","0","","","","","","","","","","","","","","","","","","","","","","",""
"29661","","{""Q01"":""4"",""Q02"":""2"",""Q03"":""4"",""Q04"":""4"",""Q05"":""4"",""Q06"":""5""}","survey-template","6","126762","0.0-5.0","4","3","4","2","5","4","2","4","4","4","5","0","-1","-1","1","-1","0","1","1","4","4","5","4","4","3","4","4","4","4","3","6","6","5","4","6","6","7","6","4","5","3","3","5","3","6","1","5","3","1","5","3","5","4","3","3","3","6","3","5","3","3","3","2","3","5","3","6","5","3","6","5","3","2","3","5","3","3","3","5","789237328983101441","黄","461","Female","[""好我"",""坏她"",""好她"",""坏我""]","[""强我"",""弱她"",""强她"",""弱我""]","","","","","","","","{""Q01"":""4"",""Q02"":""2"",""Q03"":""4"",""Q04"":""4"",""Q05"":""4"",""Q06"":""5""}","[0,1,2,3,4,5]","[""Q01"",""Q02"",""Q03"",""Q04"",""Q04"",""Q05"",""Q06"",""Q06""]","[2563,14757,15444,18308,21188,25436,27379,28963]","[]","[2563,13939,14757,15444,18308,20660,21188,22523,25436,26836,27379,28963,29661]","0.5","0","0","","","","","","","","","","","","","","","","","","","","","","",""
"28581","","{""Q01"":""0"",""Q02"":""-1"",""Q03"":""-1"",""Q04"":""1"",""Q05"":""-1"",""Q06"":""0"",""Q07"":""1"",""Q08"":""1""}","survey-template","7","155347","0.0-6.0","4","3","4","2","5","4","2","4","4","4","5","0","-1","-1","1","-1","0","1","1","4","4","5","4","4","3","4","4","4","4","3","6","6","5","4","6","6","7","6","4","5","3","3","5","3","6","1","5","3","1","5","3","5","4","3","3","3","6","3","5","3","3","3","2","3","5","3","6","5","3","6","5","3","2","3","5","3","3","3","5","789237328983101441","黄","461","Female","[""好我"",""坏她"",""好她"",""坏我""]","[""强我"",""弱她"",""强她"",""弱我""]","","","","","","","","{""Q01"":""0"",""Q02"":""-1"",""Q03"":""-1"",""Q04"":""1"",""Q05"":""-1"",""Q06"":""0"",""Q07"":""1"",""Q08"":""1""}","[0,1,2,3,4,5,6,7]","[""Q01"",""Q02"",""Q02"",""Q03"",""Q04"",""Q05"",""Q06"",""Q07"",""Q08""]","[2461,7132,8252,10404,13004,22811,24251,26693,28132]","[]","[2461,7132,7748,8252,10404,13004,22811,24251,26693,28132,28581]","0.375","0.42857142857142855","0","","","","","","","","","","","","","","","","","","","","","","",""
"23853","
    <p><div style='color:white;font-size:35px; line-height:20px;'>词汇评估任务</div></p><br>
    <p><div style='color:white;font-size:25px; line-height:20px;'>请再次回忆该亲密的朋友，你们至少2年前就认识了，并且最近2年经常见面。</div></p>
    <p><div style='color:white;font-size:25px; line-height:20px;'>在本实验中，您将会看到一些形容词。</div></p>
    <p><div style='color:yellow;font-size:25px; line-height:20px;'>您的任务是判断这些形容词是否符合对您自己或您的朋友的描述。</div></p><p style='font-size:35px'>符合按<span style=""color:lightgreen""> j 键</span>，不符合按<span style=""color:red""> f 键</span></p>","0","html-button-response","8","179201","0.0-7.0-0.0","4","3","4","2","5","4","2","4","4","4","5","0","-1","-1","1","-1","0","1","1","4","4","5","4","4","3","4","4","4","4","3","6","6","5","4","6","6","7","6","4","5","3","3","5","3","6","1","5","3","1","5","3","5","4","3","3","3","6","3","5","3","3","3","2","3","5","3","6","5","3","6","5","3","2","3","5","3","3","3","5","789237328983101441","黄","461","Female","[""好我"",""坏她"",""好她"",""坏我""]","[""强我"",""弱她"",""强她"",""弱我""]","","","","","","","","","","","","","","","","","SRET_EW","EW_instructions","Wed Jan 10 2024 22:28:09 GMT+0800 (中国标准时间)","","","","","","","","","","","","","","","","","","","",""
"813","","j","psychophysics","9","181035","0.0-7.0-1.0-0.0","4","3","4","2","5","4","2","4","4","4","5","0","-1","-1","1","-1","0","1","1","4","4","5","4","4","3","4","4","4","4","3","6","6","5","4","6","6","7","6","4","5","3","3","5","3","6","1","5","3","1","5","3","5","4","3","3","3","6","3","5","3","3","3","2","3","5","3","6","5","3","6","5","3","2","3","5","3","3","3","5","789237328983101441","黄","461","Female","[""好我"",""坏她"",""好她"",""坏我""]","[""强我"",""弱她"",""强她"",""弱我""]","","","","","","","","yes","","","","","","","","","SRET_EW","EW_practice","","key","j","16.667706422018338","768","428","自己","严谨","Positive","ability","","","","","","","","","","",""
"1139","","f","psychophysics","10","183192","0.0-7.0-1.0-0.1","4","3","4","2","5","4","2","4","4","4","5","0","-1","-1","1","-1","0","1","1","4","4","5","4","4","3","4","4","4","4","3","6","6","5","4","6","6","7","6","4","5","3","3","5","3","6","1","5","3","1","5","3","5","4","3","3","3","6","3","5","3","3","3","2","3","5","3","6","5","3","6","5","3","2","3","5","3","3","3","5","789237328983101441","黄","461","Female","[""好我"",""坏她"",""好她"",""坏我""]","[""强我"",""弱她"",""强她"",""弱我""]","","","","","","","","no","","","","","","","","","SRET_EW","EW_practice","","key","f","16.67302325581401","768","428","朋友","徇私","Negative","morality","","","","","","","","","","",""
"1164","","j","psychophysics","11","185416","0.0-7.0-1.0-0.2","4","3","4","2","5","4","2","4","4","4","5","0","-1","-1","1","-1","0","1","1","4","4","5","4","4","3","4","4","4","4","3","6","6","5","4","6","6","7","6","4","5","3","3","5","3","6","1","5","3","1","5","3","5","4","3","3","3","6","3","5","3","3","3","2","3","5","3","6","5","3","6","5","3","2","3","5","3","3","3","5","789237328983101441","黄","461","Female","[""好我"",""坏她"",""好她"",""坏我""]","[""强我"",""弱她"",""强她"",""弱我""]","","","","","","","","yes","","","","","","","","","SRET_EW","EW_practice","","key","j","16.673030303030277","768","428","朋友","忠实","Positive","morality","","","","","","","","","","",""
"816","","f","psychophysics","12","187305","0.0-7.0-1.0-0.3","4","3","4","2","5","4","2","4","4","4","5","0","-1","-1","1","-1","0","1","1","4","4","5","4","4","3","4","4","4","4","3","6","6","5","4","6","6","7","6","4","5","3","3","5","3","6","1","5","3","1","5","3","5","4","3","3","3","6","3","5","3","3","3","2","3","5","3","6","5","3","6","5","3","2","3","5","3","3","3","5","789237328983101441","黄","461","Female","[""好我"",""坏她"",""好她"",""坏我""]","[""强我"",""弱她"",""强她"",""弱我""]","","","","","","","","no","","","","","","","","","SRET_EW","EW_practice","","key","f","16.673097345132724","768","428","自己","刻板","Negative","ability","","","","","","","","","","",""
"5872","
    <p><div style='color:white;font-size:35px; line-height:20px;'>请您再次阅读实验要求</div></p><br>
    <p><div style='color:white;font-size:25px; line-height:20px;'>请回忆某一个亲密的朋友，你们至少2年前就认识了，并且最近2年经常见面。</div></p>
    <p><div style='color:white;font-size:25px; line-height:20px;'>在本实验中，您将会看到一些形容词。</div></p>
    <p><div style='color:yellow;font-size:25px; line-height:20px;'>您的任务是判断这些形容词是否符合对您自己或您的朋友的描述。</div></p>
    <p><div class='footer' style='font-size:25px; line-height:20px;'>如果对本实验还有不清楚之处，请立即向实验员咨询。</p><p style='font-size:25px; line-height:20px;'>如果您明白了规则：</p><p style='font-size:22px; line-height:20px;'>请按 继续 进入正式实验</p>
    </div>
    <p style='font-size:35px'>符合按<span style=""color:lightgreen""> j 键</span>，不符合按<span style=""color:red""> f 键</span></p>","0","html-button-response","13","193178","0.0-7.0-2.0","4","3","4","2","5","4","2","4","4","4","5","0","-1","-1","1","-1","0","1","1","4","4","5","4","4","3","4","4","4","4","3","6","6","5","4","6","6","7","6","4","5","3","3","5","3","6","1","5","3","1","5","3","5","4","3","3","3","6","3","5","3","3","3","2","3","5","3","6","5","3","6","5","3","2","3","5","3","3","3","5","789237328983101441","黄","461","Female","[""好我"",""坏她"",""好她"",""坏我""]","[""强我"",""弱她"",""强她"",""弱我""]","","","","","","","","","","","","","","","","","SRET_EW","prac_instructions","Wed Jan 10 2024 22:28:09 GMT+0800 (中国标准时间)","","","","","","","","","","","","","","","","","","","",""
"1138","","j","psychophysics","14","195326","0.0-7.0-3.0-0.0","4","3","4","2","5","4","2","4","4","4","5","0","-1","-1","1","-1","0","1","1","4","4","5","4","4","3","4","4","4","4","3","6","6","5","4","6","6","7","6","4","5","3","3","5","3","6","1","5","3","1","5","3","5","4","3","3","3","6","3","5","3","3","3","2","3","5","3","6","5","3","6","5","3","2","3","5","3","3","3","5","789237328983101441","黄","461","Female","[""好我"",""坏她"",""好她"",""坏我""]","[""强我"",""弱她"",""强她"",""弱我""]","","","","","","","","yes","","","","","","","","","SRET","EW_formal","","key","j","16.634573643410743","768","428","朋友","迷糊","Negative","ability","","","","","","","","","","",""
"730","","j","psychophysics","15","197071","0.0-7.0-3.0-0.1","4","3","4","2","5","4","2","4","4","4","5","0","-1","-1","1","-1","0","1","1","4","4","5","4","4","3","4","4","4","4","3","6","6","5","4","6","6","7","6","4","5","3","3","5","3","6","1","5","3","1","5","3","5","4","3","3","3","6","3","5","3","3","3","2","3","5","3","6","5","3","6","5","3","2","3","5","3","3","3","5","789237328983101441","黄","461","Female","[""好我"",""坏她"",""好她"",""坏我""]","[""强我"",""弱她"",""强她"",""弱我""]","","","","","","","","yes","","","","","","","","","SRET","EW_formal","","key","j","16.673009708737933","768","428","朋友","务实","Positive","ability","","","","","","","","","","",""
"583","","j","psychophysics","16","198659","0.0-7.0-3.0-0.2","4","3","4","2","5","4","2","4","4","4","5","0","-1","-1","1","-1","0","1","1","4","4","5","4","4","3","4","4","4","4","3","6","6","5","4","6","6","7","6","4","5","3","3","5","3","6","1","5","3","1","5","3","5","4","3","3","3","6","3","5","3","3","3","2","3","5","3","6","5","3","6","5","3","2","3","5","3","3","3","5","789237328983101441","黄","461","Female","[""好我"",""坏她"",""好她"",""坏我""]","[""强我"",""弱她"",""强她"",""弱我""]","","","","","","","","yes","","","","","","","","","SRET","EW_formal","","key","j","16.672978723404356","768","428","自己","坚贞","Positive","morality","","","","","","","","","","",""
"594","","f","psychophysics","17","200269","0.0-7.0-3.0-0.3","4","3","4","2","5","4","2","4","4","4","5","0","-1","-1","1","-1","0","1","1","4","4","5","4","4","3","4","4","4","4","3","6","6","5","4","6","6","7","6","4","5","3","3","5","3","6","1","5","3","1","5","3","5","4","3","3","3","6","3","5","3","3","3","2","3","5","3","6","5","3","6","5","3","2","3","5","3","3","3","5","789237328983101441","黄","461","Female","[""好我"",""坏她"",""好她"",""坏我""]","[""强我"",""弱她"",""强她"",""弱我""]","","","","","","","","no","","","","","","","","","SRET","EW_formal","","key","f","16.672916666666726","768","428","自己","说谎","Negative","morality","","","","","","","","","","",""
"631","","j","psychophysics","18","201909","0.0-7.0-3.0-0.4","4","3","4","2","5","4","2","4","4","4","5","0","-1","-1","1","-1","0","1","1","4","4","5","4","4","3","4","4","4","4","3","6","6","5","4","6","6","7","6","4","5","3","3","5","3","6","1","5","3","1","5","3","5","4","3","3","3","6","3","5","3","3","3","2","3","5","3","6","5","3","6","5","3","2","3","5","3","3","3","5","789237328983101441","黄","461","Female","[""好我"",""坏她"",""好她"",""坏我""]","[""强我"",""弱她"",""强她"",""弱我""]","","","","","","","","yes","","","","","","","","","SRET","EW_formal","","key","j","16.672989690721636","768","428","自己","扎实","Positive","ability","","","","","","","","","","",""
"707","","f","psychophysics","19","203631","0.0-7.0-3.0-0.5","4","3","4","2","5","4","2","4","4","4","5","0","-1","-1","1","-1","0","1","1","4","4","5","4","4","3","4","4","4","4","3","6","6","5","4","6","6","7","6","4","5","3","3","5","3","6","1","5","3","1","5","3","5","4","3","3","3","6","3","5","3","3","3","2","3","5","3","6","5","3","6","5","3","2","3","5","3","3","3","5","789237328983101441","黄","461","Female","[""好我"",""坏她"",""好她"",""坏我""]","[""强我"",""弱她"",""强她"",""弱我""]","","","","","","","","no","","","","","","","","","SRET","EW_formal","","key","f","16.67300970873765","768","428","朋友","差生","Negative","ability","","","","","","","","","","",""
"1365","","j","psychophysics","20","206093","0.0-7.0-3.0-0.6","4","3","4","2","5","4","2","4","4","4","5","0","-1","-1","1","-1","0","1","1","4","4","5","4","4","3","4","4","4","4","3","6","6","5","4","6","6","7","6","4","5","3","3","5","3","6","1","5","3","1","5","3","5","4","3","3","3","6","3","5","3","3","3","2","3","5","3","6","5","3","6","5","3","2","3","5","3","3","3","5","789237328983101441","黄","461","Female","[""好我"",""坏她"",""好她"",""坏我""]","[""强我"",""弱她"",""强她"",""弱我""]","","","","","","","","yes","","","","","","","","","SRET","EW_formal","","key","j","16.6730136986302","768","428","自己","庸碌","Negative","ability","","","","","","","","","","",""
"679","","f","psychophysics","21","207774","0.0-7.0-3.0-0.7","4","3","4","2","5","4","2","4","4","4","5","0","-1","-1","1","-1","0","1","1","4","4","5","4","4","3","4","4","4","4","3","6","6","5","4","6","6","7","6","4","5","3","3","5","3","6","1","5","3","1","5","3","5","4","3","3","3","6","3","5","3","3","3","2","3","5","3","6","5","3","6","5","3","2","3","5","3","3","3","5","789237328983101441","黄","461","Female","[""好我"",""坏她"",""好她"",""坏我""]","[""强我"",""弱她"",""强她"",""弱我""]","","","","","","","","no","","","","","","","","","SRET","EW_formal","","key","f","16.673000000000176","768","428","朋友","阴毒","Negative","morality","","","","","","","","","","",""
"974","","j","psychophysics","22","209754","0.0-7.0-3.0-0.8","4","3","4","2","5","4","2","4","4","4","5","0","-1","-1","1","-1","0","1","1","4","4","5","4","4","3","4","4","4","4","3","6","6","5","4","6","6","7","6","4","5","3","3","5","3","6","1","5","3","1","5","3","5","4","3","3","3","6","3","5","3","3","3","2","3","5","3","6","5","3","6","5","3","2","3","5","3","3","3","5","789237328983101441","黄","461","Female","[""好我"",""坏她"",""好她"",""坏我""]","[""强我"",""弱她"",""强她"",""弱我""]","","","","","","","","yes","","","","","","","","","SRET","EW_formal","","key","j","16.672881355932155","768","428","自己","顶事","Positive","ability","","","","","","","","","","",""
"633","","j","psychophysics","23","211428","0.0-7.0-3.0-0.9","4","3","4","2","5","4","2","4","4","4","5","0","-1","-1","1","-1","0","1","1","4","4","5","4","4","3","4","4","4","4","3","6","6","5","4","6","6","7","6","4","5","3","3","5","3","6","1","5","3","1","5","3","5","4","3","3","3","6","3","5","3","3","3","2","3","5","3","6","5","3","6","5","3","2","3","5","3","3","3","5","789237328983101441","黄","461","Female","[""好我"",""坏她"",""好她"",""坏我""]","[""强我"",""弱她"",""强她"",""弱我""]","","","","","","","","yes","","","","","","","","","SRET","EW_formal","","key","j","16.672929292929247","768","428","朋友","专注","Positive","ability","","","","","","","","","","",""
"721","","f","psychophysics","24","213165","0.0-7.0-3.0-0.10","4","3","4","2","5","4","2","4","4","4","5","0","-1","-1","1","-1","0","1","1","4","4","5","4","4","3","4","4","4","4","3","6","6","5","4","6","6","7","6","4","5","3","3","5","3","6","1","5","3","1","5","3","5","4","3","3","3","6","3","5","3","3","3","2","3","5","3","6","5","3","6","5","3","2","3","5","3","3","3","5","789237328983101441","黄","461","Female","[""好我"",""坏她"",""好她"",""坏我""]","[""强我"",""弱她"",""强她"",""弱我""]","","","","","","","","no","","","","","","","","","SRET","EW_formal","","key","f","16.673076923076923","768","428","朋友","虚假","Negative","morality","","","","","","","","","","",""
"704","","f","psychophysics","25","214886","0.0-7.0-3.0-0.11","4","3","4","2","5","4","2","4","4","4","5","0","-1","-1","1","-1","0","1","1","4","4","5","4","4","3","4","4","4","4","3","6","6","5","4","6","6","7","6","4","5","3","3","5","3","6","1","5","3","1","5","3","5","4","3","3","3","6","3","5","3","3","3","2","3","5","3","6","5","3","6","5","3","2","3","5","3","3","3","5","789237328983101441","黄","461","Female","[""好我"",""坏她"",""好她"",""坏我""]","[""强我"",""弱她"",""强她"",""弱我""]","","","","","","","","no","","","","","","","","","SRET","EW_formal","","key","f","16.67313725490171","768","428","朋友","弱智","Negative","ability","","","","","","","","","","",""
"718","","f","psychophysics","26","216617","0.0-7.0-3.0-0.12","4","3","4","2","5","4","2","4","4","4","5","0","-1","-1","1","-1","0","1","1","4","4","5","4","4","3","4","4","4","4","3","6","6","5","4","6","6","7","6","4","5","3","3","5","3","6","1","5","3","1","5","3","5","4","3","3","3","6","3","5","3","3","3","2","3","5","3","6","5","3","6","5","3","2","3","5","3","3","3","5","789237328983101441","黄","461","Female","[""好我"",""坏她"",""好她"",""坏我""]","[""强我"",""弱她"",""强她"",""弱我""]","","","","","","","","no","","","","","","","","","SRET","EW_formal","","key","f","16.67300970873765","768","428","自己","下流","Negative","morality","","","","","","","","","","",""
"728","","j","psychophysics","27","218360","0.0-7.0-3.0-0.13","4","3","4","2","5","4","2","4","4","4","5","0","-1","-1","1","-1","0","1","1","4","4","5","4","4","3","4","4","4","4","3","6","6","5","4","6","6","7","6","4","5","3","3","5","3","6","1","5","3","1","5","3","5","4","3","3","3","6","3","5","3","3","3","2","3","5","3","6","5","3","6","5","3","2","3","5","3","3","3","5","789237328983101441","黄","461","Female","[""好我"",""坏她"",""好她"",""坏我""]","[""强我"",""弱她"",""强她"",""弱我""]","","","","","","","","yes","","","","","","","","","SRET","EW_formal","","key","j","16.673009708737933","768","428","朋友","高尚","Positive","morality","","","","","","","","","","",""
"926","","j","psychophysics","28","220293","0.0-7.0-3.0-0.14","4","3","4","2","5","4","2","4","4","4","5","0","-1","-1","1","-1","0","1","1","4","4","5","4","4","3","4","4","4","4","3","6","6","5","4","6","6","7","6","4","5","3","3","5","3","6","1","5","3","1","5","3","5","4","3","3","3","6","3","5","3","3","3","2","3","5","3","6","5","3","6","5","3","2","3","5","3","3","3","5","789237328983101441","黄","461","Female","[""好我"",""坏她"",""好她"",""坏我""]","[""强我"",""弱她"",""强她"",""弱我""]","","","","","","","","yes","","","","","","","","","SRET","EW_formal","","key","j","16.67304347826082","768","428","朋友","肯干","Positive","ability","","","","","","","","","","",""
"603","","j","psychophysics","29","221902","0.0-7.0-3.0-0.15","4","3","4","2","5","4","2","4","4","4","5","0","-1","-1","1","-1","0","1","1","4","4","5","4","4","3","4","4","4","4","3","6","6","5","4","6","6","7","6","4","5","3","3","5","3","6","1","5","3","1","5","3","5","4","3","3","3","6","3","5","3","3","3","2","3","5","3","6","5","3","6","5","3","2","3","5","3","3","3","5","789237328983101441","黄","461","Female","[""好我"",""坏她"",""好她"",""坏我""]","[""强我"",""弱她"",""强她"",""弱我""]","","","","","","","","yes","","","","","","","","","SRET","EW_formal","","key","j","16.673125000000255","768","428","自己","能干","Positive","ability","","","","","","","","","","",""
"711","","f","psychophysics","30","223629","0.0-7.0-3.0-0.16","4","3","4","2","5","4","2","4","4","4","5","0","-1","-1","1","-1","0","1","1","4","4","5","4","4","3","4","4","4","4","3","6","6","5","4","6","6","7","6","4","5","3","3","5","3","6","1","5","3","1","5","3","5","4","3","3","3","6","3","5","3","3","3","2","3","5","3","6","5","3","6","5","3","2","3","5","3","3","3","5","789237328983101441","黄","461","Female","[""好我"",""坏她"",""好她"",""坏我""]","[""强我"",""弱她"",""强她"",""弱我""]","","","","","","","","no","","","","","","","","","SRET","EW_formal","","key","f","16.673137254901995","768","428","自己","无能","Negative","ability","","","","","","","","","","",""
"565","","j","psychophysics","31","225200","0.0-7.0-3.0-0.17","4","3","4","2","5","4","2","4","4","4","5","0","-1","-1","1","-1","0","1","1","4","4","5","4","4","3","4","4","4","4","3","6","6","5","4","6","6","7","6","4","5","3","3","5","3","6","1","5","3","1","5","3","5","4","3","3","3","6","3","5","3","3","3","2","3","5","3","6","5","3","6","5","3","2","3","5","3","3","3","5","789237328983101441","黄","461","Female","[""好我"",""坏她"",""好她"",""坏我""]","[""强我"",""弱她"",""强她"",""弱我""]","","","","","","","","yes","","","","","","","","","SRET","EW_formal","","key","j","16.672903225806316","768","428","自己","聪明","Positive","ability","","","","","","","","","","",""
"954","","j","psychophysics","32","227158","0.0-7.0-3.0-0.18","4","3","4","2","5","4","2","4","4","4","5","0","-1","-1","1","-1","0","1","1","4","4","5","4","4","3","4","4","4","4","3","6","6","5","4","6","6","7","6","4","5","3","3","5","3","6","1","5","3","1","5","3","5","4","3","3","3","6","3","5","3","3","3","2","3","5","3","6","5","3","6","5","3","2","3","5","3","3","3","5","789237328983101441","黄","461","Female","[""好我"",""坏她"",""好她"",""坏我""]","[""强我"",""弱她"",""强她"",""弱我""]","","","","","","","","yes","","","","","","","","","SRET","EW_formal","","key","j","16.67299145299162","768","428","朋友","学霸","Positive","ability","","","","","","","","","","",""
"636","","j","psychophysics","33","228803","0.0-7.0-3.0-0.19","4","3","4","2","5","4","2","4","4","4","5","0","-1","-1","1","-1","0","1","1","4","4","5","4","4","3","4","4","4","4","3","6","6","5","4","6","6","7","6","4","5","3","3","5","3","6","1","5","3","1","5","3","5","4","3","3","3","6","3","5","3","3","3","2","3","5","3","6","5","3","6","5","3","2","3","5","3","3","3","5","789237328983101441","黄","461","Female","[""好我"",""坏她"",""好她"",""坏我""]","[""强我"",""弱她"",""强她"",""弱我""]","","","","","","","","yes","","","","","","","","","SRET","EW_formal","","key","j","16.67306122449001","768","428","自己","沉着","Positive","ability","","","","","","","","","","",""
"1112","","f","psychophysics","34","230923","0.0-7.0-3.0-0.20","4","3","4","2","5","4","2","4","4","4","5","0","-1","-1","1","-1","0","1","1","4","4","5","4","4","3","4","4","4","4","3","6","6","5","4","6","6","7","6","4","5","3","3","5","3","6","1","5","3","1","5","3","5","4","3","3","3","6","3","5","3","3","3","2","3","5","3","6","5","3","6","5","3","2","3","5","3","3","3","5","789237328983101441","黄","461","Female","[""好我"",""坏她"",""好她"",""坏我""]","[""强我"",""弱她"",""强她"",""弱我""]","","","","","","","","no","","","","","","","","","SRET","EW_formal","","key","f","16.673015873015782","768","428","朋友","拖拉","Negative","ability","","","","","","","","","","",""
"658","","j","psychophysics","35","232596","0.0-7.0-3.0-0.21","4","3","4","2","5","4","2","4","4","4","5","0","-1","-1","1","-1","0","1","1","4","4","5","4","4","3","4","4","4","4","3","6","6","5","4","6","6","7","6","4","5","3","3","5","3","6","1","5","3","1","5","3","5","4","3","3","3","6","3","5","3","3","3","2","3","5","3","6","5","3","6","5","3","2","3","5","3","3","3","5","789237328983101441","黄","461","Female","[""好我"",""坏她"",""好她"",""坏我""]","[""强我"",""弱她"",""强她"",""弱我""]","","","","","","","","yes","","","","","","","","","SRET","EW_formal","","key","j","16.672929292929247","768","428","朋友","守时","Positive","morality","","","","","","","","","","",""
"641","","j","psychophysics","36","234245","0.0-7.0-3.0-0.22","4","3","4","2","5","4","2","4","4","4","5","0","-1","-1","1","-1","0","1","1","4","4","5","4","4","3","4","4","4","4","3","6","6","5","4","6","6","7","6","4","5","3","3","5","3","6","1","5","3","1","5","3","5","4","3","3","3","6","3","5","3","3","3","2","3","5","3","6","5","3","6","5","3","2","3","5","3","3","3","5","789237328983101441","黄","461","Female","[""好我"",""坏她"",""好她"",""坏我""]","[""强我"",""弱她"",""强她"",""弱我""]","","","","","","","","yes","","","","","","","","","SRET","EW_formal","","key","j","16.67285714285717","768","428","自己","周到","Positive","ability","","","","","","","","","","",""
"678","","f","psychophysics","37","235934","0.0-7.0-3.0-0.23","4","3","4","2","5","4","2","4","4","4","5","0","-1","-1","1","-1","0","1","1","4","4","5","4","4","3","4","4","4","4","3","6","6","5","4","6","6","7","6","4","5","3","3","5","3","6","1","5","3","1","5","3","5","4","3","3","3","6","3","5","3","3","3","2","3","5","3","6","5","3","6","5","3","2","3","5","3","3","3","5","789237328983101441","黄","461","Female","[""好我"",""坏她"",""好她"",""坏我""]","[""强我"",""弱她"",""强她"",""弱我""]","","","","","","","","no","","","","","","","","","SRET","EW_formal","","key","f","16.673000000000176","768","428","朋友","笨蛋","Negative","ability","","","","","","","","","","",""
"609","","j","psychophysics","38","237549","0.0-7.0-3.0-0.24","4","3","4","2","5","4","2","4","4","4","5","0","-1","-1","1","-1","0","1","1","4","4","5","4","4","3","4","4","4","4","3","6","6","5","4","6","6","7","6","4","5","3","3","5","3","6","1","5","3","1","5","3","5","4","3","3","3","6","3","5","3","3","3","2","3","5","3","6","5","3","6","5","3","2","3","5","3","3","3","5","789237328983101441","黄","461","Female","[""好我"",""坏她"",""好她"",""坏我""]","[""强我"",""弱她"",""强她"",""弱我""]","","","","","","","","yes","","","","","","","","","SRET","EW_formal","","key","j","16.672916666666726","768","428","自己","正气","Positive","morality","","","","","","","","","","",""
"694","","j","psychophysics","39","239252","0.0-7.0-3.0-0.25","4","3","4","2","5","4","2","4","4","4","5","0","-1","-1","1","-1","0","1","1","4","4","5","4","4","3","4","4","4","4","3","6","6","5","4","6","6","7","6","4","5","3","3","5","3","6","1","5","3","1","5","3","5","4","3","3","3","6","3","5","3","3","3","2","3","5","3","6","5","3","6","5","3","2","3","5","3","3","3","5","789237328983101441","黄","461","Female","[""好我"",""坏她"",""好她"",""坏我""]","[""强我"",""弱她"",""强她"",""弱我""]","","","","","","","","yes","","","","","","","","","SRET","EW_formal","","key","j","16.673069306930508","768","428","自己","廉明","Positive","morality","","","","","","","","","","",""
"772","","j","psychophysics","40","241030","0.0-7.0-3.0-0.26","4","3","4","2","5","4","2","4","4","4","5","0","-1","-1","1","-1","0","1","1","4","4","5","4","4","3","4","4","4","4","3","6","6","5","4","6","6","7","6","4","5","3","3","5","3","6","1","5","3","1","5","3","5","4","3","3","3","6","3","5","3","3","3","2","3","5","3","6","5","3","6","5","3","2","3","5","3","3","3","5","789237328983101441","黄","461","Female","[""好我"",""坏她"",""好她"",""坏我""]","[""强我"",""弱她"",""强她"",""弱我""]","","","","","","","","yes","","","","","","","","","SRET","EW_formal","","key","j","16.673018867924494","768","428","朋友","爱国","Positive","morality","","","","","","","","","","",""
"626","","f","psychophysics","41","242665","0.0-7.0-3.0-0.27","4","3","4","2","5","4","2","4","4","4","5","0","-1","-1","1","-1","0","1","1","4","4","5","4","4","3","4","4","4","4","3","6","6","5","4","6","6","7","6","4","5","3","3","5","3","6","1","5","3","1","5","3","5","4","3","3","3","6","3","5","3","3","3","2","3","5","3","6","5","3","6","5","3","2","3","5","3","3","3","5","789237328983101441","黄","461","Female","[""好我"",""坏她"",""好她"",""坏我""]","[""强我"",""弱她"",""强她"",""弱我""]","","","","","","","","no","","","","","","","","","SRET","EW_formal","","key","f","16.672989690721636","768","428","朋友","昏庸","Negative","ability","","","","","","","","","","",""
"734","","f","psychophysics","42","244410","0.0-7.0-3.0-0.28","4","3","4","2","5","4","2","4","4","4","5","0","-1","-1","1","-1","0","1","1","4","4","5","4","4","3","4","4","4","4","3","6","6","5","4","6","6","7","6","4","5","3","3","5","3","6","1","5","3","1","5","3","5","4","3","3","3","6","3","5","3","3","3","2","3","5","3","6","5","3","6","5","3","2","3","5","3","3","3","5","789237328983101441","黄","461","Female","[""好我"",""坏她"",""好她"",""坏我""]","[""强我"",""弱她"",""强她"",""弱我""]","","","","","","","","no","","","","","","","","","SRET","EW_formal","","key","f","16.672884615384717","768","428","朋友","无耻","Negative","morality","","","","","","","","","","",""
"631","","j","psychophysics","43","246057","0.0-7.0-3.0-0.29","4","3","4","2","5","4","2","4","4","4","5","0","-1","-1","1","-1","0","1","1","4","4","5","4","4","3","4","4","4","4","3","6","6","5","4","6","6","7","6","4","5","3","3","5","3","6","1","5","3","1","5","3","5","4","3","3","3","6","3","5","3","3","3","2","3","5","3","6","5","3","6","5","3","2","3","5","3","3","3","5","789237328983101441","黄","461","Female","[""好我"",""坏她"",""好她"",""坏我""]","[""强我"",""弱她"",""强她"",""弱我""]","","","","","","","","yes","","","","","","","","","SRET","EW_formal","","key","j","16.672989690721636","768","428","朋友","精干","Positive","ability","","","","","","","","","","",""
"627","","f","psychophysics","44","247686","0.0-7.0-3.0-0.30","4","3","4","2","5","4","2","4","4","4","5","0","-1","-1","1","-1","0","1","1","4","4","5","4","4","3","4","4","4","4","3","6","6","5","4","6","6","7","6","4","5","3","3","5","3","6","1","5","3","1","5","3","5","4","3","3","3","6","3","5","3","3","3","2","3","5","3","6","5","3","6","5","3","2","3","5","3","3","3","5","789237328983101441","黄","461","Female","[""好我"",""坏她"",""好她"",""坏我""]","[""强我"",""弱她"",""强她"",""弱我""]","","","","","","","","no","","","","","","","","","SRET","EW_formal","","key","f","16.672989690721636","768","428","自己","不孝","Negative","morality","","","","","","","","","","",""
"662","","f","psychophysics","45","249356","0.0-7.0-3.0-0.31","4","3","4","2","5","4","2","4","4","4","5","0","-1","-1","1","-1","0","1","1","4","4","5","4","4","3","4","4","4","4","3","6","6","5","4","6","6","7","6","4","5","3","3","5","3","6","1","5","3","1","5","3","5","4","3","3","3","6","3","5","3","3","3","2","3","5","3","6","5","3","6","5","3","2","3","5","3","3","3","5","789237328983101441","黄","461","Female","[""好我"",""坏她"",""好她"",""坏我""]","[""强我"",""弱她"",""强她"",""弱我""]","","","","","","","","no","","","","","","","","","SRET","EW_formal","","key","f","16.67292929292954","768","428","自己","邪恶","Negative","morality","","","","","","","","","","",""
"630","","j","psychophysics","46","250992","0.0-7.0-3.0-0.32","4","3","4","2","5","4","2","4","4","4","5","0","-1","-1","1","-1","0","1","1","4","4","5","4","4","3","4","4","4","4","3","6","6","5","4","6","6","7","6","4","5","3","3","5","3","6","1","5","3","1","5","3","5","4","3","3","3","6","3","5","3","3","3","2","3","5","3","6","5","3","6","5","3","2","3","5","3","3","3","5","789237328983101441","黄","461","Female","[""好我"",""坏她"",""好她"",""坏我""]","[""强我"",""弱她"",""强她"",""弱我""]","","","","","","","","yes","","","","","","","","","SRET","EW_formal","","key","j","16.672989690721636","768","428","朋友","刚正","Positive","morality","","","","","","","","","","",""
"640","","j","psychophysics","47","252635","0.0-7.0-3.0-0.33","4","3","4","2","5","4","2","4","4","4","5","0","-1","-1","1","-1","0","1","1","4","4","5","4","4","3","4","4","4","4","3","6","6","5","4","6","6","7","6","4","5","3","3","5","3","6","1","5","3","1","5","3","5","4","3","3","3","6","3","5","3","3","3","2","3","5","3","6","5","3","6","5","3","2","3","5","3","3","3","5","789237328983101441","黄","461","Female","[""好我"",""坏她"",""好她"",""坏我""]","[""强我"",""弱她"",""强她"",""弱我""]","","","","","","","","yes","","","","","","","","","SRET","EW_formal","","key","j","16.673061224489715","768","428","朋友","依靠","Negative","ability","","","","","","","","","","",""
"700","","f","psychophysics","48","254346","0.0-7.0-3.0-0.34","4","3","4","2","5","4","2","4","4","4","5","0","-1","-1","1","-1","0","1","1","4","4","5","4","4","3","4","4","4","4","3","6","6","5","4","6","6","7","6","4","5","3","3","5","3","6","1","5","3","1","5","3","5","4","3","3","3","6","3","5","3","3","3","2","3","5","3","6","5","3","6","5","3","2","3","5","3","3","3","5","789237328983101441","黄","461","Female","[""好我"",""坏她"",""好她"",""坏我""]","[""强我"",""弱她"",""强她"",""弱我""]","","","","","","","","no","","","","","","","","","SRET","EW_formal","","key","f","16.673069306930795","768","428","朋友","盲目","Negative","ability","","","","","","","","","","",""
"676","","j","psychophysics","49","256040","0.0-7.0-3.0-0.35","4","3","4","2","5","4","2","4","4","4","5","0","-1","-1","1","-1","0","1","1","4","4","5","4","4","3","4","4","4","4","3","6","6","5","4","6","6","7","6","4","5","3","3","5","3","6","1","5","3","1","5","3","5","4","3","3","3","6","3","5","3","3","3","2","3","5","3","6","5","3","6","5","3","2","3","5","3","3","3","5","789237328983101441","黄","461","Female","[""好我"",""坏她"",""好她"",""坏我""]","[""强我"",""弱她"",""强她"",""弱我""]","","","","","","","","yes","","","","","","","","","SRET","EW_formal","","key","j","16.673069306930508","768","428","朋友","刻苦","Positive","ability","","","","","","","","","","",""
"762","","f","psychophysics","50","257892","0.0-7.0-3.0-0.36","4","3","4","2","5","4","2","4","4","4","5","0","-1","-1","1","-1","0","1","1","4","4","5","4","4","3","4","4","4","4","3","6","6","5","4","6","6","7","6","4","5","3","3","5","3","6","1","5","3","1","5","3","5","4","3","3","3","6","3","5","3","3","3","2","3","5","3","6","5","3","6","5","3","2","3","5","3","3","3","5","789237328983101441","黄","461","Female","[""好我"",""坏她"",""好她"",""坏我""]","[""强我"",""弱她"",""强她"",""弱我""]","","","","","","","","no","","","","","","","","","SRET","EW_formal","","key","f","16.672909090908995","768","428","朋友","迂拙","Negative","ability","","","","","","","","","","",""
"745","","j","psychophysics","51","259644","0.0-7.0-3.0-0.37","4","3","4","2","5","4","2","4","4","4","5","0","-1","-1","1","-1","0","1","1","4","4","5","4","4","3","4","4","4","4","3","6","6","5","4","6","6","7","6","4","5","3","3","5","3","6","1","5","3","1","5","3","5","4","3","3","3","6","3","5","3","3","3","2","3","5","3","6","5","3","6","5","3","2","3","5","3","3","3","5","789237328983101441","黄","461","Female","[""好我"",""坏她"",""好她"",""坏我""]","[""强我"",""弱她"",""强她"",""弱我""]","","","","","","","","yes","","","","","","","","","SRET","EW_formal","","key","j","16.673076923076923","768","428","自己","仗义","Positive","morality","","","","","","","","","","",""
"626","","f","psychophysics","52","261275","0.0-7.0-3.0-0.38","4","3","4","2","5","4","2","4","4","4","5","0","-1","-1","1","-1","0","1","1","4","4","5","4","4","3","4","4","4","4","3","6","6","5","4","6","6","7","6","4","5","3","3","5","3","6","1","5","3","1","5","3","5","4","3","3","3","6","3","5","3","3","3","2","3","5","3","6","5","3","6","5","3","2","3","5","3","3","3","5","789237328983101441","黄","461","Female","[""好我"",""坏她"",""好她"",""坏我""]","[""强我"",""弱她"",""强她"",""弱我""]","","","","","","","","no","","","","","","","","","SRET","EW_formal","","key","f","16.672989690721636","768","428","朋友","迟钝","Negative","ability","","","","","","","","","","",""
"660","","j","psychophysics","53","262942","0.0-7.0-3.0-0.39","4","3","4","2","5","4","2","4","4","4","5","0","-1","-1","1","-1","0","1","1","4","4","5","4","4","3","4","4","4","4","3","6","6","5","4","6","6","7","6","4","5","3","3","5","3","6","1","5","3","1","5","3","5","4","3","3","3","6","3","5","3","3","3","2","3","5","3","6","5","3","6","5","3","2","3","5","3","3","3","5","789237328983101441","黄","461","Female","[""好我"",""坏她"",""好她"",""坏我""]","[""强我"",""弱她"",""强她"",""弱我""]","","","","","","","","yes","","","","","","","","","SRET","EW_formal","","key","j","16.672929292929247","768","428","朋友","思辨","Positive","ability","","","","","","","","","","",""
"744","","f","psychophysics","54","264693","0.0-7.0-3.0-0.40","4","3","4","2","5","4","2","4","4","4","5","0","-1","-1","1","-1","0","1","1","4","4","5","4","4","3","4","4","4","4","3","6","6","5","4","6","6","7","6","4","5","3","3","5","3","6","1","5","3","1","5","3","5","4","3","3","3","6","3","5","3","3","3","2","3","5","3","6","5","3","6","5","3","2","3","5","3","3","3","5","789237328983101441","黄","461","Female","[""好我"",""坏她"",""好她"",""坏我""]","[""强我"",""弱她"",""强她"",""弱我""]","","","","","","","","no","","","","","","","","","SRET","EW_formal","","key","f","16.673076923076923","768","428","自己","粗心","Negative","ability","","","","","","","","","","",""
"576","","j","psychophysics","55","266276","0.0-7.0-3.0-0.41","4","3","4","2","5","4","2","4","4","4","5","0","-1","-1","1","-1","0","1","1","4","4","5","4","4","3","4","4","4","4","3","6","6","5","4","6","6","7","6","4","5","3","3","5","3","6","1","5","3","1","5","3","5","4","3","3","3","6","3","5","3","3","3","2","3","5","3","6","5","3","6","5","3","2","3","5","3","3","3","5","789237328983101441","黄","461","Female","[""好我"",""坏她"",""好她"",""坏我""]","[""强我"",""弱她"",""强她"",""弱我""]","","","","","","","","yes","","","","","","","","","SRET","EW_formal","","key","j","16.67319148936138","768","428","朋友","文明","Positive","morality","","","","","","","","","","",""
"952","","f","psychophysics","56","268235","0.0-7.0-3.0-0.42","4","3","4","2","5","4","2","4","4","4","5","0","-1","-1","1","-1","0","1","1","4","4","5","4","4","3","4","4","4","4","3","6","6","5","4","6","6","7","6","4","5","3","3","5","3","6","1","5","3","1","5","3","5","4","3","3","3","6","3","5","3","3","3","2","3","5","3","6","5","3","6","5","3","2","3","5","3","3","3","5","789237328983101441","黄","461","Female","[""好我"",""坏她"",""好她"",""坏我""]","[""强我"",""弱她"",""强她"",""弱我""]","","","","","","","","no","","","","","","","","","SRET","EW_formal","","key","f","16.673103448276002","768","428","朋友","短视","Negative","ability","","","","","","","","","","",""
"660","","f","psychophysics","57","269911","0.0-7.0-3.0-0.43","4","3","4","2","5","4","2","4","4","4","5","0","-1","-1","1","-1","0","1","1","4","4","5","4","4","3","4","4","4","4","3","6","6","5","4","6","6","7","6","4","5","3","3","5","3","6","1","5","3","1","5","3","5","4","3","3","3","6","3","5","3","3","3","2","3","5","3","6","5","3","6","5","3","2","3","5","3","3","3","5","789237328983101441","黄","461","Female","[""好我"",""坏她"",""好她"",""坏我""]","[""强我"",""弱她"",""强她"",""弱我""]","","","","","","","","no","","","","","","","","","SRET","EW_formal","","key","f","16.672999999999885","768","428","朋友","伪善","Negative","morality","","","","","","","","","","",""
"1052","","f","psychophysics","58","271971","0.0-7.0-3.0-0.44","4","3","4","2","5","4","2","4","4","4","5","0","-1","-1","1","-1","0","1","1","4","4","5","4","4","3","4","4","4","4","3","6","6","5","4","6","6","7","6","4","5","3","3","5","3","6","1","5","3","1","5","3","5","4","3","3","3","6","3","5","3","3","3","2","3","5","3","6","5","3","6","5","3","2","3","5","3","3","3","5","789237328983101441","黄","461","Female","[""好我"",""坏她"",""好她"",""坏我""]","[""强我"",""弱她"",""强她"",""弱我""]","","","","","","","","no","","","","","","","","","SRET","EW_formal","","key","f","16.673008130081527","768","428","自己","外行","Negative","ability","","","","","","","","","","",""
"1309","","j","psychophysics","59","274296","0.0-7.0-3.0-0.45","4","3","4","2","5","4","2","4","4","4","5","0","-1","-1","1","-1","0","1","1","4","4","5","4","4","3","4","4","4","4","3","6","6","5","4","6","6","7","6","4","5","3","3","5","3","6","1","5","3","1","5","3","5","4","3","3","3","6","3","5","3","3","3","2","3","5","3","6","5","3","6","5","3","2","3","5","3","3","3","5","789237328983101441","黄","461","Female","[""好我"",""坏她"",""好她"",""坏我""]","[""强我"",""弱她"",""强她"",""弱我""]","","","","","","","","yes","","","","","","","","","SRET","EW_formal","","key","j","16.673043478260904","768","428","朋友","远见","Positive","ability","","","","","","","","","","",""
"852","","j","psychophysics","60","276156","0.0-7.0-3.0-0.46","4","3","4","2","5","4","2","4","4","4","5","0","-1","-1","1","-1","0","1","1","4","4","5","4","4","3","4","4","4","4","3","6","6","5","4","6","6","7","6","4","5","3","3","5","3","6","1","5","3","1","5","3","5","4","3","3","3","6","3","5","3","3","3","2","3","5","3","6","5","3","6","5","3","2","3","5","3","3","3","5","789237328983101441","黄","461","Female","[""好我"",""坏她"",""好她"",""坏我""]","[""强我"",""弱她"",""强她"",""弱我""]","","","","","","","","yes","","","","","","","","","SRET","EW_formal","","key","j","16.672972972973078","768","428","自己","礼貌","Positive","morality","","","","","","","","","","",""
"660","","j","psychophysics","61","277831","0.0-7.0-3.0-0.47","4","3","4","2","5","4","2","4","4","4","5","0","-1","-1","1","-1","0","1","1","4","4","5","4","4","3","4","4","4","4","3","6","6","5","4","6","6","7","6","4","5","3","3","5","3","6","1","5","3","1","5","3","5","4","3","3","3","6","3","5","3","3","3","2","3","5","3","6","5","3","6","5","3","2","3","5","3","3","3","5","789237328983101441","黄","461","Female","[""好我"",""坏她"",""好她"",""坏我""]","[""强我"",""弱她"",""强她"",""弱我""]","","","","","","","","yes","","","","","","","","","SRET","EW_formal","","key","j","16.673131313131453","768","428","自己","淡泊","Positive","morality","","","","","","","","","","",""
"1678","","f","psychophysics","62","280517","0.0-7.0-3.0-0.48","4","3","4","2","5","4","2","4","4","4","5","0","-1","-1","1","-1","0","1","1","4","4","5","4","4","3","4","4","4","4","3","6","6","5","4","6","6","7","6","4","5","3","3","5","3","6","1","5","3","1","5","3","5","4","3","3","3","6","3","5","3","3","3","2","3","5","3","6","5","3","6","5","3","2","3","5","3","3","3","5","789237328983101441","黄","461","Female","[""好我"",""坏她"",""好她"",""坏我""]","[""强我"",""弱她"",""强她"",""弱我""]","","","","","","","","no","","","","","","","","","SRET","EW_formal","","key","f","16.67300000000032","768","428","朋友","偏私","Negative","morality","","","","","","","","","","",""
"547","","f","psychophysics","63","282171","0.0-7.0-3.0-0.49","4","3","4","2","5","4","2","4","4","4","5","0","-1","-1","1","-1","0","1","1","4","4","5","4","4","3","4","4","4","4","3","6","6","5","4","6","6","7","6","4","5","3","3","5","3","6","1","5","3","1","5","3","5","4","3","3","3","6","3","5","3","3","3","2","3","5","3","6","5","3","6","5","3","2","3","5","3","3","3","5","789237328983101441","黄","461","Female","[""好我"",""坏她"",""好她"",""坏我""]","[""强我"",""弱她"",""强她"",""弱我""]","","","","","","","","no","","","","","","","","","SRET","EW_formal","","key","f","16.673061224489416","768","428","自己","不良","Negative","morality","","","","","","","","","","",""
"724","","j","psychophysics","64","283899","0.0-7.0-3.0-0.50","4","3","4","2","5","4","2","4","4","4","5","0","-1","-1","1","-1","0","1","1","4","4","5","4","4","3","4","4","4","4","3","6","6","5","4","6","6","7","6","4","5","3","3","5","3","6","1","5","3","1","5","3","5","4","3","3","3","6","3","5","3","3","3","2","3","5","3","6","5","3","6","5","3","2","3","5","3","3","3","5","789237328983101441","黄","461","Female","[""好我"",""坏她"",""好她"",""坏我""]","[""强我"",""弱她"",""强她"",""弱我""]","","","","","","","","yes","","","","","","","","","SRET","EW_formal","","key","j","16.673009708737933","768","428","自己","懂行","Positive","ability","","","","","","","","","","",""
"549","","j","psychophysics","65","285457","0.0-7.0-3.0-0.51","4","3","4","2","5","4","2","4","4","4","5","0","-1","-1","1","-1","0","1","1","4","4","5","4","4","3","4","4","4","4","3","6","6","5","4","6","6","7","6","4","5","3","3","5","3","6","1","5","3","1","5","3","5","4","3","3","3","6","3","5","3","3","3","2","3","5","3","6","5","3","6","5","3","2","3","5","3","3","3","5","789237328983101441","黄","461","Female","[""好我"",""坏她"",""好她"",""坏我""]","[""强我"",""弱她"",""强她"",""弱我""]","","","","","","","","yes","","","","","","","","","SRET","EW_formal","","key","j","16.67304347826069","768","428","自己","仁爱","Positive","morality","","","","","","","","","","",""
"558","","j","psychophysics","66","287017","0.0-7.0-3.0-0.52","4","3","4","2","5","4","2","4","4","4","5","0","-1","-1","1","-1","0","1","1","4","4","5","4","4","3","4","4","4","4","3","6","6","5","4","6","6","7","6","4","5","3","3","5","3","6","1","5","3","1","5","3","5","4","3","3","3","6","3","5","3","3","3","2","3","5","3","6","5","3","6","5","3","2","3","5","3","3","3","5","789237328983101441","黄","461","Female","[""好我"",""坏她"",""好她"",""坏我""]","[""强我"",""弱她"",""强她"",""弱我""]","","","","","","","","yes","","","","","","","","","SRET","EW_formal","","key","j","16.67290322580663","768","428","朋友","上进","Positive","ability","","","","","","","","","","",""
"584","","f","psychophysics","67","288610","0.0-7.0-3.0-0.53","4","3","4","2","5","4","2","4","4","4","5","0","-1","-1","1","-1","0","1","1","4","4","5","4","4","3","4","4","4","4","3","6","6","5","4","6","6","7","6","4","5","3","3","5","3","6","1","5","3","1","5","3","5","4","3","3","3","6","3","5","3","3","3","2","3","5","3","6","5","3","6","5","3","2","3","5","3","3","3","5","789237328983101441","黄","461","Female","[""好我"",""坏她"",""好她"",""坏我""]","[""强我"",""弱她"",""强她"",""弱我""]","","","","","","","","no","","","","","","","","","SRET","EW_formal","","key","f","16.673052631578972","768","428","自己","无赖","Negative","morality","","","","","","","","","","",""
"507","","j","psychophysics","68","290215","0.0-7.0-3.0-0.54","4","3","4","2","5","4","2","4","4","4","5","0","-1","-1","1","-1","0","1","1","4","4","5","4","4","3","4","4","4","4","3","6","6","5","4","6","6","7","6","4","5","3","3","5","3","6","1","5","3","1","5","3","5","4","3","3","3","6","3","5","3","3","3","2","3","5","3","6","5","3","6","5","3","2","3","5","3","3","3","5","789237328983101441","黄","461","Female","[""好我"",""坏她"",""好她"",""坏我""]","[""强我"",""弱她"",""强她"",""弱我""]","","","","","","","","yes","","","","","","","","","SRET","EW_formal","","key","j","16.673052631578972","768","428","自己","孝顺","Positive","morality","","","","","","","","","","",""
"529","","j","psychophysics","69","291756","0.0-7.0-3.0-0.55","4","3","4","2","5","4","2","4","4","4","5","0","-1","-1","1","-1","0","1","1","4","4","5","4","4","3","4","4","4","4","3","6","6","5","4","6","6","7","6","4","5","3","3","5","3","6","1","5","3","1","5","3","5","4","3","3","3","6","3","5","3","3","3","2","3","5","3","6","5","3","6","5","3","2","3","5","3","3","3","5","789237328983101441","黄","461","Female","[""好我"",""坏她"",""好她"",""坏我""]","[""强我"",""弱她"",""强她"",""弱我""]","","","","","","","","yes","","","","","","","","","SRET","EW_formal","","key","j","16.67296703296757","768","428","朋友","君子","Positive","morality","","","","","","","","","","",""
"617","","f","psychophysics","70","293377","0.0-7.0-3.0-0.56","4","3","4","2","5","4","2","4","4","4","5","0","-1","-1","1","-1","0","1","1","4","4","5","4","4","3","4","4","4","4","3","6","6","5","4","6","6","7","6","4","5","3","3","5","3","6","1","5","3","1","5","3","5","4","3","3","3","6","3","5","3","3","3","2","3","5","3","6","5","3","6","5","3","2","3","5","3","3","3","5","789237328983101441","黄","461","Female","[""好我"",""坏她"",""好她"",""坏我""]","[""强我"",""弱她"",""强她"",""弱我""]","","","","","","","","no","","","","","","","","","SRET","EW_formal","","key","f","16.672916666666424","768","428","自己","诡诈","Negative","morality","","","","","","","","","","",""
"1052","","f","psychophysics","71","295433","0.0-7.0-3.0-0.57","4","3","4","2","5","4","2","4","4","4","5","0","-1","-1","1","-1","0","1","1","4","4","5","4","4","3","4","4","4","4","3","6","6","5","4","6","6","7","6","4","5","3","3","5","3","6","1","5","3","1","5","3","5","4","3","3","3","6","3","5","3","3","3","2","3","5","3","6","5","3","6","5","3","2","3","5","3","3","3","5","789237328983101441","黄","461","Female","[""好我"",""坏她"",""好她"",""坏我""]","[""强我"",""弱她"",""强她"",""弱我""]","","","","","","","","no","","","","","","","","","SRET","EW_formal","","key","f","16.673008130081527","768","428","自己","业余","Negative","ability","","","","","","","","","","",""
"771","","j","psychophysics","72","297218","0.0-7.0-3.0-0.58","4","3","4","2","5","4","2","4","4","4","5","0","-1","-1","1","-1","0","1","1","4","4","5","4","4","3","4","4","4","4","3","6","6","5","4","6","6","7","6","4","5","3","3","5","3","6","1","5","3","1","5","3","5","4","3","3","3","6","3","5","3","3","3","2","3","5","3","6","5","3","6","5","3","2","3","5","3","3","3","5","789237328983101441","黄","461","Female","[""好我"",""坏她"",""好她"",""坏我""]","[""强我"",""弱她"",""强她"",""弱我""]","","","","","","","","yes","","","","","","","","","SRET","EW_formal","","key","j","16.67301886792477","768","428","自己","变通","Positive","ability","","","","","","","","","","",""
"620","","f","psychophysics","73","298848","0.0-7.0-3.0-0.59","4","3","4","2","5","4","2","4","4","4","5","0","-1","-1","1","-1","0","1","1","4","4","5","4","4","3","4","4","4","4","3","6","6","5","4","6","6","7","6","4","5","3","3","5","3","6","1","5","3","1","5","3","5","4","3","3","3","6","3","5","3","3","3","2","3","5","3","6","5","3","6","5","3","2","3","5","3","3","3","5","789237328983101441","黄","461","Female","[""好我"",""坏她"",""好她"",""坏我""]","[""强我"",""弱她"",""强她"",""弱我""]","","","","","","","","no","","","","","","","","","SRET","EW_formal","","key","f","16.672989690721337","768","428","自己","失信","Negative","morality","","","","","","","","","","",""
"653","","f","psychophysics","74","300514","0.0-7.0-3.0-0.60","4","3","4","2","5","4","2","4","4","4","5","0","-1","-1","1","-1","0","1","1","4","4","5","4","4","3","4","4","4","4","3","6","6","5","4","6","6","7","6","4","5","3","3","5","3","6","1","5","3","1","5","3","5","4","3","3","3","6","3","5","3","3","3","2","3","5","3","6","5","3","6","5","3","2","3","5","3","3","3","5","789237328983101441","黄","461","Female","[""好我"",""坏她"",""好她"",""坏我""]","[""强我"",""弱她"",""强她"",""弱我""]","","","","","","","","no","","","","","","","","","SRET","EW_formal","","key","f","16.672929292929247","768","428","自己","无知","Negative","ability","","","","","","","","","","",""
"605","","j","psychophysics","75","302136","0.0-7.0-3.0-0.61","4","3","4","2","5","4","2","4","4","4","5","0","-1","-1","1","-1","0","1","1","4","4","5","4","4","3","4","4","4","4","3","6","6","5","4","6","6","7","6","4","5","3","3","5","3","6","1","5","3","1","5","3","5","4","3","3","3","6","3","5","3","3","3","2","3","5","3","6","5","3","6","5","3","2","3","5","3","3","3","5","789237328983101441","黄","461","Female","[""好我"",""坏她"",""好她"",""坏我""]","[""强我"",""弱她"",""强她"",""弱我""]","","","","","","","","yes","","","","","","","","","SRET","EW_formal","","key","j","16.672916666666424","768","428","朋友","毅力","Positive","ability","","","","","","","","","","",""
"443","","j","psychophysics","76","303593","0.0-7.0-3.0-0.62","4","3","4","2","5","4","2","4","4","4","5","0","-1","-1","1","-1","0","1","1","4","4","5","4","4","3","4","4","4","4","3","6","6","5","4","6","6","7","6","4","5","3","3","5","3","6","1","5","3","1","5","3","5","4","3","3","3","6","3","5","3","3","3","2","3","5","3","6","5","3","6","5","3","2","3","5","3","3","3","5","789237328983101441","黄","461","Female","[""好我"",""坏她"",""好她"",""坏我""]","[""强我"",""弱她"",""强她"",""弱我""]","","","","","","","","yes","","","","","","","","","SRET","EW_formal","","key","j","16.67302325581401","768","428","朋友","好心","Positive","morality","","","","","","","","","","",""
"524","","f","psychophysics","77","305123","0.0-7.0-3.0-0.63","4","3","4","2","5","4","2","4","4","4","5","0","-1","-1","1","-1","0","1","1","4","4","5","4","4","3","4","4","4","4","3","6","6","5","4","6","6","7","6","4","5","3","3","5","3","6","1","5","3","1","5","3","5","4","3","3","3","6","3","5","3","3","3","2","3","5","3","6","5","3","6","5","3","2","3","5","3","3","3","5","789237328983101441","黄","461","Female","[""好我"",""坏她"",""好她"",""坏我""]","[""强我"",""弱她"",""强她"",""弱我""]","","","","","","","","no","","","","","","","","","SRET","EW_formal","","key","f","16.67296703296693","768","428","朋友","歹毒","Negative","morality","","","","","","","","","","",""
"595","","f","psychophysics","78","306730","0.0-7.0-3.0-0.64","4","3","4","2","5","4","2","4","4","4","5","0","-1","-1","1","-1","0","1","1","4","4","5","4","4","3","4","4","4","4","3","6","6","5","4","6","6","7","6","4","5","3","3","5","3","6","1","5","3","1","5","3","5","4","3","3","3","6","3","5","3","3","3","2","3","5","3","6","5","3","6","5","3","2","3","5","3","3","3","5","789237328983101441","黄","461","Female","[""好我"",""坏她"",""好她"",""坏我""]","[""强我"",""弱她"",""强她"",""弱我""]","","","","","","","","no","","","","","","","","","SRET","EW_formal","","key","f","16.673052631578972","768","428","自己","怠惰","Negative","ability","","","","","","","","","","",""
"722","","f","psychophysics","79","308455","0.0-7.0-3.0-0.65","4","3","4","2","5","4","2","4","4","4","5","0","-1","-1","1","-1","0","1","1","4","4","5","4","4","3","4","4","4","4","3","6","6","5","4","6","6","7","6","4","5","3","3","5","3","6","1","5","3","1","5","3","5","4","3","3","3","6","3","5","3","3","3","2","3","5","3","6","5","3","6","5","3","2","3","5","3","3","3","5","789237328983101441","黄","461","Female","[""好我"",""坏她"",""好她"",""坏我""]","[""强我"",""弱她"",""强她"",""弱我""]","","","","","","","","no","","","","","","","","","SRET","EW_formal","","key","f","16.673009708737933","768","428","朋友","贪污","Negative","morality","","","","","","","","","","",""
"687","","j","psychophysics","80","310156","0.0-7.0-3.0-0.66","4","3","4","2","5","4","2","4","4","4","5","0","-1","-1","1","-1","0","1","1","4","4","5","4","4","3","4","4","4","4","3","6","6","5","4","6","6","7","6","4","5","3","3","5","3","6","1","5","3","1","5","3","5","4","3","3","3","6","3","5","3","3","3","2","3","5","3","6","5","3","6","5","3","2","3","5","3","3","3","5","789237328983101441","黄","461","Female","[""好我"",""坏她"",""好她"",""坏我""]","[""强我"",""弱她"",""强她"",""弱我""]","","","","","","","","yes","","","","","","","","","SRET","EW_formal","","key","j","16.67287128712892","768","428","自己","忠良","Positive","morality","","","","","","","","","","",""
"935","","f","psychophysics","81","312104","0.0-7.0-3.0-0.67","4","3","4","2","5","4","2","4","4","4","5","0","-1","-1","1","-1","0","1","1","4","4","5","4","4","3","4","4","4","4","3","6","6","5","4","6","6","7","6","4","5","3","3","5","3","6","1","5","3","1","5","3","5","4","3","3","3","6","3","5","3","3","3","2","3","5","3","6","5","3","6","5","3","2","3","5","3","3","3","5","789237328983101441","黄","461","Female","[""好我"",""坏她"",""好她"",""坏我""]","[""强我"",""弱她"",""强她"",""弱我""]","","","","","","","","no","","","","","","","","","SRET","EW_formal","","key","f","16.6731034482755","768","428","自己","逞能","Negative","ability","","","","","","","","","","",""
"605","","f","psychophysics","82","313724","0.0-7.0-3.0-0.68","4","3","4","2","5","4","2","4","4","4","5","0","-1","-1","1","-1","0","1","1","4","4","5","4","4","3","4","4","4","4","3","6","6","5","4","6","6","7","6","4","5","3","3","5","3","6","1","5","3","1","5","3","5","4","3","3","3","6","3","5","3","3","3","2","3","5","3","6","5","3","6","5","3","2","3","5","3","3","3","5","789237328983101441","黄","461","Female","[""好我"",""坏她"",""好她"",""坏我""]","[""强我"",""弱她"",""强她"",""弱我""]","","","","","","","","no","","","","","","","","","SRET","EW_formal","","key","f","16.673124999999953","768","428","朋友","腐败","Negative","morality","","","","","","","","","","",""
"471","","f","psychophysics","83","315208","0.0-7.0-3.0-0.69","4","3","4","2","5","4","2","4","4","4","5","0","-1","-1","1","-1","0","1","1","4","4","5","4","4","3","4","4","4","4","3","6","6","5","4","6","6","7","6","4","5","3","3","5","3","6","1","5","3","1","5","3","5","4","3","3","3","6","3","5","3","3","3","2","3","5","3","6","5","3","6","5","3","2","3","5","3","3","3","5","789237328983101441","黄","461","Female","[""好我"",""坏她"",""好她"",""坏我""]","[""强我"",""弱她"",""强她"",""弱我""]","","","","","","","","no","","","","","","","","","SRET","EW_formal","","key","f","16.673181818182375","768","428","自己","混账","Negative","morality","","","","","","","","","","",""
"584","","j","psychophysics","84","316802","0.0-7.0-3.0-0.70","4","3","4","2","5","4","2","4","4","4","5","0","-1","-1","1","-1","0","1","1","4","4","5","4","4","3","4","4","4","4","3","6","6","5","4","6","6","7","6","4","5","3","3","5","3","6","1","5","3","1","5","3","5","4","3","3","3","6","3","5","3","3","3","2","3","5","3","6","5","3","6","5","3","2","3","5","3","3","3","5","789237328983101441","黄","461","Female","[""好我"",""坏她"",""好她"",""坏我""]","[""强我"",""弱她"",""强她"",""弱我""]","","","","","","","","yes","","","","","","","","","SRET","EW_formal","","key","j","16.672978723404356","768","428","自己","有力","Positive","ability","","","","","","","","","","",""
"472","","j","psychophysics","85","318277","0.0-7.0-3.0-0.71","4","3","4","2","5","4","2","4","4","4","5","0","-1","-1","1","-1","0","1","1","4","4","5","4","4","3","4","4","4","4","3","6","6","5","4","6","6","7","6","4","5","3","3","5","3","6","1","5","3","1","5","3","5","4","3","3","3","6","3","5","3","3","3","2","3","5","3","6","5","3","6","5","3","2","3","5","3","3","3","5","789237328983101441","黄","461","Female","[""好我"",""坏她"",""好她"",""坏我""]","[""强我"",""弱她"",""强她"",""弱我""]","","","","","","","","yes","","","","","","","","","SRET","EW_formal","","key","j","16.67295454545423","768","428","朋友","热心","Positive","morality","","","","","","","","","","",""
"477","","j","psychophysics","86","319765","0.0-7.0-3.0-0.72","4","3","4","2","5","4","2","4","4","4","5","0","-1","-1","1","-1","0","1","1","4","4","5","4","4","3","4","4","4","4","3","6","6","5","4","6","6","7","6","4","5","3","3","5","3","6","1","5","3","1","5","3","5","4","3","3","3","6","3","5","3","3","3","2","3","5","3","6","5","3","6","5","3","2","3","5","3","3","3","5","789237328983101441","黄","461","Female","[""好我"",""坏她"",""好她"",""坏我""]","[""强我"",""弱她"",""强她"",""弱我""]","","","","","","","","yes","","","","","","","","","SRET","EW_formal","","key","j","16.67295454545423","768","428","朋友","坦荡","Positive","morality","","","","","","","","","","",""
"545","","f","psychophysics","87","321314","0.0-7.0-3.0-0.73","4","3","4","2","5","4","2","4","4","4","5","0","-1","-1","1","-1","0","1","1","4","4","5","4","4","3","4","4","4","4","3","6","6","5","4","6","6","7","6","4","5","3","3","5","3","6","1","5","3","1","5","3","5","4","3","3","3","6","3","5","3","3","3","2","3","5","3","6","5","3","6","5","3","2","3","5","3","3","3","5","789237328983101441","黄","461","Female","[""好我"",""坏她"",""好她"",""坏我""]","[""强我"",""弱她"",""强她"",""弱我""]","","","","","","","","no","","","","","","","","","SRET","EW_formal","","key","f","16.67304347826069","768","428","自己","愚蠢","Negative","ability","","","","","","","","","","",""
"658","","f","psychophysics","88","322981","0.0-7.0-3.0-0.74","4","3","4","2","5","4","2","4","4","4","5","0","-1","-1","1","-1","0","1","1","4","4","5","4","4","3","4","4","4","4","3","6","6","5","4","6","6","7","6","4","5","3","3","5","3","6","1","5","3","1","5","3","5","4","3","3","3","6","3","5","3","3","3","2","3","5","3","6","5","3","6","5","3","2","3","5","3","3","3","5","789237328983101441","黄","461","Female","[""好我"",""坏她"",""好她"",""坏我""]","[""强我"",""弱她"",""强她"",""弱我""]","","","","","","","","no","","","","","","","","","SRET","EW_formal","","key","f","16.673131313131453","768","428","自己","刻薄","Negative","morality","","","","","","","","","","",""
"554","","j","psychophysics","89","324578","0.0-7.0-3.0-0.75","4","3","4","2","5","4","2","4","4","4","5","0","-1","-1","1","-1","0","1","1","4","4","5","4","4","3","4","4","4","4","3","6","6","5","4","6","6","7","6","4","5","3","3","5","3","6","1","5","3","1","5","3","5","4","3","3","3","6","3","5","3","3","3","2","3","5","3","6","5","3","6","5","3","2","3","5","3","3","3","5","789237328983101441","黄","461","Female","[""好我"",""坏她"",""好她"",""坏我""]","[""强我"",""弱她"",""强她"",""弱我""]","","","","","","","","yes","","","","","","","","","SRET","EW_formal","","key","j","16.673052631578972","768","428","自己","守法","Positive","morality","","","","","","","","","","",""
"500","","f","psychophysics","90","326090","0.0-7.0-3.0-0.76","4","3","4","2","5","4","2","4","4","4","5","0","-1","-1","1","-1","0","1","1","4","4","5","4","4","3","4","4","4","4","3","6","6","5","4","6","6","7","6","4","5","3","3","5","3","6","1","5","3","1","5","3","5","4","3","3","3","6","3","5","3","3","3","2","3","5","3","6","5","3","6","5","3","2","3","5","3","3","3","5","789237328983101441","黄","461","Female","[""好我"",""坏她"",""好她"",""坏我""]","[""强我"",""弱她"",""强她"",""弱我""]","","","","","","","","no","","","","","","","","","SRET","EW_formal","","key","f","16.67303370786543","768","428","自己","低劣","Negative","morality","","","","","","","","","","",""
"526","","f","psychophysics","91","327634","0.0-7.0-3.0-0.77","4","3","4","2","5","4","2","4","4","4","5","0","-1","-1","1","-1","0","1","1","4","4","5","4","4","3","4","4","4","4","3","6","6","5","4","6","6","7","6","4","5","3","3","5","3","6","1","5","3","1","5","3","5","4","3","3","3","6","3","5","3","3","3","2","3","5","3","6","5","3","6","5","3","2","3","5","3","3","3","5","789237328983101441","黄","461","Female","[""好我"",""坏她"",""好她"",""坏我""]","[""强我"",""弱她"",""强她"",""弱我""]","","","","","","","","no","","","","","","","","","SRET","EW_formal","","key","f","16.672826086956142","768","428","朋友","不端","Negative","morality","","","","","","","","","","",""
"535","","j","psychophysics","92","329176","0.0-7.0-3.0-0.78","4","3","4","2","5","4","2","4","4","4","5","0","-1","-1","1","-1","0","1","1","4","4","5","4","4","3","4","4","4","4","3","6","6","5","4","6","6","7","6","4","5","3","3","5","3","6","1","5","3","1","5","3","5","4","3","3","3","6","3","5","3","3","3","2","3","5","3","6","5","3","6","5","3","2","3","5","3","3","3","5","789237328983101441","黄","461","Female","[""好我"",""坏她"",""好她"",""坏我""]","[""强我"",""弱她"",""强她"",""弱我""]","","","","","","","","yes","","","","","","","","","SRET","EW_formal","","key","j","16.67304347826069","768","428","自己","高效","Positive","ability","","","","","","","","","","",""
"492","","j","psychophysics","93","330683","0.0-7.0-3.0-0.79","4","3","4","2","5","4","2","4","4","4","5","0","-1","-1","1","-1","0","1","1","4","4","5","4","4","3","4","4","4","4","3","6","6","5","4","6","6","7","6","4","5","3","3","5","3","6","1","5","3","1","5","3","5","4","3","3","3","6","3","5","3","3","3","2","3","5","3","6","5","3","6","5","3","2","3","5","3","3","3","5","789237328983101441","黄","461","Female","[""好我"",""坏她"",""好她"",""坏我""]","[""强我"",""弱她"",""强她"",""弱我""]","","","","","","","","yes","","","","","","","","","SRET","EW_formal","","key","j","16.672808988764096","768","428","朋友","守信","Positive","morality","","","","","","","","","","",""
"618","","f","psychophysics","94","332309","0.0-7.0-3.0-0.80","4","3","4","2","5","4","2","4","4","4","5","0","-1","-1","1","-1","0","1","1","4","4","5","4","4","3","4","4","4","4","3","6","6","5","4","6","6","7","6","4","5","3","3","5","3","6","1","5","3","1","5","3","5","4","3","3","3","6","3","5","3","3","3","2","3","5","3","6","5","3","6","5","3","2","3","5","3","3","3","5","789237328983101441","黄","461","Female","[""好我"",""坏她"",""好她"",""坏我""]","[""强我"",""弱她"",""强她"",""弱我""]","","","","","","","","no","","","","","","","","","SRET","EW_formal","","key","f","16.673124999999953","768","428","自己","畏难","Negative","ability","","","","","","","","","","",""
"631","","j","psychophysics","95","333959","0.0-7.0-3.0-0.81","4","3","4","2","5","4","2","4","4","4","5","0","-1","-1","1","-1","0","1","1","4","4","5","4","4","3","4","4","4","4","3","6","6","5","4","6","6","7","6","4","5","3","3","5","3","6","1","5","3","1","5","3","5","4","3","3","3","6","3","5","3","3","3","2","3","5","3","6","5","3","6","5","3","2","3","5","3","3","3","5","789237328983101441","黄","461","Female","[""好我"",""坏她"",""好她"",""坏我""]","[""强我"",""弱她"",""强她"",""弱我""]","","","","","","","","yes","","","","","","","","","SRET","EW_formal","","key","j","16.673061224489416","768","428","朋友","敏捷","Positive","ability","","","","","","","","","","",""
"843","","j","psychophysics","96","335821","0.0-7.0-3.0-0.82","4","3","4","2","5","4","2","4","4","4","5","0","-1","-1","1","-1","0","1","1","4","4","5","4","4","3","4","4","4","4","3","6","6","5","4","6","6","7","6","4","5","3","3","5","3","6","1","5","3","1","5","3","5","4","3","3","3","6","3","5","3","3","3","2","3","5","3","6","5","3","6","5","3","2","3","5","3","3","3","5","789237328983101441","黄","461","Female","[""好我"",""坏她"",""好她"",""坏我""]","[""强我"",""弱她"",""强她"",""弱我""]","","","","","","","","yes","","","","","","","","","SRET","EW_formal","","key","j","16.672972972973078","768","428","自己","无私","Positive","morality","","","","","","","","","","",""
"610","","f","psychophysics","97","337447","0.0-7.0-3.0-0.83","4","3","4","2","5","4","2","4","4","4","5","0","-1","-1","1","-1","0","1","1","4","4","5","4","4","3","4","4","4","4","3","6","6","5","4","6","6","7","6","4","5","3","3","5","3","6","1","5","3","1","5","3","5","4","3","3","3","6","3","5","3","3","3","2","3","5","3","6","5","3","6","5","3","2","3","5","3","3","3","5","789237328983101441","黄","461","Female","[""好我"",""坏她"",""好她"",""坏我""]","[""强我"",""弱她"",""强她"",""弱我""]","","","","","","","","no","","","","","","","","","SRET","EW_formal","","key","f","16.672989690721938","768","428","朋友","狡诈","Negative","morality","","","","","","","","","","",""
"537","","j","psychophysics","98","339000","0.0-7.0-3.0-0.84","4","3","4","2","5","4","2","4","4","4","5","0","-1","-1","1","-1","0","1","1","4","4","5","4","4","3","4","4","4","4","3","6","6","5","4","6","6","7","6","4","5","3","3","5","3","6","1","5","3","1","5","3","5","4","3","3","3","6","3","5","3","3","3","2","3","5","3","6","5","3","6","5","3","2","3","5","3","3","3","5","789237328983101441","黄","461","Female","[""好我"",""坏她"",""好她"",""坏我""]","[""强我"",""弱她"",""强她"",""弱我""]","","","","","","","","yes","","","","","","","","","SRET","EW_formal","","key","j","16.67304347826069","768","428","自己","主见","Positive","ability","","","","","","","","","","",""
"580","","j","psychophysics","99","340591","0.0-7.0-3.0-0.85","4","3","4","2","5","4","2","4","4","4","5","0","-1","-1","1","-1","0","1","1","4","4","5","4","4","3","4","4","4","4","3","6","6","5","4","6","6","7","6","4","5","3","3","5","3","6","1","5","3","1","5","3","5","4","3","3","3","6","3","5","3","3","3","2","3","5","3","6","5","3","6","5","3","2","3","5","3","3","3","5","789237328983101441","黄","461","Female","[""好我"",""坏她"",""好她"",""坏我""]","[""强我"",""弱她"",""强她"",""弱我""]","","","","","","","","yes","","","","","","","","","SRET","EW_formal","","key","j","16.672978723403734","768","428","朋友","素养","Positive","morality","","","","","","","","","","",""
"580","","f","psychophysics","100","342177","0.0-7.0-3.0-0.86","4","3","4","2","5","4","2","4","4","4","5","0","-1","-1","1","-1","0","1","1","4","4","5","4","4","3","4","4","4","4","3","6","6","5","4","6","6","7","6","4","5","3","3","5","3","6","1","5","3","1","5","3","5","4","3","3","3","6","3","5","3","3","3","2","3","5","3","6","5","3","6","5","3","2","3","5","3","3","3","5","789237328983101441","黄","461","Female","[""好我"",""坏她"",""好她"",""坏我""]","[""强我"",""弱她"",""强她"",""弱我""]","","","","","","","","no","","","","","","","","","SRET","EW_formal","","key","f","16.672978723403734","768","428","朋友","低俗","Negative","morality","","","","","","","","","","",""
"611","","j","psychophysics","101","343790","0.0-7.0-3.0-0.87","4","3","4","2","5","4","2","4","4","4","5","0","-1","-1","1","-1","0","1","1","4","4","5","4","4","3","4","4","4","4","3","6","6","5","4","6","6","7","6","4","5","3","3","5","3","6","1","5","3","1","5","3","5","4","3","3","3","6","3","5","3","3","3","2","3","5","3","6","5","3","6","5","3","2","3","5","3","3","3","5","789237328983101441","黄","461","Female","[""好我"",""坏她"",""好她"",""坏我""]","[""强我"",""弱她"",""强她"",""弱我""]","","","","","","","","yes","","","","","","","","","SRET","EW_formal","","key","j","16.672916666666424","768","428","自己","缓慢","Negative","ability","","","","","","","","","","",""
"46507","
    <p><div style='color:white;font-size:35px; line-height:20px;'>计算任务</div></p><br>
    <p><div style='color:red;font-size:25px; line-height:20px;'>接下来，您将看到一些四则运算题，<b>请从键盘选择 0-9 进行反应。</b></div></p>
    <p><div style='color:red;font-size:25px; line-height:20px;'>请尽可能快地进行计算，计算的速度和正确率将影响报酬的发放。</div></p>
    <p><div class='footer' style='color:white;font-size:25px; line-height:20px;'>如果对本实验还有不清楚之处，请立即向实验员咨询。</p><p style='color:white;font-size:25px; line-height:20px;'>如果您明白了规则：</p><p style='color:white;font-size:22px; line-height:20px;'>请按 继续 进入练习</p>
    </div>
    ","0","html-button-response","102","390299","0.0-7.0-4.0","4","3","4","2","5","4","2","4","4","4","5","0","-1","-1","1","-1","0","1","1","4","4","5","4","4","3","4","4","4","4","3","6","6","5","4","6","6","7","6","4","5","3","3","5","3","6","1","5","3","1","5","3","5","4","3","3","3","6","3","5","3","3","3","2","3","5","3","6","5","3","6","5","3","2","3","5","3","3","3","5","789237328983101441","黄","461","Female","[""好我"",""坏她"",""好她"",""坏我""]","[""强我"",""弱她"",""强她"",""弱我""]","","","","","","","","","","","","","","","","","SRET_math","math_instructions","Wed Jan 10 2024 22:28:09 GMT+0800 (中国标准时间)","","","","","","","","","","","","","","","","","","","",""
"2167","","4","psychophysics","103","392472","0.0-7.0-5.0-0.0","4","3","4","2","5","4","2","4","4","4","5","0","-1","-1","1","-1","0","1","1","4","4","5","4","4","3","4","4","4","4","3","6","6","5","4","6","6","7","6","4","5","3","3","5","3","6","1","5","3","1","5","3","5","4","3","3","3","6","3","5","3","3","3","2","3","5","3","6","5","3","6","5","3","2","3","5","3","3","3","5","789237328983101441","黄","461","Female","[""好我"",""坏她"",""好她"",""坏我""]","[""强我"",""弱她"",""强她"",""弱我""]","","","","","","","","4","","","","","","","","","SRET","SRET_math_calculate","","key","4","16.54717557251903","768","428","","","","","9-5= ?","4","1","","","","","","","",""
"1972","","5","psychophysics","104","394447","0.0-7.0-5.0-0.1","4","3","4","2","5","4","2","4","4","4","5","0","-1","-1","1","-1","0","1","1","4","4","5","4","4","3","4","4","4","4","3","6","6","5","4","6","6","7","6","4","5","3","3","5","3","6","1","5","3","1","5","3","5","4","3","3","3","6","3","5","3","3","3","2","3","5","3","6","5","3","6","5","3","2","3","5","3","3","3","5","789237328983101441","黄","461","Female","[""好我"",""坏她"",""好她"",""坏我""]","[""强我"",""弱她"",""强她"",""弱我""]","","","","","","","","5","","","","","","","","","SRET","SRET_math_calculate","","key","5","16.672991452991372","768","428","","","","","8-3= ? ","5","1","","","","","","","",""
"1867","","1","psychophysics","105","396314","0.0-7.0-5.0-0.2","4","3","4","2","5","4","2","4","4","4","5","0","-1","-1","1","-1","0","1","1","4","4","5","4","4","3","4","4","4","4","3","6","6","5","4","6","6","7","6","4","5","3","3","5","3","6","1","5","3","1","5","3","5","4","3","3","3","6","3","5","3","3","3","2","3","5","3","6","5","3","6","5","3","2","3","5","3","3","3","5","789237328983101441","黄","461","Female","[""好我"",""坏她"",""好她"",""坏我""]","[""强我"",""弱她"",""强她"",""弱我""]","","","","","","","","1","","","","","","","","","SRET","SRET_math_calculate","","key","1","16.673153153153425","768","428","","","","","9-8= ?","1","1","","","","","","","",""
"1786","","9","psychophysics","106","398101","0.0-7.0-5.0-0.3","4","3","4","2","5","4","2","4","4","4","5","0","-1","-1","1","-1","0","1","1","4","4","5","4","4","3","4","4","4","4","3","6","6","5","4","6","6","7","6","4","5","3","3","5","3","6","1","5","3","1","5","3","5","4","3","3","3","6","3","5","3","3","3","2","3","5","3","6","5","3","6","5","3","2","3","5","3","3","3","5","789237328983101441","黄","461","Female","[""好我"",""坏她"",""好她"",""坏我""]","[""强我"",""弱她"",""强她"",""弱我""]","","","","","","","","9","","","","","","","","","SRET","SRET_math_calculate","","key","9","16.67301886792477","768","428","","","","","4+5= ?","9","1","","","","","","","",""
"2847","","8","psychophysics","107","400952","0.0-7.0-5.0-0.4","4","3","4","2","5","4","2","4","4","4","5","0","-1","-1","1","-1","0","1","1","4","4","5","4","4","3","4","4","4","4","3","6","6","5","4","6","6","7","6","4","5","3","3","5","3","6","1","5","3","1","5","3","5","4","3","3","3","6","3","5","3","3","3","2","3","5","3","6","5","3","6","5","3","2","3","5","3","3","3","5","789237328983101441","黄","461","Female","[""好我"",""坏她"",""好她"",""坏我""]","[""强我"",""弱她"",""强她"",""弱我""]","","","","","","","","8","","","","","","","","","SRET","SRET_math_calculate","","key","8","16.67294117647038","768","428","","","","","56/7= ?","8","1","","","","","","","",""
"1869","","1","psychophysics","108","402827","0.0-7.0-5.0-0.5","4","3","4","2","5","4","2","4","4","4","5","0","-1","-1","1","-1","0","1","1","4","4","5","4","4","3","4","4","4","4","3","6","6","5","4","6","6","7","6","4","5","3","3","5","3","6","1","5","3","1","5","3","5","4","3","3","3","6","3","5","3","3","3","2","3","5","3","6","5","3","6","5","3","2","3","5","3","3","3","5","789237328983101441","黄","461","Female","[""好我"",""坏她"",""好她"",""坏我""]","[""强我"",""弱她"",""强她"",""弱我""]","","","","","","","","1","","","","","","","","","SRET","SRET_math_calculate","","key","1","16.673035714285238","768","428","","","","","4/4= ?","1","1","","","","","","","",""
"1808","","4","psychophysics","109","404637","0.0-7.0-5.0-0.6","4","3","4","2","5","4","2","4","4","4","5","0","-1","-1","1","-1","0","1","1","4","4","5","4","4","3","4","4","4","4","3","6","6","5","4","6","6","7","6","4","5","3","3","5","3","6","1","5","3","1","5","3","5","4","3","3","3","6","3","5","3","3","3","2","3","5","3","6","5","3","6","5","3","2","3","5","3","3","3","5","789237328983101441","黄","461","Female","[""好我"",""坏她"",""好她"",""坏我""]","[""强我"",""弱她"",""强她"",""弱我""]","","","","","","","","4","","","","","","","","","SRET","SRET_math_calculate","","key","4","16.672897196261683","768","428","","","","","3+1= ?","4","1","","","","","","","",""
"2030","","9","psychophysics","110","406671","0.0-7.0-5.0-0.7","4","3","4","2","5","4","2","4","4","4","5","0","-1","-1","1","-1","0","1","1","4","4","5","4","4","3","4","4","4","4","3","6","6","5","4","6","6","7","6","4","5","3","3","5","3","6","1","5","3","1","5","3","5","4","3","3","3","6","3","5","3","3","3","2","3","5","3","6","5","3","6","5","3","2","3","5","3","3","3","5","789237328983101441","黄","461","Female","[""好我"",""坏她"",""好她"",""坏我""]","[""强我"",""弱她"",""强她"",""弱我""]","","","","","","","","9","","","","","","","","","SRET","SRET_math_calculate","","key","9","16.67305785123969","768","428","","","","","1*9= ?","9","1","","","","","","","",""
"1802","","9","psychophysics","111","408478","0.0-7.0-5.0-0.8","4","3","4","2","5","4","2","4","4","4","5","0","-1","-1","1","-1","0","1","1","4","4","5","4","4","3","4","4","4","4","3","6","6","5","4","6","6","7","6","4","5","3","3","5","3","6","1","5","3","1","5","3","5","4","3","3","3","6","3","5","3","3","3","2","3","5","3","6","5","3","6","5","3","2","3","5","3","3","3","5","789237328983101441","黄","461","Female","[""好我"",""坏她"",""好她"",""坏我""]","[""强我"",""弱她"",""强她"",""弱我""]","","","","","","","","9","","","","","","","","","SRET","SRET_math_calculate","","key","9","16.673148148148258","768","428","","","","","2+7= ?","9","1","","","","","","","",""
"1981","","9","psychophysics","112","410461","0.0-7.0-5.0-0.9","4","3","4","2","5","4","2","4","4","4","5","0","-1","-1","1","-1","0","1","1","4","4","5","4","4","3","4","4","4","4","3","6","6","5","4","6","6","7","6","4","5","3","3","5","3","6","1","5","3","1","5","3","5","4","3","3","3","6","3","5","3","3","3","2","3","5","3","6","5","3","6","5","3","2","3","5","3","3","3","5","789237328983101441","黄","461","Female","[""好我"",""坏她"",""好她"",""坏我""]","[""强我"",""弱她"",""强她"",""弱我""]","","","","","","","","9","","","","","","","","","SRET","SRET_math_calculate","","key","9","16.673050847457983","768","428","","","","","81/9= ?","9","1","","","","","","","",""
"1944","","8","psychophysics","113","412409","0.0-7.0-5.0-0.10","4","3","4","2","5","4","2","4","4","4","5","0","-1","-1","1","-1","0","1","1","4","4","5","4","4","3","4","4","4","4","3","6","6","5","4","6","6","7","6","4","5","3","3","5","3","6","1","5","3","1","5","3","5","4","3","3","3","6","3","5","3","3","3","2","3","5","3","6","5","3","6","5","3","2","3","5","3","3","3","5","789237328983101441","黄","461","Female","[""好我"",""坏她"",""好她"",""坏我""]","[""强我"",""弱她"",""强她"",""弱我""]","","","","","","","","8","","","","","","","","","SRET","SRET_math_calculate","","key","8","16.672931034482737","768","428","","","","","6+2= ?","8","1","","","","","","","",""
"1815","","6","psychophysics","114","414229","0.0-7.0-5.0-0.11","4","3","4","2","5","4","2","4","4","4","5","0","-1","-1","1","-1","0","1","1","4","4","5","4","4","3","4","4","4","4","3","6","6","5","4","6","6","7","6","4","5","3","3","5","3","6","1","5","3","1","5","3","5","4","3","3","3","6","3","5","3","3","3","2","3","5","3","6","5","3","6","5","3","2","3","5","3","3","3","5","789237328983101441","黄","461","Female","[""好我"",""坏她"",""好她"",""坏我""]","[""强我"",""弱她"",""强她"",""弱我""]","","","","","","","","6","","","","","","","","","SRET","SRET_math_calculate","","key","6","16.6729629629629","768","428","","","","","3+3= ?","6","1","","","","","","","",""
"1857","","4","psychophysics","115","416088","0.0-7.0-5.0-0.12","4","3","4","2","5","4","2","4","4","4","5","0","-1","-1","1","-1","0","1","1","4","4","5","4","4","3","4","4","4","4","3","6","6","5","4","6","6","7","6","4","5","3","3","5","3","6","1","5","3","1","5","3","5","4","3","3","3","6","3","5","3","3","3","2","3","5","3","6","5","3","6","5","3","2","3","5","3","3","3","5","789237328983101441","黄","461","Female","[""好我"",""坏她"",""好她"",""坏我""]","[""强我"",""弱她"",""强她"",""弱我""]","","","","","","","","4","","","","","","","","","SRET","SRET_math_calculate","","key","4","16.67290909090926","768","428","","","","","4*1= ?","4","1","","","","","","","",""
"1900","","8","psychophysics","116","417990","0.0-7.0-5.0-0.13","4","3","4","2","5","4","2","4","4","4","5","0","-1","-1","1","-1","0","1","1","4","4","5","4","4","3","4","4","4","4","3","6","6","5","4","6","6","7","6","4","5","3","3","5","3","6","1","5","3","1","5","3","5","4","3","3","3","6","3","5","3","3","3","2","3","5","3","6","5","3","6","5","3","2","3","5","3","3","3","5","789237328983101441","黄","461","Female","[""好我"",""坏她"",""好她"",""坏我""]","[""强我"",""弱她"",""强她"",""弱我""]","","","","","","","","8","","","","","","","","","SRET","SRET_math_calculate","","key","8","16.673097345132724","768","428","","","","","4*2= ?","8","1","","","","","","","",""
"1827","","8","psychophysics","117","419818","0.0-7.0-5.0-0.14","4","3","4","2","5","4","2","4","4","4","5","0","-1","-1","1","-1","0","1","1","4","4","5","4","4","3","4","4","4","4","3","6","6","5","4","6","6","7","6","4","5","3","3","5","3","6","1","5","3","1","5","3","5","4","3","3","3","6","3","5","3","3","3","2","3","5","3","6","5","3","6","5","3","2","3","5","3","3","3","5","789237328983101441","黄","461","Female","[""好我"",""坏她"",""好她"",""坏我""]","[""强我"",""弱她"",""强她"",""弱我""]","","","","","","","","8","","","","","","","","","SRET","SRET_math_calculate","","key","8","16.673027522936184","768","428","","","","","7+1= ?","8","1","","","","","","","",""
"1766","","2","psychophysics","118","421585","0.0-7.0-5.0-0.15","4","3","4","2","5","4","2","4","4","4","5","0","-1","-1","1","-1","0","1","1","4","4","5","4","4","3","4","4","4","4","3","6","6","5","4","6","6","7","6","4","5","3","3","5","3","6","1","5","3","1","5","3","5","4","3","3","3","6","3","5","3","3","3","2","3","5","3","6","5","3","6","5","3","2","3","5","3","3","3","5","789237328983101441","黄","461","Female","[""好我"",""坏她"",""好她"",""坏我""]","[""强我"",""弱她"",""强她"",""弱我""]","","","","","","","","2","","","","","","","","","SRET","SRET_math_calculate","","key","2","16.672952380952136","768","428","","","","","1+1= ?","2","1","","","","","","","",""
"1739","","2","psychophysics","119","423324","0.0-7.0-5.0-0.16","4","3","4","2","5","4","2","4","4","4","5","0","-1","-1","1","-1","0","1","1","4","4","5","4","4","3","4","4","4","4","3","6","6","5","4","6","6","7","6","4","5","3","3","5","3","6","1","5","3","1","5","3","5","4","3","3","3","6","3","5","3","3","3","2","3","5","3","6","5","3","6","5","3","2","3","5","3","3","3","5","789237328983101441","黄","461","Female","[""好我"",""坏她"",""好她"",""坏我""]","[""强我"",""弱她"",""强她"",""弱我""]","","","","","","","","2","","","","","","","","","SRET","SRET_math_calculate","","key","2","16.673009708737933","768","428","","","","","9-7= ?","2","1","","","","","","","",""
"2028","","7","psychophysics","120","425354","0.0-7.0-5.0-0.17","4","3","4","2","5","4","2","4","4","4","5","0","-1","-1","1","-1","0","1","1","4","4","5","4","4","3","4","4","4","4","3","6","6","5","4","6","6","7","6","4","5","3","3","5","3","6","1","5","3","1","5","3","5","4","3","3","3","6","3","5","3","3","3","2","3","5","3","6","5","3","6","5","3","2","3","5","3","3","3","5","789237328983101441","黄","461","Female","[""好我"",""坏她"",""好她"",""坏我""]","[""强我"",""弱她"",""强她"",""弱我""]","","","","","","","","7","","","","","","","","","SRET","SRET_math_calculate","","key","7","16.67305785123969","768","428","","","","","11-4= ?","7","1","","","","","","","",""
"1836","","8","psychophysics","121","427192","0.0-7.0-5.0-0.18","4","3","4","2","5","4","2","4","4","4","5","0","-1","-1","1","-1","0","1","1","4","4","5","4","4","3","4","4","4","4","3","6","6","5","4","6","6","7","6","4","5","3","3","5","3","6","1","5","3","1","5","3","5","4","3","3","3","6","3","5","3","3","3","2","3","5","3","6","5","3","6","5","3","2","3","5","3","3","3","5","789237328983101441","黄","461","Female","[""好我"",""坏她"",""好她"",""坏我""]","[""强我"",""弱她"",""强她"",""弱我""]","","","","","","","","8","","","","","","","","","SRET","SRET_math_calculate","","key","8","16.67302752293565","768","428","","","","","11-3= ?","8","1","","","","","","","",""
"1970","","9","psychophysics","122","429164","0.0-7.0-5.0-0.19","4","3","4","2","5","4","2","4","4","4","5","0","-1","-1","1","-1","0","1","1","4","4","5","4","4","3","4","4","4","4","3","6","6","5","4","6","6","7","6","4","5","3","3","5","3","6","1","5","3","1","5","3","5","4","3","3","3","6","3","5","3","3","3","2","3","5","3","6","5","3","6","5","3","2","3","5","3","3","3","5","789237328983101441","黄","461","Female","[""好我"",""坏她"",""好她"",""坏我""]","[""强我"",""弱她"",""强她"",""弱我""]","","","","","","","","9","","","","","","","","","SRET","SRET_math_calculate","","key","9","16.673050847457983","768","428","","","","","18/2= ?","9","1","","","","","","","",""
"2169","","5","psychophysics","123","431336","0.0-7.0-5.0-0.20","4","3","4","2","5","4","2","4","4","4","5","0","-1","-1","1","-1","0","1","1","4","4","5","4","4","3","4","4","4","4","3","6","6","5","4","6","6","7","6","4","5","3","3","5","3","6","1","5","3","1","5","3","5","4","3","3","3","6","3","5","3","3","3","2","3","5","3","6","5","3","6","5","3","2","3","5","3","3","3","5","789237328983101441","黄","461","Female","[""好我"",""坏她"",""好她"",""坏我""]","[""强我"",""弱她"",""强她"",""弱我""]","","","","","","","","5","","","","","","","","","SRET","SRET_math_calculate","","key","5","16.67302325581401","768","428","","","","","15-10= ?","5","1","","","","","","","",""
"2688","","9","psychophysics","124","434025","0.0-7.0-5.0-0.21","4","3","4","2","5","4","2","4","4","4","5","0","-1","-1","1","-1","0","1","1","4","4","5","4","4","3","4","4","4","4","3","6","6","5","4","6","6","7","6","4","5","3","3","5","3","6","1","5","3","1","5","3","5","4","3","3","3","6","3","5","3","3","3","2","3","5","3","6","5","3","6","5","3","2","3","5","3","3","3","5","789237328983101441","黄","461","Female","[""好我"",""坏她"",""好她"",""坏我""]","[""强我"",""弱她"",""强她"",""弱我""]","","","","","","","","9","","","","","","","","","SRET","SRET_math_calculate","","key","9","16.673125000000073","768","428","","","","","32-23= ?","9","1","","","","","","","",""
"1917","","1","psychophysics","125","435942","0.0-7.0-5.0-0.22","4","3","4","2","5","4","2","4","4","4","5","0","-1","-1","1","-1","0","1","1","4","4","5","4","4","3","4","4","4","4","3","6","6","5","4","6","6","7","6","4","5","3","3","5","3","6","1","5","3","1","5","3","5","4","3","3","3","6","3","5","3","3","3","2","3","5","3","6","5","3","6","5","3","2","3","5","3","3","3","5","789237328983101441","黄","461","Female","[""好我"",""坏她"",""好她"",""坏我""]","[""强我"",""弱她"",""强她"",""弱我""]","","","","","","","","1","","","","","","","","","SRET","SRET_math_calculate","","key","1","16.672982456140616","768","428","","","","","10-9= ?","1","1","","","","","","","",""
"2115","","2","psychophysics","126","438061","0.0-7.0-5.0-0.23","4","3","4","2","5","4","2","4","4","4","5","0","-1","-1","1","-1","0","1","1","4","4","5","4","4","3","4","4","4","4","3","6","6","5","4","6","6","7","6","4","5","3","3","5","3","6","1","5","3","1","5","3","5","4","3","3","3","6","3","5","3","3","3","2","3","5","3","6","5","3","6","5","3","2","3","5","3","3","3","5","789237328983101441","黄","461","Female","[""好我"",""坏她"",""好她"",""坏我""]","[""强我"",""弱她"",""强她"",""弱我""]","","","","","","","","2","","","","","","","","","SRET","SRET_math_calculate","","key","2","16.673015873015782","768","428","","","","","18/9= ?","2","1","","","","","","","",""
"2156","","2","psychophysics","127","440219","0.0-7.0-5.0-0.24","4","3","4","2","5","4","2","4","4","4","5","0","-1","-1","1","-1","0","1","1","4","4","5","4","4","3","4","4","4","4","3","6","6","5","4","6","6","7","6","4","5","3","3","5","3","6","1","5","3","1","5","3","5","4","3","3","3","6","3","5","3","3","3","2","3","5","3","6","5","3","6","5","3","2","3","5","3","3","3","5","789237328983101441","黄","461","Female","[""好我"",""坏她"",""好她"",""坏我""]","[""强我"",""弱她"",""强她"",""弱我""]","","","","","","","","2","","","","","","","","","SRET","SRET_math_calculate","","key","2","16.67302325581401","768","428","","","","","5-3= ?","2","1","","","","","","","",""
"1872","","7","psychophysics","128","442094","0.0-7.0-5.0-0.25","4","3","4","2","5","4","2","4","4","4","5","0","-1","-1","1","-1","0","1","1","4","4","5","4","4","3","4","4","4","4","3","6","6","5","4","6","6","7","6","4","5","3","3","5","3","6","1","5","3","1","5","3","5","4","3","3","3","6","3","5","3","3","3","2","3","5","3","6","5","3","6","5","3","2","3","5","3","3","3","5","789237328983101441","黄","461","Female","[""好我"",""坏她"",""好她"",""坏我""]","[""强我"",""弱她"",""强她"",""弱我""]","","","","","","","","7","","","","","","","","","SRET","SRET_math_calculate","","key","7","16.673153153152903","768","428","","","","","3+4= ?","7","1","","","","","","","",""
"1969","","3","psychophysics","129","444064","0.0-7.0-5.0-0.26","4","3","4","2","5","4","2","4","4","4","5","0","-1","-1","1","-1","0","1","1","4","4","5","4","4","3","4","4","4","4","3","6","6","5","4","6","6","7","6","4","5","3","3","5","3","6","1","5","3","1","5","3","5","4","3","3","3","6","3","5","3","3","3","2","3","5","3","6","5","3","6","5","3","2","3","5","3","3","3","5","789237328983101441","黄","461","Female","[""好我"",""坏她"",""好她"",""坏我""]","[""强我"",""弱她"",""强她"",""弱我""]","","","","","","","","3","","","","","","","","","SRET","SRET_math_calculate","","key","3","16.672991452991372","768","428","","","","","11-8= ?","3","1","","","","","","","",""
"1794","","6","psychophysics","130","445860","0.0-7.0-5.0-0.27","4","3","4","2","5","4","2","4","4","4","5","0","-1","-1","1","-1","0","1","1","4","4","5","4","4","3","4","4","4","4","3","6","6","5","4","6","6","7","6","4","5","3","3","5","3","6","1","5","3","1","5","3","5","4","3","3","3","6","3","5","3","3","3","2","3","5","3","6","5","3","6","5","3","2","3","5","3","3","3","5","789237328983101441","黄","461","Female","[""好我"",""坏她"",""好她"",""坏我""]","[""强我"",""弱她"",""强她"",""弱我""]","","","","","","","","6","","","","","","","","","SRET","SRET_math_calculate","","key","6","16.673084112149162","768","428","","","","","4+2= ?","6","1","","","","","","","",""
"1679","","3","psychophysics","131","447542","0.0-7.0-5.0-0.28","4","3","4","2","5","4","2","4","4","4","5","0","-1","-1","1","-1","0","1","1","4","4","5","4","4","3","4","4","4","4","3","6","6","5","4","6","6","7","6","4","5","3","3","5","3","6","1","5","3","1","5","3","5","4","3","3","3","6","3","5","3","3","3","2","3","5","3","6","5","3","6","5","3","2","3","5","3","3","3","5","789237328983101441","黄","461","Female","[""好我"",""坏她"",""好她"",""坏我""]","[""强我"",""弱她"",""强她"",""弱我""]","","","","","","","","3","","","","","","","","","SRET","SRET_math_calculate","","key","3","16.672999999999885","768","428","","","","","3+0= ?","3","1","","","","","","","",""
"1701","","5","psychophysics","132","449248","0.0-7.0-5.0-0.29","4","3","4","2","5","4","2","4","4","4","5","0","-1","-1","1","-1","0","1","1","4","4","5","4","4","3","4","4","4","4","3","6","6","5","4","6","6","7","6","4","5","3","3","5","3","6","1","5","3","1","5","3","5","4","3","3","3","6","3","5","3","3","3","2","3","5","3","6","5","3","6","5","3","2","3","5","3","3","3","5","789237328983101441","黄","461","Female","[""好我"",""坏她"",""好她"",""坏我""]","[""强我"",""弱她"",""强她"",""弱我""]","","","","","","","","5","","","","","","","","","SRET","SRET_math_calculate","","key","5","16.673069306931087","768","428","","","","","4+1= ?","5","1","","","","","","","",""
"1754","","8","psychophysics","133","451002","0.0-7.0-5.0-0.30","4","3","4","2","5","4","2","4","4","4","5","0","-1","-1","1","-1","0","1","1","4","4","5","4","4","3","4","4","4","4","3","6","6","5","4","6","6","7","6","4","5","3","3","5","3","6","1","5","3","1","5","3","5","4","3","3","3","6","3","5","3","3","3","2","3","5","3","6","5","3","6","5","3","2","3","5","3","3","3","5","789237328983101441","黄","461","Female","[""好我"",""坏她"",""好她"",""坏我""]","[""强我"",""弱她"",""强她"",""弱我""]","","","","","","","","8","","","","","","","","","SRET","SRET_math_calculate","","key","8","16.673076923076923","768","428","","","","","9-1= ?","8","1","","","","","","","",""
"1700","","9","psychophysics","134","452703","0.0-7.0-5.0-0.31","4","3","4","2","5","4","2","4","4","4","5","0","-1","-1","1","-1","0","1","1","4","4","5","4","4","3","4","4","4","4","3","6","6","5","4","6","6","7","6","4","5","3","3","5","3","6","1","5","3","1","5","3","5","4","3","3","3","6","3","5","3","3","3","2","3","5","3","6","5","3","6","5","3","2","3","5","3","3","3","5","789237328983101441","黄","461","Female","[""好我"",""坏她"",""好她"",""坏我""]","[""强我"",""弱她"",""强她"",""弱我""]","","","","","","","","9","","","","","","","","","SRET","SRET_math_calculate","","key","9","16.67287128712892","768","428","","","","","1+8= ?","9","1","","","","","","","",""
"1769","","5","psychophysics","135","454474","0.0-7.0-5.0-0.32","4","3","4","2","5","4","2","4","4","4","5","0","-1","-1","1","-1","0","1","1","4","4","5","4","4","3","4","4","4","4","3","6","6","5","4","6","6","7","6","4","5","3","3","5","3","6","1","5","3","1","5","3","5","4","3","3","3","6","3","5","3","3","3","2","3","5","3","6","5","3","6","5","3","2","3","5","3","3","3","5","789237328983101441","黄","461","Female","[""好我"",""坏她"",""好她"",""坏我""]","[""强我"",""弱她"",""强她"",""弱我""]","","","","","","","","5","","","","","","","","","SRET","SRET_math_calculate","","key","5","16.67301886792422","768","428","","","","","5/1= ?","5","1","","","","","","","",""
"2340","","7","psychophysics","136","456818","0.0-7.0-5.0-0.33","4","3","4","2","5","4","2","4","4","4","5","0","-1","-1","1","-1","0","1","1","4","4","5","4","4","3","4","4","4","4","3","6","6","5","4","6","6","7","6","4","5","3","3","5","3","6","1","5","3","1","5","3","5","4","3","3","3","6","3","5","3","3","3","2","3","5","3","6","5","3","6","5","3","2","3","5","3","3","3","5","789237328983101441","黄","461","Female","[""好我"",""坏她"",""好她"",""坏我""]","[""强我"",""弱她"",""强她"",""弱我""]","","","","","","","","7","","","","","","","","","SRET","SRET_math_calculate","","key","7","16.67294964028762","768","428","","","","","12-5= ?","7","1","","","","","","","",""
"1810","","9","psychophysics","137","458629","0.0-7.0-5.0-0.34","4","3","4","2","5","4","2","4","4","4","5","0","-1","-1","1","-1","0","1","1","4","4","5","4","4","3","4","4","4","4","3","6","6","5","4","6","6","7","6","4","5","3","3","5","3","6","1","5","3","1","5","3","5","4","3","3","3","6","3","5","3","3","3","2","3","5","3","6","5","3","6","5","3","2","3","5","3","3","3","5","789237328983101441","黄","461","Female","[""好我"",""坏她"",""好她"",""坏我""]","[""强我"",""弱她"",""强她"",""弱我""]","","","","","","","","9","","","","","","","","","SRET","SRET_math_calculate","","key","9","16.6729629629629","768","428","","","","","7+2= ?","9","1","","","","","","","",""
"1798","","6","psychophysics","138","460432","0.0-7.0-5.0-0.35","4","3","4","2","5","4","2","4","4","4","5","0","-1","-1","1","-1","0","1","1","4","4","5","4","4","3","4","4","4","4","3","6","6","5","4","6","6","7","6","4","5","3","3","5","3","6","1","5","3","1","5","3","5","4","3","3","3","6","3","5","3","3","3","2","3","5","3","6","5","3","6","5","3","2","3","5","3","3","3","5","789237328983101441","黄","461","Female","[""好我"",""坏她"",""好她"",""坏我""]","[""强我"",""弱她"",""强她"",""弱我""]","","","","","","","","6","","","","","","","","","SRET","SRET_math_calculate","","key","6","16.672897196261683","768","428","","","","","5+1= ?","6","1","","","","","","","",""
"1795","","8","psychophysics","139","462229","0.0-7.0-5.0-0.36","4","3","4","2","5","4","2","4","4","4","5","0","-1","-1","1","-1","0","1","1","4","4","5","4","4","3","4","4","4","4","3","6","6","5","4","6","6","7","6","4","5","3","3","5","3","6","1","5","3","1","5","3","5","4","3","3","3","6","3","5","3","3","3","2","3","5","3","6","5","3","6","5","3","2","3","5","3","3","3","5","789237328983101441","黄","461","Female","[""好我"",""坏她"",""好她"",""坏我""]","[""强我"",""弱她"",""强她"",""弱我""]","","","","","","","","8","","","","","","","","","SRET","SRET_math_calculate","","key","8","16.673084112149706","768","428","","","","","3+5= ?","8","1","","","","","","","",""
"2402","","8","psychophysics","140","464633","0.0-7.0-5.0-0.37","4","3","4","2","5","4","2","4","4","4","5","0","-1","-1","1","-1","0","1","1","4","4","5","4","4","3","4","4","4","4","3","6","6","5","4","6","6","7","6","4","5","3","3","5","3","6","1","5","3","1","5","3","5","4","3","3","3","6","3","5","3","3","3","2","3","5","3","6","5","3","6","5","3","2","3","5","3","3","3","5","789237328983101441","黄","461","Female","[""好我"",""坏她"",""好她"",""坏我""]","[""强我"",""弱她"",""强她"",""弱我""]","","","","","","","","8","","","","","","","","","SRET","SRET_math_calculate","","key","8","16.67300699300693","768","428","","","","","72/9= ?","8","1","","","","","","","",""
"2012","","9","psychophysics","141","466648","0.0-7.0-5.0-0.38","4","3","4","2","5","4","2","4","4","4","5","0","-1","-1","1","-1","0","1","1","4","4","5","4","4","3","4","4","4","4","3","6","6","5","4","6","6","7","6","4","5","3","3","5","3","6","1","5","3","1","5","3","5","4","3","3","3","6","3","5","3","3","3","2","3","5","3","6","5","3","6","5","3","2","3","5","3","3","3","5","789237328983101441","黄","461","Female","[""好我"",""坏她"",""好她"",""坏我""]","[""强我"",""弱她"",""强她"",""弱我""]","","","","","","","","9","","","","","","","","","SRET","SRET_math_calculate","","key","9","16.673000000000076","768","428","","","","","6+3= ?","9","1","","","","","","","",""
"1671","","5","psychophysics","142","468320","0.0-7.0-5.0-0.39","4","3","4","2","5","4","2","4","4","4","5","0","-1","-1","1","-1","0","1","1","4","4","5","4","4","3","4","4","4","4","3","6","6","5","4","6","6","7","6","4","5","3","3","5","3","6","1","5","3","1","5","3","5","4","3","3","3","6","3","5","3","3","3","2","3","5","3","6","5","3","6","5","3","2","3","5","3","3","3","5","789237328983101441","黄","461","Female","[""好我"",""坏她"",""好她"",""坏我""]","[""强我"",""弱她"",""强她"",""弱我""]","","","","","","","","5","","","","","","","","","SRET","SRET_math_calculate","","key","5","16.672929292929247","768","428","","","","","10-5= ?","5","1","","","","","","","",""
