"rt","stimulus","response","trial_type","trial_index","time_elapsed","internal_node_id","swb_1","swb_2","swb_3","swb_4","swb_5","LOT_1","LOT_2","LOT_3","LOT_4","LOT_5","LOT_6","IPC_1","IPC_2","IPC_3","IPC_4","IPC_5","IPC_6","IPC_7","IPC_8","MorIden_1","MorIden_2","MorIden_3","MorIden_4","MorIden_5","MorIden_6","MorIden_7","MorIden_8","MorIden_9","MorIden_10","moralSeImag_1","moralSeImag_2","moralSeImag_3","moralSeImag_4","moralSeImag_5","moralSeImag_6","moralSeImag_7","moralSeImag_8","moralSeImag_9","sde_1","sde_2","sde_3","sde_4","sde_5","sde_6","sde_7","sde_8","sde_9","sde_10","trap2","sde_11","sde_12","sde_13","sde_14","sde_15","sde_16","sde_17","sde_18","sde_19","sde_20","IM_1","IM_2","IM_3","IM_4","IM_5","IM_6","IM_7","IM_8","IM_9","IM_10","IM_11","IM_12","IM_13","IM_14","IM_15","IM_16","IM_17","IM_18","IM_19","IM_20","subj_idx","friend_name","ParticipantID","Sex","Word","Word2","value","success","timeout","failed_images","failed_audio","failed_video","user_agent","responses","item_order","radio_event_ids","radio_event_times","key_event_times","mouse_event_times","straightlining","zigzagging","honeypot","view_history","response_type","key_press","avg_frame_time","center_x","center_y","correct_response","correct","identity","Image","word","condition","task_id","screen_id","time_stamp","person","valence","domain","math","status","duration","question_order","trap2_item"
"3083","
   <p><div style='color:white; font-size: 25px'>您好，欢迎参加本次实验。</div></p>
   <p><div style='color:white; font-size: 25px'>为充分保障您的权利，请确保您已经知晓并同意《参与实验同意书》以及《数据公开知情同意书》。</div></p>
   <p><div style='color:white; font-size: 25px'>如果您未见过上述内容，请咨询实验员。</div></p>
   <p style='color:white; font-size: 25px'>如果您选择继续实验，则表示您已经清楚两份知情同意书的内容并同意。</p>
   <p><div style = ""color: pink;font-size:30px;"">请确保您记得day0的实验编号，您将在本次实验输入该编号，若您忘记，请咨询实验员后作答。</div></p>
   <p><div style = ""color:lightblue;font-size:25px;"">请您尽可能认真地作答，我们将依据您在各问卷和按键任务中的作答质量发放报酬。</div></p>
   <p> <div style = ""color: green""><按空格键至下页></div> </p>
   "," ","html-keyboard-response","0","3087","0.0-0.0","4","2","4","3","2","5","2","4","5","5","5","1","-2","-1","1","-1","0","2","1","5","4","5","5","4","3","3","2","2","3","5","7","4","7","4","3","5","5","5","3","3","3","4","4","2","3","3","4","2","6","2","3","5","5","2","4","4","5","4","4","2","3","5","4","2","6","3","6","4","7","4","6","5","5","3","5","2","7","3","4","796469535413772289","杨","446","Female","[""好她"",""坏我"",""好我"",""坏她""]","[""强她"",""弱我"",""强我"",""弱她""]","","","","","","","","","","","","","","","","","","","","","","","","","","","","","","","","","","","","","","",""
"","","","call-function","1","3091","0.0-1.0-0.0","4","2","4","3","2","5","2","4","5","5","5","1","-2","-1","1","-1","0","2","1","5","4","5","5","4","3","3","2","2","3","5","7","4","7","4","3","5","5","5","3","3","3","4","4","2","3","3","4","2","6","2","3","5","5","2","4","4","5","4","4","2","3","5","4","2","6","3","6","4","7","4","6","5","5","3","5","2","7","3","4","796469535413772289","杨","446","Female","[""好她"",""坏我"",""好我"",""坏她""]","[""强她"",""弱我"",""强我"",""弱她""]","","","","","","","","","","","","","","","","","","","","","","","","","","","","","","","","","","","","","","",""
"18788","","[{""name"":""Sex"",""value"":""1""},{""name"":""friend_name"",""value"":""杨""},{""name"":""ParticipantID"",""value"":""446""}]","survey-html-form","2","21875","0.0-1.0-1.0","4","2","4","3","2","5","2","4","5","5","5","1","-2","-1","1","-1","0","2","1","5","4","5","5","4","3","3","2","2","3","5","7","4","7","4","3","5","5","5","3","3","3","4","4","2","3","3","4","2","6","2","3","5","5","2","4","4","5","4","4","2","3","5","4","2","6","3","6","4","7","4","6","5","5","3","5","2","7","3","4","796469535413772289","杨","446","Female","[""好她"",""坏我"",""好我"",""坏她""]","[""强她"",""弱我"",""强我"",""弱她""]","","","","","","","","","","","","","","","","","","","","","","","","","","","","","","","","","","","","","","",""
"","","","preload","3","23463","0.0-2.0","4","2","4","3","2","5","2","4","5","5","5","1","-2","-1","1","-1","0","2","1","5","4","5","5","4","3","3","2","2","3","5","7","4","7","4","3","5","5","5","3","3","3","4","4","2","3","3","4","2","6","2","3","5","5","2","4","4","5","4","4","2","3","5","4","2","6","3","6","4","7","4","6","5","5","3","5","2","7","3","4","796469535413772289","杨","446","Female","[""好她"",""坏我"",""好我"",""坏她""]","[""强她"",""弱我"",""强我"",""弱她""]","","true","false","[]","[]","[]","","","","","","","","","","","","","","","","","","","","","","","","","","","","","","","","",""
"","","","fullscreen","4","27264","0.0-3.0","4","2","4","3","2","5","2","4","5","5","5","1","-2","-1","1","-1","0","2","1","5","4","5","5","4","3","3","2","2","3","5","7","4","7","4","3","5","5","5","3","3","3","4","4","2","3","3","4","2","6","2","3","5","5","2","4","4","5","4","4","2","3","5","4","2","6","3","6","4","7","4","6","5","5","3","5","2","7","3","4","796469535413772289","杨","446","Female","[""好她"",""坏我"",""好我"",""坏她""]","[""强她"",""弱我"",""强我"",""弱她""]","","true","","","","","{}","","","","","","","","","","","","","","","","","","","","","","","","","","","","","","","",""
"111175.20000001788","","{""Q01"":""4"",""Q02"":""2"",""Q03"":""4"",""Q04"":""3"",""Q05"":""2""}","survey-template","5","138435","0.0-4.0","4","2","4","3","2","5","2","4","5","5","5","1","-2","-1","1","-1","0","2","1","5","4","5","5","4","3","3","2","2","3","5","7","4","7","4","3","5","5","5","3","3","3","4","4","2","3","3","4","2","6","2","3","5","5","2","4","4","5","4","4","2","3","5","4","2","6","3","6","4","7","4","6","5","5","3","5","2","7","3","4","796469535413772289","杨","446","Female","[""好她"",""坏我"",""好我"",""坏她""]","[""强她"",""弱我"",""强我"",""弱她""]","","","","","","","","{""Q01"":""4"",""Q02"":""2"",""Q03"":""4"",""Q04"":""3"",""Q05"":""2""}","[0,1,2,3,4]","[""Q01"",""Q01"",""Q02"",""Q03"",""Q02"",""Q04"",""Q05"",""Q03"",""Q02"",""Q01"",""Q05""]","[4485.700000017881,4540.300000011921,6678.800000011921,46085.5,48085,53716.90000000596,56405,60341.70000001788,71012.5,76316.40000000596,81444.80000001192]","[]","[4485.700000017881,4540.300000011921,6678.800000011921,44483.80000001192,46085.5,48085,53716.90000000596,56405,60341.70000001788,71012.5,76316.40000000596,80340.30000001192,81444.80000001192,111171.80000001192]","0.4","0.5","0","","","","","","","","","","","","","","","","","","","","","","",""
"93571.69999998808","","{""Q01"":""5"",""Q02"":""2"",""Q03"":""4"",""Q04"":""5"",""Q05"":""5"",""Q06"":""5""}","survey-template","6","232009","0.0-5.0","4","2","4","3","2","5","2","4","5","5","5","1","-2","-1","1","-1","0","2","1","5","4","5","5","4","3","3","2","2","3","5","7","4","7","4","3","5","5","5","3","3","3","4","4","2","3","3","4","2","6","2","3","5","5","2","4","4","5","4","4","2","3","5","4","2","6","3","6","4","7","4","6","5","5","3","5","2","7","3","4","796469535413772289","杨","446","Female","[""好她"",""坏我"",""好我"",""坏她""]","[""强她"",""弱我"",""强我"",""弱她""]","","","","","","","","{""Q01"":""5"",""Q02"":""2"",""Q03"":""4"",""Q04"":""5"",""Q05"":""5"",""Q06"":""5""}","[0,1,2,3,4,5]","[""Q01"",""Q01"",""Q03"",""Q02"",""Q04"",""Q05"",""Q06""]","[40309.40000000596,49444.09999999404,53701.09999999404,63022.40000000596,74036.69999998808,80837.40000000596,83949.29999998212]","[]","[40309.40000000596,44515.79999998212,48789,49444.09999999404,53701.09999999404,63022.40000000596,71678,73388.90000000596,74036.69999998808,80837.40000000596,83949.29999998212,93569.19999998808]","0.3333333333333333","0.4","0","","","","","","","","","","","","","","","","","","","","","","",""
"48171.19999998808","","{""Q01"":""1"",""Q02"":""-2"",""Q03"":""-1"",""Q04"":""1"",""Q05"":""-1"",""Q06"":""0"",""Q07"":""2"",""Q08"":""1""}","survey-template","7","280186","0.0-6.0","4","2","4","3","2","5","2","4","5","5","5","1","-2","-1","1","-1","0","2","1","5","4","5","5","4","3","3","2","2","3","5","7","4","7","4","3","5","5","5","3","3","3","4","4","2","3","3","4","2","6","2","3","5","5","2","4","4","5","4","4","2","3","5","4","2","6","3","6","4","7","4","6","5","5","3","5","2","7","3","4","796469535413772289","杨","446","Female","[""好她"",""坏我"",""好我"",""坏她""]","[""强她"",""弱我"",""强我"",""弱她""]","","","","","","","","{""Q01"":""1"",""Q02"":""-2"",""Q03"":""-1"",""Q04"":""1"",""Q05"":""-1"",""Q06"":""0"",""Q07"":""2"",""Q08"":""1""}","[0,1,2,3,4,5,6,7]","[""Q01"",""Q02"",""Q01"",""Q03"",""Q04"",""Q05"",""Q05"",""Q06"",""Q07"",""Q08""]","[5042.300000011921,11359.90000000596,13224.300000011921,17152,20259.30000001192,25553.40000000596,27167.90000000596,31760.5,36375.80000001192,40314.59999999404]","[]","[5042.300000011921,11359.90000000596,13224.300000011921,17152,20259.30000001192,25553.40000000596,27167.90000000596,31760.5,36375.80000001192,40314.59999999404,48167.69999998808]","0.375","0.42857142857142855","0","","","","","","","","","","","","","","","","","","","","","","",""
"4624","","","instructions","8","284815","0.0-7.0","4","2","4","3","2","5","2","4","5","5","5","1","-2","-1","1","-1","0","2","1","5","4","5","5","4","3","3","2","2","3","5","7","4","7","4","3","5","5","5","3","3","3","4","4","2","3","3","4","2","6","2","3","5","5","2","4","4","5","4","4","2","3","5","4","2","6","3","6","4","7","4","6","5","5","3","5","2","7","3","4","796469535413772289","杨","446","Female","[""好她"",""坏我"",""好我"",""坏她""]","[""强她"",""弱我"",""强我"",""弱她""]","","","","","","","","","","","","","","","","","[{""page_index"":0,""viewing_time"":4622}]","","","","","","","","","","","","","","","","","","","","","",""
"62801","","","instructions","9","347614","0.0-8.0-1.0-0.0","4","2","4","3","2","5","2","4","5","5","5","1","-2","-1","1","-1","0","2","1","5","4","5","5","4","3","3","2","2","3","5","7","4","7","4","3","5","5","5","3","3","3","4","4","2","3","3","4","2","6","2","3","5","5","2","4","4","5","4","4","2","3","5","4","2","6","3","6","4","7","4","6","5","5","3","5","2","7","3","4","796469535413772289","杨","446","Female","[""好她"",""坏我"",""好我"",""坏她""]","[""强她"",""弱我"",""强我"",""弱她""]","","","","","","","","","","","","","","","","","[{""page_index"":0,""viewing_time"":10474},{""page_index"":1,""viewing_time"":29102},{""page_index"":2,""viewing_time"":2507},{""page_index"":1,""viewing_time"":13135},{""page_index"":2,""viewing_time"":5193},{""page_index"":3,""viewing_time"":2391}]","","","","","","","","","","","","","","","","","","","","","",""
"806","","j","psychophysics","10","349435","0.0-8.0-1.0-1.0-0.0-0.0","4","2","4","3","2","5","2","4","5","5","5","1","-2","-1","1","-1","0","2","1","5","4","5","5","4","3","3","2","2","3","5","7","4","7","4","3","5","5","5","3","3","3","4","4","2","3","3","4","2","6","2","3","5","5","2","4","4","5","4","4","2","3","5","4","2","6","3","6","4","7","4","6","5","5","3","5","2","7","3","4","796469535413772289","杨","446","Female","[""好她"",""坏我"",""好我"",""坏她""]","[""强她"",""弱我"",""强我"",""弱她""]","","","","","","","","nonmatch","","","","","","","","","","key","j","16.669740740740693","640","356","f","false","match","img/hexagon.png","弱她","弱她","prac_ALT2_ability","practice_ability","","","","","","","","",""
"null","<span style='color:red; font-size: 70px;'>错误! </span>","null","html-keyboard-response","11","349938","0.0-8.0-1.0-1.0-0.0-1.0","4","2","4","3","2","5","2","4","5","5","5","1","-2","-1","1","-1","0","2","1","5","4","5","5","4","3","3","2","2","3","5","7","4","7","4","3","5","5","5","3","3","3","4","4","2","3","3","4","2","6","2","3","5","5","2","4","4","5","4","4","2","3","5","4","2","6","3","6","4","7","4","6","5","5","3","5","2","7","3","4","796469535413772289","杨","446","Female","[""好她"",""坏我"",""好我"",""坏她""]","[""强她"",""弱我"",""强我"",""弱她""]","","","","","","","","","","","","","","","","","","","","","","","","","","","","","","feedback_test","","","","","","","","",""
"469","","f","psychophysics","12","351411","0.0-8.0-1.0-1.0-0.0-0.1","4","2","4","3","2","5","2","4","5","5","5","1","-2","-1","1","-1","0","2","1","5","4","5","5","4","3","3","2","2","3","5","7","4","7","4","3","5","5","5","3","3","3","4","4","2","3","3","4","2","6","2","3","5","5","2","4","4","5","4","4","2","3","5","4","2","6","3","6","4","7","4","6","5","5","3","5","2","7","3","4","796469535413772289","杨","446","Female","[""好她"",""坏我"",""好我"",""坏她""]","[""强她"",""弱我"",""强我"",""弱她""]","","","","","","","","match","","","","","","","","","","key","f","16.670229885057445","640","356","j","false","nonmatch","img/hexagon.png","强她","弱她","prac_ALT2_ability","practice_ability","","","","","","","","",""
"null","<span style='color:red; font-size: 70px;'>错误! </span>","null","html-keyboard-response","13","351914","0.0-8.0-1.0-1.0-0.0-1.1","4","2","4","3","2","5","2","4","5","5","5","1","-2","-1","1","-1","0","2","1","5","4","5","5","4","3","3","2","2","3","5","7","4","7","4","3","5","5","5","3","3","3","4","4","2","3","3","4","2","6","2","3","5","5","2","4","4","5","4","4","2","3","5","4","2","6","3","6","4","7","4","6","5","5","3","5","2","7","3","4","796469535413772289","杨","446","Female","[""好她"",""坏我"",""好我"",""坏她""]","[""强她"",""弱我"",""强我"",""弱她""]","","","","","","","","","","","","","","","","","","","","","","","","","","","","","","feedback_test","","","","","","","","",""
"819","","j","psychophysics","14","353739","0.0-8.0-1.0-1.0-0.0-0.2","4","2","4","3","2","5","2","4","5","5","5","1","-2","-1","1","-1","0","2","1","5","4","5","5","4","3","3","2","2","3","5","7","4","7","4","3","5","5","5","3","3","3","4","4","2","3","3","4","2","6","2","3","5","5","2","4","4","5","4","4","2","3","5","4","2","6","3","6","4","7","4","6","5","5","3","5","2","7","3","4","796469535413772289","杨","446","Female","[""好她"",""坏我"",""好我"",""坏她""]","[""强她"",""弱我"",""强我"",""弱她""]","","","","","","","","nonmatch","","","","","","","","","","key","j","16.821361111111063","640","356","j","true","nonmatch","img/hexagon.png","弱我","弱她","prac_ALT2_ability","practice_ability","","","","","","","","",""
"null","<span style='color:GreenYellow; font-size: 70px;'>正确! </span>","null","html-keyboard-response","15","354241","0.0-8.0-1.0-1.0-0.0-1.2","4","2","4","3","2","5","2","4","5","5","5","1","-2","-1","1","-1","0","2","1","5","4","5","5","4","3","3","2","2","3","5","7","4","7","4","3","5","5","5","3","3","3","4","4","2","3","3","4","2","6","2","3","5","5","2","4","4","5","4","4","2","3","5","4","2","6","3","6","4","7","4","6","5","5","3","5","2","7","3","4","796469535413772289","杨","446","Female","[""好她"",""坏我"",""好我"",""坏她""]","[""强她"",""弱我"",""强我"",""弱她""]","","","","","","","","","","","","","","","","","","","","","","","","","","","","","","feedback_test","","","","","","","","",""
"831","","j","psychophysics","16","356075","0.0-8.0-1.0-1.0-0.0-0.3","4","2","4","3","2","5","2","4","5","5","5","1","-2","-1","1","-1","0","2","1","5","4","5","5","4","3","3","2","2","3","5","7","4","7","4","3","5","5","5","3","3","3","4","4","2","3","3","4","2","6","2","3","5","5","2","4","4","5","4","4","2","3","5","4","2","6","3","6","4","7","4","6","5","5","3","5","2","7","3","4","796469535413772289","杨","446","Female","[""好她"",""坏我"",""好我"",""坏她""]","[""强她"",""弱我"",""强我"",""弱她""]","","","","","","","","nonmatch","","","","","","","","","","key","j","16.668779816513737","640","356","f","false","match","img/hexagon.png","弱她","弱她","prac_ALT2_ability","practice_ability","","","","","","","","",""
"null","<span style='color:red; font-size: 70px;'>错误! </span>","null","html-keyboard-response","17","356578","0.0-8.0-1.0-1.0-0.0-1.3","4","2","4","3","2","5","2","4","5","5","5","1","-2","-1","1","-1","0","2","1","5","4","5","5","4","3","3","2","2","3","5","7","4","7","4","3","5","5","5","3","3","3","4","4","2","3","3","4","2","6","2","3","5","5","2","4","4","5","4","4","2","3","5","4","2","6","3","6","4","7","4","6","5","5","3","5","2","7","3","4","796469535413772289","杨","446","Female","[""好她"",""坏我"",""好我"",""坏她""]","[""强她"",""弱我"",""强我"",""弱她""]","","","","","","","","","","","","","","","","","","","","","","","","","","","","","","feedback_test","","","","","","","","",""
"993","","j","psychophysics","18","358575","0.0-8.0-1.0-1.0-0.0-0.4","4","2","4","3","2","5","2","4","5","5","5","1","-2","-1","1","-1","0","2","1","5","4","5","5","4","3","3","2","2","3","5","7","4","7","4","3","5","5","5","3","3","3","4","4","2","3","3","4","2","6","2","3","5","5","2","4","4","5","4","4","2","3","5","4","2","6","3","6","4","7","4","6","5","5","3","5","2","7","3","4","796469535413772289","杨","446","Female","[""好她"",""坏我"",""好我"",""坏她""]","[""强她"",""弱我"",""强我"",""弱她""]","","","","","","","","nonmatch","","","","","","","","","","key","j","16.667462184874072","640","356","f","false","match","img/ellipse.png","弱我","弱我","prac_ALT2_ability","practice_ability","","","","","","","","",""
"null","<span style='color:red; font-size: 70px;'>错误! </span>","null","html-keyboard-response","19","359078","0.0-8.0-1.0-1.0-0.0-1.4","4","2","4","3","2","5","2","4","5","5","5","1","-2","-1","1","-1","0","2","1","5","4","5","5","4","3","3","2","2","3","5","7","4","7","4","3","5","5","5","3","3","3","4","4","2","3","3","4","2","6","2","3","5","5","2","4","4","5","4","4","2","3","5","4","2","6","3","6","4","7","4","6","5","5","3","5","2","7","3","4","796469535413772289","杨","446","Female","[""好她"",""坏我"",""好我"",""坏她""]","[""强她"",""弱我"",""强我"",""弱她""]","","","","","","","","","","","","","","","","","","","","","","","","","","","","","","feedback_test","","","","","","","","",""
"934","","j","psychophysics","20","361022","0.0-8.0-1.0-1.0-0.0-0.5","4","2","4","3","2","5","2","4","5","5","5","1","-2","-1","1","-1","0","2","1","5","4","5","5","4","3","3","2","2","3","5","7","4","7","4","3","5","5","5","3","3","3","4","4","2","3","3","4","2","6","2","3","5","5","2","4","4","5","4","4","2","3","5","4","2","6","3","6","4","7","4","6","5","5","3","5","2","7","3","4","796469535413772289","杨","446","Female","[""好她"",""坏我"",""好我"",""坏她""]","[""强她"",""弱我"",""强我"",""弱她""]","","","","","","","","nonmatch","","","","","","","","","","key","j","16.66663793103412","640","356","f","false","match","img/ellipse.png","弱我","弱我","prac_ALT2_ability","practice_ability","","","","","","","","",""
"null","<span style='color:red; font-size: 70px;'>错误! </span>","null","html-keyboard-response","21","361526","0.0-8.0-1.0-1.0-0.0-1.5","4","2","4","3","2","5","2","4","5","5","5","1","-2","-1","1","-1","0","2","1","5","4","5","5","4","3","3","2","2","3","5","7","4","7","4","3","5","5","5","3","3","3","4","4","2","3","3","4","2","6","2","3","5","5","2","4","4","5","4","4","2","3","5","4","2","6","3","6","4","7","4","6","5","5","3","5","2","7","3","4","796469535413772289","杨","446","Female","[""好她"",""坏我"",""好我"",""坏她""]","[""强她"",""弱我"",""强我"",""弱她""]","","","","","","","","","","","","","","","","","","","","","","","","","","","","","","feedback_test","","","","","","","","",""
"null","","null","psychophysics","22","363739","0.0-8.0-1.0-1.0-0.0-0.6","4","2","4","3","2","5","2","4","5","5","5","1","-2","-1","1","-1","0","2","1","5","4","5","5","4","3","3","2","2","3","5","7","4","7","4","3","5","5","5","3","3","3","4","4","2","3","3","4","2","6","2","3","5","5","2","4","4","5","4","4","2","3","5","4","2","6","3","6","4","7","4","6","5","5","3","5","2","7","3","4","796469535413772289","杨","446","Female","[""好她"",""坏我"",""好我"",""坏她""]","[""强她"",""弱我"",""强我"",""弱她""]","","","","","","","","null","","","","","","","","","","key","null","16.66915151515136","640","356","j","false","nonmatch","img/trapezoid.png","弱我","强我","prac_ALT2_ability","practice_ability","","","","","","","","",""
"null","<span class='add_' style='color:yellow; font-size: 70px;'> 太慢! </span>","null","html-keyboard-response","23","364241","0.0-8.0-1.0-1.0-0.0-1.6","4","2","4","3","2","5","2","4","5","5","5","1","-2","-1","1","-1","0","2","1","5","4","5","5","4","3","3","2","2","3","5","7","4","7","4","3","5","5","5","3","3","3","4","4","2","3","3","4","2","6","2","3","5","5","2","4","4","5","4","4","2","3","5","4","2","6","3","6","4","7","4","6","5","5","3","5","2","7","3","4","796469535413772289","杨","446","Female","[""好她"",""坏我"",""好我"",""坏她""]","[""强她"",""弱我"",""强我"",""弱她""]","","","","","","","","","","","","","","","","","","","","","","","","","","","","","","feedback_test","","","","","","","","",""
"631","","f","psychophysics","24","365874","0.0-8.0-1.0-1.0-0.0-0.7","4","2","4","3","2","5","2","4","5","5","5","1","-2","-1","1","-1","0","2","1","5","4","5","5","4","3","3","2","2","3","5","7","4","7","4","3","5","5","5","3","3","3","4","4","2","3","3","4","2","6","2","3","5","5","2","4","4","5","4","4","2","3","5","4","2","6","3","6","4","7","4","6","5","5","3","5","2","7","3","4","796469535413772289","杨","446","Female","[""好她"",""坏我"",""好我"",""坏她""]","[""强她"",""弱我"",""强我"",""弱她""]","","","","","","","","match","","","","","","","","","","key","f","16.669092783505175","640","356","j","false","nonmatch","img/ellipse.png","强她","弱我","prac_ALT2_ability","practice_ability","","","","","","","","",""
"null","<span style='color:red; font-size: 70px;'>错误! </span>","null","html-keyboard-response","25","366377","0.0-8.0-1.0-1.0-0.0-1.7","4","2","4","3","2","5","2","4","5","5","5","1","-2","-1","1","-1","0","2","1","5","4","5","5","4","3","3","2","2","3","5","7","4","7","4","3","5","5","5","3","3","3","4","4","2","3","3","4","2","6","2","3","5","5","2","4","4","5","4","4","2","3","5","4","2","6","3","6","4","7","4","6","5","5","3","5","2","7","3","4","796469535413772289","杨","446","Female","[""好她"",""坏我"",""好我"",""坏她""]","[""强她"",""弱我"",""强我"",""弱她""]","","","","","","","","","","","","","","","","","","","","","","","","","","","","","","feedback_test","","","","","","","","",""
"642","","f","psychophysics","26","368021","0.0-8.0-1.0-1.0-0.0-0.8","4","2","4","3","2","5","2","4","5","5","5","1","-2","-1","1","-1","0","2","1","5","4","5","5","4","3","3","2","2","3","5","7","4","7","4","3","5","5","5","3","3","3","4","4","2","3","3","4","2","6","2","3","5","5","2","4","4","5","4","4","2","3","5","4","2","6","3","6","4","7","4","6","5","5","3","5","2","7","3","4","796469535413772289","杨","446","Female","[""好她"",""坏我"",""好我"",""坏她""]","[""强她"",""弱我"",""强我"",""弱她""]","","","","","","","","match","","","","","","","","","","key","f","16.667234693877802","640","356","f","true","match","img/ellipse.png","弱我","弱我","prac_ALT2_ability","practice_ability","","","","","","","","",""
"null","<span style='color:GreenYellow; font-size: 70px;'>正确! </span>","null","html-keyboard-response","27","368525","0.0-8.0-1.0-1.0-0.0-1.8","4","2","4","3","2","5","2","4","5","5","5","1","-2","-1","1","-1","0","2","1","5","4","5","5","4","3","3","2","2","3","5","7","4","7","4","3","5","5","5","3","3","3","4","4","2","3","3","4","2","6","2","3","5","5","2","4","4","5","4","4","2","3","5","4","2","6","3","6","4","7","4","6","5","5","3","5","2","7","3","4","796469535413772289","杨","446","Female","[""好她"",""坏我"",""好我"",""坏她""]","[""强她"",""弱我"",""强我"",""弱她""]","","","","","","","","","","","","","","","","","","","","","","","","","","","","","","feedback_test","","","","","","","","",""
"658","","j","psychophysics","28","370186","0.0-8.0-1.0-1.0-0.0-0.9","4","2","4","3","2","5","2","4","5","5","5","1","-2","-1","1","-1","0","2","1","5","4","5","5","4","3","3","2","2","3","5","7","4","7","4","3","5","5","5","3","3","3","4","4","2","3","3","4","2","6","2","3","5","5","2","4","4","5","4","4","2","3","5","4","2","6","3","6","4","7","4","6","5","5","3","5","2","7","3","4","796469535413772289","杨","446","Female","[""好她"",""坏我"",""好我"",""坏她""]","[""强她"",""弱我"",""强我"",""弱她""]","","","","","","","","nonmatch","","","","","","","","","","key","j","16.66812121212151","640","356","j","true","nonmatch","img/ellipse.png","强我","弱我","prac_ALT2_ability","practice_ability","","","","","","","","",""
"null","<span style='color:GreenYellow; font-size: 70px;'>正确! </span>","null","html-keyboard-response","29","370690","0.0-8.0-1.0-1.0-0.0-1.9","4","2","4","3","2","5","2","4","5","5","5","1","-2","-1","1","-1","0","2","1","5","4","5","5","4","3","3","2","2","3","5","7","4","7","4","3","5","5","5","3","3","3","4","4","2","3","3","4","2","6","2","3","5","5","2","4","4","5","4","4","2","3","5","4","2","6","3","6","4","7","4","6","5","5","3","5","2","7","3","4","796469535413772289","杨","446","Female","[""好她"",""坏我"",""好我"",""坏她""]","[""强她"",""弱我"",""强我"",""弱她""]","","","","","","","","","","","","","","","","","","","","","","","","","","","","","","feedback_test","","","","","","","","",""
"804","","f","psychophysics","30","372501","0.0-8.0-1.0-1.0-0.0-0.10","4","2","4","3","2","5","2","4","5","5","5","1","-2","-1","1","-1","0","2","1","5","4","5","5","4","3","3","2","2","3","5","7","4","7","4","3","5","5","5","3","3","3","4","4","2","3","3","4","2","6","2","3","5","5","2","4","4","5","4","4","2","3","5","4","2","6","3","6","4","7","4","6","5","5","3","5","2","7","3","4","796469535413772289","杨","446","Female","[""好她"",""坏我"",""好我"",""坏她""]","[""强她"",""弱我"",""强我"",""弱她""]","","","","","","","","match","","","","","","","","","","key","f","16.668831775700955","640","356","f","true","match","img/triangle.png","强她","强她","prac_ALT2_ability","practice_ability","","","","","","","","",""
"null","<span style='color:GreenYellow; font-size: 70px;'>正确! </span>","null","html-keyboard-response","31","373008","0.0-8.0-1.0-1.0-0.0-1.10","4","2","4","3","2","5","2","4","5","5","5","1","-2","-1","1","-1","0","2","1","5","4","5","5","4","3","3","2","2","3","5","7","4","7","4","3","5","5","5","3","3","3","4","4","2","3","3","4","2","6","2","3","5","5","2","4","4","5","4","4","2","3","5","4","2","6","3","6","4","7","4","6","5","5","3","5","2","7","3","4","796469535413772289","杨","446","Female","[""好她"",""坏我"",""好我"",""坏她""]","[""强她"",""弱我"",""强我"",""弱她""]","","","","","","","","","","","","","","","","","","","","","","","","","","","","","","feedback_test","","","","","","","","",""
"824","","j","psychophysics","32","374833","0.0-8.0-1.0-1.0-0.0-0.11","4","2","4","3","2","5","2","4","5","5","5","1","-2","-1","1","-1","0","2","1","5","4","5","5","4","3","3","2","2","3","5","7","4","7","4","3","5","5","5","3","3","3","4","4","2","3","3","4","2","6","2","3","5","5","2","4","4","5","4","4","2","3","5","4","2","6","3","6","4","7","4","6","5","5","3","5","2","7","3","4","796469535413772289","杨","446","Female","[""好她"",""坏我"",""好我"",""坏她""]","[""强她"",""弱我"",""强我"",""弱她""]","","","","","","","","nonmatch","","","","","","","","","","key","j","16.66892660550459","640","356","j","true","nonmatch","img/ellipse.png","弱她","弱我","prac_ALT2_ability","practice_ability","","","","","","","","",""
"null","<span style='color:GreenYellow; font-size: 70px;'>正确! </span>","null","html-keyboard-response","33","375335","0.0-8.0-1.0-1.0-0.0-1.11","4","2","4","3","2","5","2","4","5","5","5","1","-2","-1","1","-1","0","2","1","5","4","5","5","4","3","3","2","2","3","5","7","4","7","4","3","5","5","5","3","3","3","4","4","2","3","3","4","2","6","2","3","5","5","2","4","4","5","4","4","2","3","5","4","2","6","3","6","4","7","4","6","5","5","3","5","2","7","3","4","796469535413772289","杨","446","Female","[""好她"",""坏我"",""好我"",""坏她""]","[""强她"",""弱我"",""强我"",""弱她""]","","","","","","","","","","","","","","","","","","","","","","","","","","","","","","feedback_test","","","","","","","","",""
"1050","","f","psychophysics","34","377388","0.0-8.0-1.0-1.0-0.0-0.12","4","2","4","3","2","5","2","4","5","5","5","1","-2","-1","1","-1","0","2","1","5","4","5","5","4","3","3","2","2","3","5","7","4","7","4","3","5","5","5","3","3","3","4","4","2","3","3","4","2","6","2","3","5","5","2","4","4","5","4","4","2","3","5","4","2","6","3","6","4","7","4","6","5","5","3","5","2","7","3","4","796469535413772289","杨","446","Female","[""好她"",""坏我"",""好我"",""坏她""]","[""强她"",""弱我"",""强我"",""弱她""]","","","","","","","","match","","","","","","","","","","key","f","16.666729508196845","640","356","j","false","nonmatch","img/hexagon.png","强我","弱她","prac_ALT2_ability","practice_ability","","","","","","","","",""
"null","<span style='color:red; font-size: 70px;'>错误! </span>","null","html-keyboard-response","35","377890","0.0-8.0-1.0-1.0-0.0-1.12","4","2","4","3","2","5","2","4","5","5","5","1","-2","-1","1","-1","0","2","1","5","4","5","5","4","3","3","2","2","3","5","7","4","7","4","3","5","5","5","3","3","3","4","4","2","3","3","4","2","6","2","3","5","5","2","4","4","5","4","4","2","3","5","4","2","6","3","6","4","7","4","6","5","5","3","5","2","7","3","4","796469535413772289","杨","446","Female","[""好她"",""坏我"",""好我"",""坏她""]","[""强她"",""弱我"",""强我"",""弱她""]","","","","","","","","","","","","","","","","","","","","","","","","","","","","","","feedback_test","","","","","","","","",""
"815","","f","psychophysics","36","379709","0.0-8.0-1.0-1.0-0.0-0.13","4","2","4","3","2","5","2","4","5","5","5","1","-2","-1","1","-1","0","2","1","5","4","5","5","4","3","3","2","2","3","5","7","4","7","4","3","5","5","5","3","3","3","4","4","2","3","3","4","2","6","2","3","5","5","2","4","4","5","4","4","2","3","5","4","2","6","3","6","4","7","4","6","5","5","3","5","2","7","3","4","796469535413772289","杨","446","Female","[""好她"",""坏我"",""好我"",""坏她""]","[""强她"",""弱我"",""强我"",""弱她""]","","","","","","","","match","","","","","","","","","","key","f","16.668481481481447","640","356","f","true","match","img/trapezoid.png","强我","强我","prac_ALT2_ability","practice_ability","","","","","","","","",""
"null","<span style='color:GreenYellow; font-size: 70px;'>正确! </span>","null","html-keyboard-response","37","380213","0.0-8.0-1.0-1.0-0.0-1.13","4","2","4","3","2","5","2","4","5","5","5","1","-2","-1","1","-1","0","2","1","5","4","5","5","4","3","3","2","2","3","5","7","4","7","4","3","5","5","5","3","3","3","4","4","2","3","3","4","2","6","2","3","5","5","2","4","4","5","4","4","2","3","5","4","2","6","3","6","4","7","4","6","5","5","3","5","2","7","3","4","796469535413772289","杨","446","Female","[""好她"",""坏我"",""好我"",""坏她""]","[""强她"",""弱我"",""强我"",""弱她""]","","","","","","","","","","","","","","","","","","","","","","","","","","","","","","feedback_test","","","","","","","","",""
"917","","f","psychophysics","38","382133","0.0-8.0-1.0-1.0-0.0-0.14","4","2","4","3","2","5","2","4","5","5","5","1","-2","-1","1","-1","0","2","1","5","4","5","5","4","3","3","2","2","3","5","7","4","7","4","3","5","5","5","3","3","3","4","4","2","3","3","4","2","6","2","3","5","5","2","4","4","5","4","4","2","3","5","4","2","6","3","6","4","7","4","6","5","5","3","5","2","7","3","4","796469535413772289","杨","446","Female","[""好她"",""坏我"",""好我"",""坏她""]","[""强她"",""弱我"",""强我"",""弱她""]","","","","","","","","match","","","","","","","","","","key","f","16.669368421052287","640","356","f","true","match","img/trapezoid.png","强我","强我","prac_ALT2_ability","practice_ability","","","","","","","","",""
"null","<span style='color:GreenYellow; font-size: 70px;'>正确! </span>","null","html-keyboard-response","39","382636","0.0-8.0-1.0-1.0-0.0-1.14","4","2","4","3","2","5","2","4","5","5","5","1","-2","-1","1","-1","0","2","1","5","4","5","5","4","3","3","2","2","3","5","7","4","7","4","3","5","5","5","3","3","3","4","4","2","3","3","4","2","6","2","3","5","5","2","4","4","5","4","4","2","3","5","4","2","6","3","6","4","7","4","6","5","5","3","5","2","7","3","4","796469535413772289","杨","446","Female","[""好她"",""坏我"",""好我"",""坏她""]","[""强她"",""弱我"",""强我"",""弱她""]","","","","","","","","","","","","","","","","","","","","","","","","","","","","","","feedback_test","","","","","","","","",""
"663","","j","psychophysics","40","384303","0.0-8.0-1.0-1.0-0.0-0.15","4","2","4","3","2","5","2","4","5","5","5","1","-2","-1","1","-1","0","2","1","5","4","5","5","4","3","3","2","2","3","5","7","4","7","4","3","5","5","5","3","3","3","4","4","2","3","3","4","2","6","2","3","5","5","2","4","4","5","4","4","2","3","5","4","2","6","3","6","4","7","4","6","5","5","3","5","2","7","3","4","796469535413772289","杨","446","Female","[""好她"",""坏我"",""好我"",""坏她""]","[""强她"",""弱我"",""强我"",""弱她""]","","","","","","","","nonmatch","","","","","","","","","","key","j","16.668777777778097","640","356","f","false","match","img/hexagon.png","弱她","弱她","prac_ALT2_ability","practice_ability","","","","","","","","",""
"null","<span style='color:red; font-size: 70px;'>错误! </span>","null","html-keyboard-response","41","384806","0.0-8.0-1.0-1.0-0.0-1.15","4","2","4","3","2","5","2","4","5","5","5","1","-2","-1","1","-1","0","2","1","5","4","5","5","4","3","3","2","2","3","5","7","4","7","4","3","5","5","5","3","3","3","4","4","2","3","3","4","2","6","2","3","5","5","2","4","4","5","4","4","2","3","5","4","2","6","3","6","4","7","4","6","5","5","3","5","2","7","3","4","796469535413772289","杨","446","Female","[""好她"",""坏我"",""好我"",""坏她""]","[""强她"",""弱我"",""强我"",""弱她""]","","","","","","","","","","","","","","","","","","","","","","","","","","","","","","feedback_test","","","","","","","","",""
"642","","f","psychophysics","42","386453","0.0-8.0-1.0-1.0-0.0-0.16","4","2","4","3","2","5","2","4","5","5","5","1","-2","-1","1","-1","0","2","1","5","4","5","5","4","3","3","2","2","3","5","7","4","7","4","3","5","5","5","3","3","3","4","4","2","3","3","4","2","6","2","3","5","5","2","4","4","5","4","4","2","3","5","4","2","6","3","6","4","7","4","6","5","5","3","5","2","7","3","4","796469535413772289","杨","446","Female","[""好她"",""坏我"",""好我"",""坏她""]","[""强她"",""弱我"",""强我"",""弱她""]","","","","","","","","match","","","","","","","","","","key","f","16.667408163264888","640","356","f","true","match","img/triangle.png","强她","强她","prac_ALT2_ability","practice_ability","","","","","","","","",""
"null","<span style='color:GreenYellow; font-size: 70px;'>正确! </span>","null","html-keyboard-response","43","386959","0.0-8.0-1.0-1.0-0.0-1.16","4","2","4","3","2","5","2","4","5","5","5","1","-2","-1","1","-1","0","2","1","5","4","5","5","4","3","3","2","2","3","5","7","4","7","4","3","5","5","5","3","3","3","4","4","2","3","3","4","2","6","2","3","5","5","2","4","4","5","4","4","2","3","5","4","2","6","3","6","4","7","4","6","5","5","3","5","2","7","3","4","796469535413772289","杨","446","Female","[""好她"",""坏我"",""好我"",""坏她""]","[""强她"",""弱我"",""强我"",""弱她""]","","","","","","","","","","","","","","","","","","","","","","","","","","","","","","feedback_test","","","","","","","","",""
"810","","j","psychophysics","44","388775","0.0-8.0-1.0-1.0-0.0-0.17","4","2","4","3","2","5","2","4","5","5","5","1","-2","-1","1","-1","0","2","1","5","4","5","5","4","3","3","2","2","3","5","7","4","7","4","3","5","5","5","3","3","3","4","4","2","3","3","4","2","6","2","3","5","5","2","4","4","5","4","4","2","3","5","4","2","6","3","6","4","7","4","6","5","5","3","5","2","7","3","4","796469535413772289","杨","446","Female","[""好她"",""坏我"",""好我"",""坏她""]","[""强她"",""弱我"",""强我"",""弱她""]","","","","","","","","nonmatch","","","","","","","","","","key","j","16.666537037037347","640","356","j","true","nonmatch","img/triangle.png","强我","强她","prac_ALT2_ability","practice_ability","","","","","","","","",""
"null","<span style='color:GreenYellow; font-size: 70px;'>正确! </span>","null","html-keyboard-response","45","389277","0.0-8.0-1.0-1.0-0.0-1.17","4","2","4","3","2","5","2","4","5","5","5","1","-2","-1","1","-1","0","2","1","5","4","5","5","4","3","3","2","2","3","5","7","4","7","4","3","5","5","5","3","3","3","4","4","2","3","3","4","2","6","2","3","5","5","2","4","4","5","4","4","2","3","5","4","2","6","3","6","4","7","4","6","5","5","3","5","2","7","3","4","796469535413772289","杨","446","Female","[""好她"",""坏我"",""好我"",""坏她""]","[""强她"",""弱我"",""强我"",""弱她""]","","","","","","","","","","","","","","","","","","","","","","","","","","","","","","feedback_test","","","","","","","","",""
"null","","null","psychophysics","46","391489","0.0-8.0-1.0-1.0-0.0-0.18","4","2","4","3","2","5","2","4","5","5","5","1","-2","-1","1","-1","0","2","1","5","4","5","5","4","3","3","2","2","3","5","7","4","7","4","3","5","5","5","3","3","3","4","4","2","3","3","4","2","6","2","3","5","5","2","4","4","5","4","4","2","3","5","4","2","6","3","6","4","7","4","6","5","5","3","5","2","7","3","4","796469535413772289","杨","446","Female","[""好她"",""坏我"",""好我"",""坏她""]","[""强她"",""弱我"",""强我"",""弱她""]","","","","","","","","null","","","","","","","","","","key","null","16.67045038167915","640","356","j","false","nonmatch","img/trapezoid.png","弱她","强我","prac_ALT2_ability","practice_ability","","","","","","","","",""
"null","<span class='add_' style='color:yellow; font-size: 70px;'> 太慢! </span>","null","html-keyboard-response","47","391991","0.0-8.0-1.0-1.0-0.0-1.18","4","2","4","3","2","5","2","4","5","5","5","1","-2","-1","1","-1","0","2","1","5","4","5","5","4","3","3","2","2","3","5","7","4","7","4","3","5","5","5","3","3","3","4","4","2","3","3","4","2","6","2","3","5","5","2","4","4","5","4","4","2","3","5","4","2","6","3","6","4","7","4","6","5","5","3","5","2","7","3","4","796469535413772289","杨","446","Female","[""好她"",""坏我"",""好我"",""坏她""]","[""强她"",""弱我"",""强我"",""弱她""]","","","","","","","","","","","","","","","","","","","","","","","","","","","","","","feedback_test","","","","","","","","",""
"756","","j","psychophysics","48","393751","0.0-8.0-1.0-1.0-0.0-0.19","4","2","4","3","2","5","2","4","5","5","5","1","-2","-1","1","-1","0","2","1","5","4","5","5","4","3","3","2","2","3","5","7","4","7","4","3","5","5","5","3","3","3","4","4","2","3","3","4","2","6","2","3","5","5","2","4","4","5","4","4","2","3","5","4","2","6","3","6","4","7","4","6","5","5","3","5","2","7","3","4","796469535413772289","杨","446","Female","[""好她"",""坏我"",""好我"",""坏她""]","[""强她"",""弱我"",""强我"",""弱她""]","","","","","","","","nonmatch","","","","","","","","","","key","j","16.669933333333272","640","356","j","true","nonmatch","img/triangle.png","弱我","强她","prac_ALT2_ability","practice_ability","","","","","","","","",""
"null","<span style='color:GreenYellow; font-size: 70px;'>正确! </span>","null","html-keyboard-response","49","394255","0.0-8.0-1.0-1.0-0.0-1.19","4","2","4","3","2","5","2","4","5","5","5","1","-2","-1","1","-1","0","2","1","5","4","5","5","4","3","3","2","2","3","5","7","4","7","4","3","5","5","5","3","3","3","4","4","2","3","3","4","2","6","2","3","5","5","2","4","4","5","4","4","2","3","5","4","2","6","3","6","4","7","4","6","5","5","3","5","2","7","3","4","796469535413772289","杨","446","Female","[""好她"",""坏我"",""好我"",""坏她""]","[""强她"",""弱我"",""强我"",""弱她""]","","","","","","","","","","","","","","","","","","","","","","","","","","","","","","feedback_test","","","","","","","","",""
"861","","f","psychophysics","50","396119","0.0-8.0-1.0-1.0-0.0-0.20","4","2","4","3","2","5","2","4","5","5","5","1","-2","-1","1","-1","0","2","1","5","4","5","5","4","3","3","2","2","3","5","7","4","7","4","3","5","5","5","3","3","3","4","4","2","3","3","4","2","6","2","3","5","5","2","4","4","5","4","4","2","3","5","4","2","6","3","6","4","7","4","6","5","5","3","5","2","7","3","4","796469535413772289","杨","446","Female","[""好她"",""坏我"",""好我"",""坏她""]","[""强她"",""弱我"",""强我"",""弱她""]","","","","","","","","match","","","","","","","","","","key","f","16.668414414414574","640","356","j","false","nonmatch","img/trapezoid.png","强她","强我","prac_ALT2_ability","practice_ability","","","","","","","","",""
"null","<span style='color:red; font-size: 70px;'>错误! </span>","null","html-keyboard-response","51","396621","0.0-8.0-1.0-1.0-0.0-1.20","4","2","4","3","2","5","2","4","5","5","5","1","-2","-1","1","-1","0","2","1","5","4","5","5","4","3","3","2","2","3","5","7","4","7","4","3","5","5","5","3","3","3","4","4","2","3","3","4","2","6","2","3","5","5","2","4","4","5","4","4","2","3","5","4","2","6","3","6","4","7","4","6","5","5","3","5","2","7","3","4","796469535413772289","杨","446","Female","[""好她"",""坏我"",""好我"",""坏她""]","[""强她"",""弱我"",""强我"",""弱她""]","","","","","","","","","","","","","","","","","","","","","","","","","","","","","","feedback_test","","","","","","","","",""
"964","","f","psychophysics","52","398588","0.0-8.0-1.0-1.0-0.0-0.21","4","2","4","3","2","5","2","4","5","5","5","1","-2","-1","1","-1","0","2","1","5","4","5","5","4","3","3","2","2","3","5","7","4","7","4","3","5","5","5","3","3","3","4","4","2","3","3","4","2","6","2","3","5","5","2","4","4","5","4","4","2","3","5","4","2","6","3","6","4","7","4","6","5","5","3","5","2","7","3","4","796469535413772289","杨","446","Female","[""好她"",""坏我"",""好我"",""坏她""]","[""强她"",""弱我"",""强我"",""弱她""]","","","","","","","","match","","","","","","","","","","key","f","16.6677435897435","640","356","f","true","match","img/trapezoid.png","强我","强我","prac_ALT2_ability","practice_ability","","","","","","","","",""
"null","<span style='color:GreenYellow; font-size: 70px;'>正确! </span>","null","html-keyboard-response","53","399090","0.0-8.0-1.0-1.0-0.0-1.21","4","2","4","3","2","5","2","4","5","5","5","1","-2","-1","1","-1","0","2","1","5","4","5","5","4","3","3","2","2","3","5","7","4","7","4","3","5","5","5","3","3","3","4","4","2","3","3","4","2","6","2","3","5","5","2","4","4","5","4","4","2","3","5","4","2","6","3","6","4","7","4","6","5","5","3","5","2","7","3","4","796469535413772289","杨","446","Female","[""好她"",""坏我"",""好我"",""坏她""]","[""强她"",""弱我"",""强我"",""弱她""]","","","","","","","","","","","","","","","","","","","","","","","","","","","","","","feedback_test","","","","","","","","",""
"null","","null","psychophysics","54","401312","0.0-8.0-1.0-1.0-0.0-0.22","4","2","4","3","2","5","2","4","5","5","5","1","-2","-1","1","-1","0","2","1","5","4","5","5","4","3","3","2","2","3","5","7","4","7","4","3","5","5","5","3","3","3","4","4","2","3","3","4","2","6","2","3","5","5","2","4","4","5","4","4","2","3","5","4","2","6","3","6","4","7","4","6","5","5","3","5","2","7","3","4","796469535413772289","杨","446","Female","[""好她"",""坏我"",""好我"",""坏她""]","[""强她"",""弱我"",""强我"",""弱她""]","","","","","","","","null","","","","","","","","","","key","null","16.668416666666445","640","356","f","false","match","img/triangle.png","强她","强她","prac_ALT2_ability","practice_ability","","","","","","","","",""
"null","<span class='add_' style='color:yellow; font-size: 70px;'> 太慢! </span>","null","html-keyboard-response","55","401815","0.0-8.0-1.0-1.0-0.0-1.22","4","2","4","3","2","5","2","4","5","5","5","1","-2","-1","1","-1","0","2","1","5","4","5","5","4","3","3","2","2","3","5","7","4","7","4","3","5","5","5","3","3","3","4","4","2","3","3","4","2","6","2","3","5","5","2","4","4","5","4","4","2","3","5","4","2","6","3","6","4","7","4","6","5","5","3","5","2","7","3","4","796469535413772289","杨","446","Female","[""好她"",""坏我"",""好我"",""坏她""]","[""强她"",""弱我"",""强我"",""弱她""]","","","","","","","","","","","","","","","","","","","","","","","","","","","","","","feedback_test","","","","","","","","",""
"530","","f","psychophysics","56","403349","0.0-8.0-1.0-1.0-0.0-0.23","4","2","4","3","2","5","2","4","5","5","5","1","-2","-1","1","-1","0","2","1","5","4","5","5","4","3","3","2","2","3","5","7","4","7","4","3","5","5","5","3","3","3","4","4","2","3","3","4","2","6","2","3","5","5","2","4","4","5","4","4","2","3","5","4","2","6","3","6","4","7","4","6","5","5","3","5","2","7","3","4","796469535413772289","杨","446","Female","[""好她"",""坏我"",""好我"",""坏她""]","[""强她"",""弱我"",""强我"",""弱她""]","","","","","","","","match","","","","","","","","","","key","f","16.668164835164355","640","356","j","false","nonmatch","img/triangle.png","弱她","强她","prac_ALT2_ability","practice_ability","","","","","","","","",""
"null","<span style='color:red; font-size: 70px;'>错误! </span>","null","html-keyboard-response","57","403851","0.0-8.0-1.0-1.0-0.0-1.23","4","2","4","3","2","5","2","4","5","5","5","1","-2","-1","1","-1","0","2","1","5","4","5","5","4","3","3","2","2","3","5","7","4","7","4","3","5","5","5","3","3","3","4","4","2","3","3","4","2","6","2","3","5","5","2","4","4","5","4","4","2","3","5","4","2","6","3","6","4","7","4","6","5","5","3","5","2","7","3","4","796469535413772289","杨","446","Female","[""好她"",""坏我"",""好我"",""坏她""]","[""强她"",""弱我"",""强我"",""弱她""]","","","","","","","","","","","","","","","","","","","","","","","","","","","","","","feedback_test","","","","","","","","",""
"842","","j","psychophysics","58","405700","0.0-8.0-1.0-1.0-0.0-0.24","4","2","4","3","2","5","2","4","5","5","5","1","-2","-1","1","-1","0","2","1","5","4","5","5","4","3","3","2","2","3","5","7","4","7","4","3","5","5","5","3","3","3","4","4","2","3","3","4","2","6","2","3","5","5","2","4","4","5","4","4","2","3","5","4","2","6","3","6","4","7","4","6","5","5","3","5","2","7","3","4","796469535413772289","杨","446","Female","[""好她"",""坏我"",""好我"",""坏她""]","[""强她"",""弱我"",""强我"",""弱她""]","","","","","","","","nonmatch","","","","","","","","","","key","j","16.67022727272759","640","356","j","true","nonmatch","img/triangle.png","强我","强她","prac_ALT2_ability","practice_ability","","","","","","","","",""
"null","<span style='color:GreenYellow; font-size: 70px;'>正确! </span>","null","html-keyboard-response","59","406203","0.0-8.0-1.0-1.0-0.0-1.24","4","2","4","3","2","5","2","4","5","5","5","1","-2","-1","1","-1","0","2","1","5","4","5","5","4","3","3","2","2","3","5","7","4","7","4","3","5","5","5","3","3","3","4","4","2","3","3","4","2","6","2","3","5","5","2","4","4","5","4","4","2","3","5","4","2","6","3","6","4","7","4","6","5","5","3","5","2","7","3","4","796469535413772289","杨","446","Female","[""好她"",""坏我"",""好我"",""坏她""]","[""强她"",""弱我"",""强我"",""弱她""]","","","","","","","","","","","","","","","","","","","","","","","","","","","","","","feedback_test","","","","","","","","",""
"1180","","f","psychophysics","60","408386","0.0-8.0-1.0-1.0-0.0-0.25","4","2","4","3","2","5","2","4","5","5","5","1","-2","-1","1","-1","0","2","1","5","4","5","5","4","3","3","2","2","3","5","7","4","7","4","3","5","5","5","3","3","3","4","4","2","3","3","4","2","6","2","3","5","5","2","4","4","5","4","4","2","3","5","4","2","6","3","6","4","7","4","6","5","5","3","5","2","7","3","4","796469535413772289","杨","446","Female","[""好她"",""坏我"",""好我"",""坏她""]","[""强她"",""弱我"",""强我"",""弱她""]","","","","","","","","match","","","","","","","","","","key","f","16.666661538461742","640","356","j","false","nonmatch","img/trapezoid.png","弱我","强我","prac_ALT2_ability","practice_ability","","","","","","","","",""
"null","<span style='color:red; font-size: 70px;'>错误! </span>","null","html-keyboard-response","61","408889","0.0-8.0-1.0-1.0-0.0-1.25","4","2","4","3","2","5","2","4","5","5","5","1","-2","-1","1","-1","0","2","1","5","4","5","5","4","3","3","2","2","3","5","7","4","7","4","3","5","5","5","3","3","3","4","4","2","3","3","4","2","6","2","3","5","5","2","4","4","5","4","4","2","3","5","4","2","6","3","6","4","7","4","6","5","5","3","5","2","7","3","4","796469535413772289","杨","446","Female","[""好她"",""坏我"",""好我"",""坏她""]","[""强她"",""弱我"",""强我"",""弱她""]","","","","","","","","","","","","","","","","","","","","","","","","","","","","","","feedback_test","","","","","","","","",""
"918","","f","psychophysics","62","410811","0.0-8.0-1.0-1.0-0.0-0.26","4","2","4","3","2","5","2","4","5","5","5","1","-2","-1","1","-1","0","2","1","5","4","5","5","4","3","3","2","2","3","5","7","4","7","4","3","5","5","5","3","3","3","4","4","2","3","3","4","2","6","2","3","5","5","2","4","4","5","4","4","2","3","5","4","2","6","3","6","4","7","4","6","5","5","3","5","2","7","3","4","796469535413772289","杨","446","Female","[""好她"",""坏我"",""好我"",""坏她""]","[""强她"",""弱我"",""强我"",""弱她""]","","","","","","","","match","","","","","","","","","","key","f","16.66976315789476","640","356","f","true","match","img/trapezoid.png","强我","强我","prac_ALT2_ability","practice_ability","","","","","","","","",""
"null","<span style='color:GreenYellow; font-size: 70px;'>正确! </span>","null","html-keyboard-response","63","411315","0.0-8.0-1.0-1.0-0.0-1.26","4","2","4","3","2","5","2","4","5","5","5","1","-2","-1","1","-1","0","2","1","5","4","5","5","4","3","3","2","2","3","5","7","4","7","4","3","5","5","5","3","3","3","4","4","2","3","3","4","2","6","2","3","5","5","2","4","4","5","4","4","2","3","5","4","2","6","3","6","4","7","4","6","5","5","3","5","2","7","3","4","796469535413772289","杨","446","Female","[""好她"",""坏我"",""好我"",""坏她""]","[""强她"",""弱我"",""强我"",""弱她""]","","","","","","","","","","","","","","","","","","","","","","","","","","","","","","feedback_test","","","","","","","","",""
"1000","","f","psychophysics","64","413319","0.0-8.0-1.0-1.0-0.0-0.27","4","2","4","3","2","5","2","4","5","5","5","1","-2","-1","1","-1","0","2","1","5","4","5","5","4","3","3","2","2","3","5","7","4","7","4","3","5","5","5","3","3","3","4","4","2","3","3","4","2","6","2","3","5","5","2","4","4","5","4","4","2","3","5","4","2","6","3","6","4","7","4","6","5","5","3","5","2","7","3","4","796469535413772289","杨","446","Female","[""好她"",""坏我"",""好我"",""坏她""]","[""强她"",""弱我"",""强我"",""弱她""]","","","","","","","","match","","","","","","","","","","key","f","16.668966386554285","640","356","f","true","match","img/hexagon.png","弱她","弱她","prac_ALT2_ability","practice_ability","","","","","","","","",""
"null","<span style='color:GreenYellow; font-size: 70px;'>正确! </span>","null","html-keyboard-response","65","413829","0.0-8.0-1.0-1.0-0.0-1.27","4","2","4","3","2","5","2","4","5","5","5","1","-2","-1","1","-1","0","2","1","5","4","5","5","4","3","3","2","2","3","5","7","4","7","4","3","5","5","5","3","3","3","4","4","2","3","3","4","2","6","2","3","5","5","2","4","4","5","4","4","2","3","5","4","2","6","3","6","4","7","4","6","5","5","3","5","2","7","3","4","796469535413772289","杨","446","Female","[""好她"",""坏我"",""好我"",""坏她""]","[""强她"",""弱我"",""强我"",""弱她""]","","","","","","","","","","","","","","","","","","","","","","","","","","","","","","feedback_test","","","","","","","","",""
"755","","j","psychophysics","66","415587","0.0-8.0-1.0-1.0-0.0-0.28","4","2","4","3","2","5","2","4","5","5","5","1","-2","-1","1","-1","0","2","1","5","4","5","5","4","3","3","2","2","3","5","7","4","7","4","3","5","5","5","3","3","3","4","4","2","3","3","4","2","6","2","3","5","5","2","4","4","5","4","4","2","3","5","4","2","6","3","6","4","7","4","6","5","5","3","5","2","7","3","4","796469535413772289","杨","446","Female","[""好她"",""坏我"",""好我"",""坏她""]","[""强她"",""弱我"",""强我"",""弱她""]","","","","","","","","nonmatch","","","","","","","","","","key","j","16.666615384615746","640","356","f","false","match","img/ellipse.png","弱我","弱我","prac_ALT2_ability","practice_ability","","","","","","","","",""
"null","<span style='color:red; font-size: 70px;'>错误! </span>","null","html-keyboard-response","67","416089","0.0-8.0-1.0-1.0-0.0-1.28","4","2","4","3","2","5","2","4","5","5","5","1","-2","-1","1","-1","0","2","1","5","4","5","5","4","3","3","2","2","3","5","7","4","7","4","3","5","5","5","3","3","3","4","4","2","3","3","4","2","6","2","3","5","5","2","4","4","5","4","4","2","3","5","4","2","6","3","6","4","7","4","6","5","5","3","5","2","7","3","4","796469535413772289","杨","446","Female","[""好她"",""坏我"",""好我"",""坏她""]","[""强她"",""弱我"",""强我"",""弱她""]","","","","","","","","","","","","","","","","","","","","","","","","","","","","","","feedback_test","","","","","","","","",""
"1051","","f","psychophysics","68","418146","0.0-8.0-1.0-1.0-0.0-0.29","4","2","4","3","2","5","2","4","5","5","5","1","-2","-1","1","-1","0","2","1","5","4","5","5","4","3","3","2","2","3","5","7","4","7","4","3","5","5","5","3","3","3","4","4","2","3","3","4","2","6","2","3","5","5","2","4","4","5","4","4","2","3","5","4","2","6","3","6","4","7","4","6","5","5","3","5","2","7","3","4","796469535413772289","杨","446","Female","[""好她"",""坏我"",""好我"",""坏她""]","[""强她"",""弱我"",""强我"",""弱她""]","","","","","","","","match","","","","","","","","","","key","f","16.667983606557428","640","356","j","false","nonmatch","img/hexagon.png","弱我","弱她","prac_ALT2_ability","practice_ability","","","","","","","","",""
"null","<span style='color:red; font-size: 70px;'>错误! </span>","null","html-keyboard-response","69","418649","0.0-8.0-1.0-1.0-0.0-1.29","4","2","4","3","2","5","2","4","5","5","5","1","-2","-1","1","-1","0","2","1","5","4","5","5","4","3","3","2","2","3","5","7","4","7","4","3","5","5","5","3","3","3","4","4","2","3","3","4","2","6","2","3","5","5","2","4","4","5","4","4","2","3","5","4","2","6","3","6","4","7","4","6","5","5","3","5","2","7","3","4","796469535413772289","杨","446","Female","[""好她"",""坏我"",""好我"",""坏她""]","[""强她"",""弱我"",""强我"",""弱她""]","","","","","","","","","","","","","","","","","","","","","","","","","","","","","","feedback_test","","","","","","","","",""
"884","","j","psychophysics","70","420537","0.0-8.0-1.0-1.0-0.0-0.30","4","2","4","3","2","5","2","4","5","5","5","1","-2","-1","1","-1","0","2","1","5","4","5","5","4","3","3","2","2","3","5","7","4","7","4","3","5","5","5","3","3","3","4","4","2","3","3","4","2","6","2","3","5","5","2","4","4","5","4","4","2","3","5","4","2","6","3","6","4","7","4","6","5","5","3","5","2","7","3","4","796469535413772289","杨","446","Female","[""好她"",""坏我"",""好我"",""坏她""]","[""强她"",""弱我"",""强我"",""弱她""]","","","","","","","","nonmatch","","","","","","","","","","key","j","16.669821428571595","640","356","j","true","nonmatch","img/triangle.png","弱她","强她","prac_ALT2_ability","practice_ability","","","","","","","","",""
"null","<span style='color:GreenYellow; font-size: 70px;'>正确! </span>","null","html-keyboard-response","71","421040","0.0-8.0-1.0-1.0-0.0-1.30","4","2","4","3","2","5","2","4","5","5","5","1","-2","-1","1","-1","0","2","1","5","4","5","5","4","3","3","2","2","3","5","7","4","7","4","3","5","5","5","3","3","3","4","4","2","3","3","4","2","6","2","3","5","5","2","4","4","5","4","4","2","3","5","4","2","6","3","6","4","7","4","6","5","5","3","5","2","7","3","4","796469535413772289","杨","446","Female","[""好她"",""坏我"",""好我"",""坏她""]","[""强她"",""弱我"",""强我"",""弱她""]","","","","","","","","","","","","","","","","","","","","","","","","","","","","","","feedback_test","","","","","","","","",""
"916","","f","psychophysics","72","422959","0.0-8.0-1.0-1.0-0.0-0.31","4","2","4","3","2","5","2","4","5","5","5","1","-2","-1","1","-1","0","2","1","5","4","5","5","4","3","3","2","2","3","5","7","4","7","4","3","5","5","5","3","3","3","4","4","2","3","3","4","2","6","2","3","5","5","2","4","4","5","4","4","2","3","5","4","2","6","3","6","4","7","4","6","5","5","3","5","2","7","3","4","796469535413772289","杨","446","Female","[""好她"",""坏我"",""好我"",""坏她""]","[""强她"",""弱我"",""强我"",""弱她""]","","","","","","","","match","","","","","","","","","","key","f","16.669245614035038","640","356","f","true","match","img/hexagon.png","弱她","弱她","prac_ALT2_ability","practice_ability","","","","","","","","",""
"null","<span style='color:GreenYellow; font-size: 70px;'>正确! </span>","null","html-keyboard-response","73","423465","0.0-8.0-1.0-1.0-0.0-1.31","4","2","4","3","2","5","2","4","5","5","5","1","-2","-1","1","-1","0","2","1","5","4","5","5","4","3","3","2","2","3","5","7","4","7","4","3","5","5","5","3","3","3","4","4","2","3","3","4","2","6","2","3","5","5","2","4","4","5","4","4","2","3","5","4","2","6","3","6","4","7","4","6","5","5","3","5","2","7","3","4","796469535413772289","杨","446","Female","[""好她"",""坏我"",""好我"",""坏她""]","[""强她"",""弱我"",""强我"",""弱她""]","","","","","","","","","","","","","","","","","","","","","","","","","","","","","","feedback_test","","","","","","","","",""
"899","","f","psychophysics","74","425367","0.0-8.0-1.0-1.0-0.0-0.32","4","2","4","3","2","5","2","4","5","5","5","1","-2","-1","1","-1","0","2","1","5","4","5","5","4","3","3","2","2","3","5","7","4","7","4","3","5","5","5","3","3","3","4","4","2","3","3","4","2","6","2","3","5","5","2","4","4","5","4","4","2","3","5","4","2","6","3","6","4","7","4","6","5","5","3","5","2","7","3","4","796469535413772289","杨","446","Female","[""好她"",""坏我"",""好我"",""坏她""]","[""强她"",""弱我"",""强我"",""弱她""]","","","","","","","","match","","","","","","","","","","key","f","16.671327433628196","640","356","f","true","match","img/triangle.png","强她","强她","prac_ALT2_ability","practice_ability","","","","","","","","",""
"null","<span style='color:GreenYellow; font-size: 70px;'>正确! </span>","null","html-keyboard-response","75","425870","0.0-8.0-1.0-1.0-0.0-1.32","4","2","4","3","2","5","2","4","5","5","5","1","-2","-1","1","-1","0","2","1","5","4","5","5","4","3","3","2","2","3","5","7","4","7","4","3","5","5","5","3","3","3","4","4","2","3","3","4","2","6","2","3","5","5","2","4","4","5","4","4","2","3","5","4","2","6","3","6","4","7","4","6","5","5","3","5","2","7","3","4","796469535413772289","杨","446","Female","[""好她"",""坏我"",""好我"",""坏她""]","[""强她"",""弱我"",""强我"",""弱她""]","","","","","","","","","","","","","","","","","","","","","","","","","","","","","","feedback_test","","","","","","","","",""
"868","","j","psychophysics","76","427741","0.0-8.0-1.0-1.0-0.0-0.33","4","2","4","3","2","5","2","4","5","5","5","1","-2","-1","1","-1","0","2","1","5","4","5","5","4","3","3","2","2","3","5","7","4","7","4","3","5","5","5","3","3","3","4","4","2","3","3","4","2","6","2","3","5","5","2","4","4","5","4","4","2","3","5","4","2","6","3","6","4","7","4","6","5","5","3","5","2","7","3","4","796469535413772289","杨","446","Female","[""好她"",""坏我"",""好我"",""坏她""]","[""强她"",""弱我"",""强我"",""弱她""]","","","","","","","","nonmatch","","","","","","","","","","key","j","16.668909909910006","640","356","j","true","nonmatch","img/trapezoid.png","强她","强我","prac_ALT2_ability","practice_ability","","","","","","","","",""
"null","<span style='color:GreenYellow; font-size: 70px;'>正确! </span>","null","html-keyboard-response","77","428245","0.0-8.0-1.0-1.0-0.0-1.33","4","2","4","3","2","5","2","4","5","5","5","1","-2","-1","1","-1","0","2","1","5","4","5","5","4","3","3","2","2","3","5","7","4","7","4","3","5","5","5","3","3","3","4","4","2","3","3","4","2","6","2","3","5","5","2","4","4","5","4","4","2","3","5","4","2","6","3","6","4","7","4","6","5","5","3","5","2","7","3","4","796469535413772289","杨","446","Female","[""好她"",""坏我"",""好我"",""坏她""]","[""强她"",""弱我"",""强我"",""弱她""]","","","","","","","","","","","","","","","","","","","","","","","","","","","","","","feedback_test","","","","","","","","",""
"802","","f","psychophysics","78","430050","0.0-8.0-1.0-1.0-0.0-0.34","4","2","4","3","2","5","2","4","5","5","5","1","-2","-1","1","-1","0","2","1","5","4","5","5","4","3","3","2","2","3","5","7","4","7","4","3","5","5","5","3","3","3","4","4","2","3","3","4","2","6","2","3","5","5","2","4","4","5","4","4","2","3","5","4","2","6","3","6","4","7","4","6","5","5","3","5","2","7","3","4","796469535413772289","杨","446","Female","[""好她"",""坏我"",""好我"",""坏她""]","[""强她"",""弱我"",""强我"",""弱她""]","","","","","","","","match","","","","","","","","","","key","f","16.66987850467259","640","356","f","true","match","img/trapezoid.png","强我","强我","prac_ALT2_ability","practice_ability","","","","","","","","",""
"null","<span style='color:GreenYellow; font-size: 70px;'>正确! </span>","null","html-keyboard-response","79","430554","0.0-8.0-1.0-1.0-0.0-1.34","4","2","4","3","2","5","2","4","5","5","5","1","-2","-1","1","-1","0","2","1","5","4","5","5","4","3","3","2","2","3","5","7","4","7","4","3","5","5","5","3","3","3","4","4","2","3","3","4","2","6","2","3","5","5","2","4","4","5","4","4","2","3","5","4","2","6","3","6","4","7","4","6","5","5","3","5","2","7","3","4","796469535413772289","杨","446","Female","[""好她"",""坏我"",""好我"",""坏她""]","[""强她"",""弱我"",""强我"",""弱她""]","","","","","","","","","","","","","","","","","","","","","","","","","","","","","","feedback_test","","","","","","","","",""
"607","","j","psychophysics","80","432164","0.0-8.0-1.0-1.0-0.0-0.35","4","2","4","3","2","5","2","4","5","5","5","1","-2","-1","1","-1","0","2","1","5","4","5","5","4","3","3","2","2","3","5","7","4","7","4","3","5","5","5","3","3","3","4","4","2","3","3","4","2","6","2","3","5","5","2","4","4","5","4","4","2","3","5","4","2","6","3","6","4","7","4","6","5","5","3","5","2","7","3","4","796469535413772289","杨","446","Female","[""好她"",""坏我"",""好我"",""坏她""]","[""强她"",""弱我"",""强我"",""弱她""]","","","","","","","","nonmatch","","","","","","","","","","key","j","16.668463157894898","640","356","j","true","nonmatch","img/ellipse.png","强她","弱我","prac_ALT2_ability","practice_ability","","","","","","","","",""
"null","<span style='color:GreenYellow; font-size: 70px;'>正确! </span>","null","html-keyboard-response","81","432666","0.0-8.0-1.0-1.0-0.0-1.35","4","2","4","3","2","5","2","4","5","5","5","1","-2","-1","1","-1","0","2","1","5","4","5","5","4","3","3","2","2","3","5","7","4","7","4","3","5","5","5","3","3","3","4","4","2","3","3","4","2","6","2","3","5","5","2","4","4","5","4","4","2","3","5","4","2","6","3","6","4","7","4","6","5","5","3","5","2","7","3","4","796469535413772289","杨","446","Female","[""好她"",""坏我"",""好我"",""坏她""]","[""强她"",""弱我"",""强我"",""弱她""]","","","","","","","","","","","","","","","","","","","","","","","","","","","","","","feedback_test","","","","","","","","",""
"601","","f","psychophysics","82","434269","0.0-8.0-1.0-1.0-0.0-0.36","4","2","4","3","2","5","2","4","5","5","5","1","-2","-1","1","-1","0","2","1","5","4","5","5","4","3","3","2","2","3","5","7","4","7","4","3","5","5","5","3","3","3","4","4","2","3","3","4","2","6","2","3","5","5","2","4","4","5","4","4","2","3","5","4","2","6","3","6","4","7","4","6","5","5","3","5","2","7","3","4","796469535413772289","杨","446","Female","[""好她"",""坏我"",""好我"",""坏她""]","[""强她"",""弱我"",""强我"",""弱她""]","","","","","","","","match","","","","","","","","","","key","f","16.66805263157922","640","356","f","true","match","img/triangle.png","强她","强她","prac_ALT2_ability","practice_ability","","","","","","","","",""
"null","<span style='color:GreenYellow; font-size: 70px;'>正确! </span>","null","html-keyboard-response","83","434773","0.0-8.0-1.0-1.0-0.0-1.36","4","2","4","3","2","5","2","4","5","5","5","1","-2","-1","1","-1","0","2","1","5","4","5","5","4","3","3","2","2","3","5","7","4","7","4","3","5","5","5","3","3","3","4","4","2","3","3","4","2","6","2","3","5","5","2","4","4","5","4","4","2","3","5","4","2","6","3","6","4","7","4","6","5","5","3","5","2","7","3","4","796469535413772289","杨","446","Female","[""好她"",""坏我"",""好我"",""坏她""]","[""强她"",""弱我"",""强我"",""弱她""]","","","","","","","","","","","","","","","","","","","","","","","","","","","","","","feedback_test","","","","","","","","",""
"761","","f","psychophysics","84","436537","0.0-8.0-1.0-1.0-0.0-0.37","4","2","4","3","2","5","2","4","5","5","5","1","-2","-1","1","-1","0","2","1","5","4","5","5","4","3","3","2","2","3","5","7","4","7","4","3","5","5","5","3","3","3","4","4","2","3","3","4","2","6","2","3","5","5","2","4","4","5","4","4","2","3","5","4","2","6","3","6","4","7","4","6","5","5","3","5","2","7","3","4","796469535413772289","杨","446","Female","[""好她"",""坏我"",""好我"",""坏她""]","[""强她"",""弱我"",""强我"",""弱她""]","","","","","","","","match","","","","","","","","","","key","f","16.669057692307643","640","356","f","true","match","img/hexagon.png","弱她","弱她","prac_ALT2_ability","practice_ability","","","","","","","","",""
"null","<span style='color:GreenYellow; font-size: 70px;'>正确! </span>","null","html-keyboard-response","85","437038","0.0-8.0-1.0-1.0-0.0-1.37","4","2","4","3","2","5","2","4","5","5","5","1","-2","-1","1","-1","0","2","1","5","4","5","5","4","3","3","2","2","3","5","7","4","7","4","3","5","5","5","3","3","3","4","4","2","3","3","4","2","6","2","3","5","5","2","4","4","5","4","4","2","3","5","4","2","6","3","6","4","7","4","6","5","5","3","5","2","7","3","4","796469535413772289","杨","446","Female","[""好她"",""坏我"",""好我"",""坏她""]","[""强她"",""弱我"",""强我"",""弱她""]","","","","","","","","","","","","","","","","","","","","","","","","","","","","","","feedback_test","","","","","","","","",""
"731","","f","psychophysics","86","438773","0.0-8.0-1.0-1.0-0.0-0.38","4","2","4","3","2","5","2","4","5","5","5","1","-2","-1","1","-1","0","2","1","5","4","5","5","4","3","3","2","2","3","5","7","4","7","4","3","5","5","5","3","3","3","4","4","2","3","3","4","2","6","2","3","5","5","2","4","4","5","4","4","2","3","5","4","2","6","3","6","4","7","4","6","5","5","3","5","2","7","3","4","796469535413772289","杨","446","Female","[""好她"",""坏我"",""好我"",""坏她""]","[""强她"",""弱我"",""强我"",""弱她""]","","","","","","","","match","","","","","","","","","","key","f","16.654754901960533","640","356","j","false","nonmatch","img/hexagon.png","强我","弱她","prac_ALT2_ability","practice_ability","","","","","","","","",""
"null","<span style='color:red; font-size: 70px;'>错误! </span>","null","html-keyboard-response","87","439277","0.0-8.0-1.0-1.0-0.0-1.38","4","2","4","3","2","5","2","4","5","5","5","1","-2","-1","1","-1","0","2","1","5","4","5","5","4","3","3","2","2","3","5","7","4","7","4","3","5","5","5","3","3","3","4","4","2","3","3","4","2","6","2","3","5","5","2","4","4","5","4","4","2","3","5","4","2","6","3","6","4","7","4","6","5","5","3","5","2","7","3","4","796469535413772289","杨","446","Female","[""好她"",""坏我"",""好我"",""坏她""]","[""强她"",""弱我"",""强我"",""弱她""]","","","","","","","","","","","","","","","","","","","","","","","","","","","","","","feedback_test","","","","","","","","",""
"null","","null","psychophysics","88","441488","0.0-8.0-1.0-1.0-0.0-0.39","4","2","4","3","2","5","2","4","5","5","5","1","-2","-1","1","-1","0","2","1","5","4","5","5","4","3","3","2","2","3","5","7","4","7","4","3","5","5","5","3","3","3","4","4","2","3","3","4","2","6","2","3","5","5","2","4","4","5","4","4","2","3","5","4","2","6","3","6","4","7","4","6","5","5","3","5","2","7","3","4","796469535413772289","杨","446","Female","[""好她"",""坏我"",""好我"",""坏她""]","[""强她"",""弱我"",""强我"",""弱她""]","","","","","","","","null","","","","","","","","","","key","null","16.66822137404589","640","356","j","false","nonmatch","img/ellipse.png","强我","弱我","prac_ALT2_ability","practice_ability","","","","","","","","",""
"null","<span class='add_' style='color:yellow; font-size: 70px;'> 太慢! </span>","null","html-keyboard-response","89","441992","0.0-8.0-1.0-1.0-0.0-1.39","4","2","4","3","2","5","2","4","5","5","5","1","-2","-1","1","-1","0","2","1","5","4","5","5","4","3","3","2","2","3","5","7","4","7","4","3","5","5","5","3","3","3","4","4","2","3","3","4","2","6","2","3","5","5","2","4","4","5","4","4","2","3","5","4","2","6","3","6","4","7","4","6","5","5","3","5","2","7","3","4","796469535413772289","杨","446","Female","[""好她"",""坏我"",""好我"",""坏她""]","[""强她"",""弱我"",""强我"",""弱她""]","","","","","","","","","","","","","","","","","","","","","","","","","","","","","","feedback_test","","","","","","","","",""
"1202","","j","psychophysics","90","444201","0.0-8.0-1.0-1.0-0.0-0.40","4","2","4","3","2","5","2","4","5","5","5","1","-2","-1","1","-1","0","2","1","5","4","5","5","4","3","3","2","2","3","5","7","4","7","4","3","5","5","5","3","3","3","4","4","2","3","3","4","2","6","2","3","5","5","2","4","4","5","4","4","2","3","5","4","2","6","3","6","4","7","4","6","5","5","3","5","2","7","3","4","796469535413772289","杨","446","Female","[""好她"",""坏我"",""好我"",""坏她""]","[""强她"",""弱我"",""强我"",""弱她""]","","","","","","","","nonmatch","","","","","","","","","","key","j","16.669473282442755","640","356","f","false","match","img/ellipse.png","弱我","弱我","prac_ALT2_ability","practice_ability","","","","","","","","",""
"null","<span class='add_' style='color:yellow; font-size: 70px;'> 太慢! </span>","null","html-keyboard-response","91","444709","0.0-8.0-1.0-1.0-0.0-1.40","4","2","4","3","2","5","2","4","5","5","5","1","-2","-1","1","-1","0","2","1","5","4","5","5","4","3","3","2","2","3","5","7","4","7","4","3","5","5","5","3","3","3","4","4","2","3","3","4","2","6","2","3","5","5","2","4","4","5","4","4","2","3","5","4","2","6","3","6","4","7","4","6","5","5","3","5","2","7","3","4","796469535413772289","杨","446","Female","[""好她"",""坏我"",""好我"",""坏她""]","[""强她"",""弱我"",""强我"",""弱她""]","","","","","","","","","","","","","","","","","","","","","","","","","","","","","","feedback_test","","","","","","","","",""
"611","","j","psychophysics","92","446322","0.0-8.0-1.0-1.0-0.0-0.41","4","2","4","3","2","5","2","4","5","5","5","1","-2","-1","1","-1","0","2","1","5","4","5","5","4","3","3","2","2","3","5","7","4","7","4","3","5","5","5","3","3","3","4","4","2","3","3","4","2","6","2","3","5","5","2","4","4","5","4","4","2","3","5","4","2","6","3","6","4","7","4","6","5","5","3","5","2","7","3","4","796469535413772289","杨","446","Female","[""好她"",""坏我"",""好我"",""坏她""]","[""强她"",""弱我"",""强我"",""弱她""]","","","","","","","","nonmatch","","","","","","","","","","key","j","16.66814736842092","640","356","f","false","match","img/ellipse.png","弱我","弱我","prac_ALT2_ability","practice_ability","","","","","","","","",""
"null","<span style='color:red; font-size: 70px;'>错误! </span>","null","html-keyboard-response","93","446826","0.0-8.0-1.0-1.0-0.0-1.41","4","2","4","3","2","5","2","4","5","5","5","1","-2","-1","1","-1","0","2","1","5","4","5","5","4","3","3","2","2","3","5","7","4","7","4","3","5","5","5","3","3","3","4","4","2","3","3","4","2","6","2","3","5","5","2","4","4","5","4","4","2","3","5","4","2","6","3","6","4","7","4","6","5","5","3","5","2","7","3","4","796469535413772289","杨","446","Female","[""好她"",""坏我"",""好我"",""坏她""]","[""强她"",""弱我"",""强我"",""弱她""]","","","","","","","","","","","","","","","","","","","","","","","","","","","","","","feedback_test","","","","","","","","",""
"820","","f","psychophysics","94","448649","0.0-8.0-1.0-1.0-0.0-0.42","4","2","4","3","2","5","2","4","5","5","5","1","-2","-1","1","-1","0","2","1","5","4","5","5","4","3","3","2","2","3","5","7","4","7","4","3","5","5","5","3","3","3","4","4","2","3","3","4","2","6","2","3","5","5","2","4","4","5","4","4","2","3","5","4","2","6","3","6","4","7","4","6","5","5","3","5","2","7","3","4","796469535413772289","杨","446","Female","[""好她"",""坏我"",""好我"",""坏她""]","[""强她"",""弱我"",""强我"",""弱她""]","","","","","","","","match","","","","","","","","","","key","f","16.66796296296309","640","356","j","false","nonmatch","img/trapezoid.png","弱她","强我","prac_ALT2_ability","practice_ability","","","","","","","","",""
"null","<span style='color:red; font-size: 70px;'>错误! </span>","null","html-keyboard-response","95","449153","0.0-8.0-1.0-1.0-0.0-1.42","4","2","4","3","2","5","2","4","5","5","5","1","-2","-1","1","-1","0","2","1","5","4","5","5","4","3","3","2","2","3","5","7","4","7","4","3","5","5","5","3","3","3","4","4","2","3","3","4","2","6","2","3","5","5","2","4","4","5","4","4","2","3","5","4","2","6","3","6","4","7","4","6","5","5","3","5","2","7","3","4","796469535413772289","杨","446","Female","[""好她"",""坏我"",""好我"",""坏她""]","[""强她"",""弱我"",""强我"",""弱她""]","","","","","","","","","","","","","","","","","","","","","","","","","","","","","","feedback_test","","","","","","","","",""
"652","","f","psychophysics","96","450809","0.0-8.0-1.0-1.0-0.0-0.43","4","2","4","3","2","5","2","4","5","5","5","1","-2","-1","1","-1","0","2","1","5","4","5","5","4","3","3","2","2","3","5","7","4","7","4","3","5","5","5","3","3","3","4","4","2","3","3","4","2","6","2","3","5","5","2","4","4","5","4","4","2","3","5","4","2","6","3","6","4","7","4","6","5","5","3","5","2","7","3","4","796469535413772289","杨","446","Female","[""好她"",""坏我"",""好我"",""坏她""]","[""强她"",""弱我"",""强我"",""弱她""]","","","","","","","","match","","","","","","","","","","key","f","16.668510204081883","640","356","f","true","match","img/trapezoid.png","强我","强我","prac_ALT2_ability","practice_ability","","","","","","","","",""
"null","<span style='color:GreenYellow; font-size: 70px;'>正确! </span>","null","html-keyboard-response","97","451316","0.0-8.0-1.0-1.0-0.0-1.43","4","2","4","3","2","5","2","4","5","5","5","1","-2","-1","1","-1","0","2","1","5","4","5","5","4","3","3","2","2","3","5","7","4","7","4","3","5","5","5","3","3","3","4","4","2","3","3","4","2","6","2","3","5","5","2","4","4","5","4","4","2","3","5","4","2","6","3","6","4","7","4","6","5","5","3","5","2","7","3","4","796469535413772289","杨","446","Female","[""好她"",""坏我"",""好我"",""坏她""]","[""强她"",""弱我"",""强我"",""弱她""]","","","","","","","","","","","","","","","","","","","","","","","","","","","","","","feedback_test","","","","","","","","",""
"891","","j","psychophysics","98","453211","0.0-8.0-1.0-1.0-0.0-0.44","4","2","4","3","2","5","2","4","5","5","5","1","-2","-1","1","-1","0","2","1","5","4","5","5","4","3","3","2","2","3","5","7","4","7","4","3","5","5","5","3","3","3","4","4","2","3","3","4","2","6","2","3","5","5","2","4","4","5","4","4","2","3","5","4","2","6","3","6","4","7","4","6","5","5","3","5","2","7","3","4","796469535413772289","杨","446","Female","[""好她"",""坏我"",""好我"",""坏她""]","[""强她"",""弱我"",""强我"",""弱她""]","","","","","","","","nonmatch","","","","","","","","","","key","j","16.668831858406897","640","356","j","true","nonmatch","img/triangle.png","弱我","强她","prac_ALT2_ability","practice_ability","","","","","","","","",""
"null","<span style='color:GreenYellow; font-size: 70px;'>正确! </span>","null","html-keyboard-response","99","453713","0.0-8.0-1.0-1.0-0.0-1.44","4","2","4","3","2","5","2","4","5","5","5","1","-2","-1","1","-1","0","2","1","5","4","5","5","4","3","3","2","2","3","5","7","4","7","4","3","5","5","5","3","3","3","4","4","2","3","3","4","2","6","2","3","5","5","2","4","4","5","4","4","2","3","5","4","2","6","3","6","4","7","4","6","5","5","3","5","2","7","3","4","796469535413772289","杨","446","Female","[""好她"",""坏我"",""好我"",""坏她""]","[""强她"",""弱我"",""强我"",""弱她""]","","","","","","","","","","","","","","","","","","","","","","","","","","","","","","feedback_test","","","","","","","","",""
"585","","f","psychophysics","100","455302","0.0-8.0-1.0-1.0-0.0-0.45","4","2","4","3","2","5","2","4","5","5","5","1","-2","-1","1","-1","0","2","1","5","4","5","5","4","3","3","2","2","3","5","7","4","7","4","3","5","5","5","3","3","3","4","4","2","3","3","4","2","6","2","3","5","5","2","4","4","5","4","4","2","3","5","4","2","6","3","6","4","7","4","6","5","5","3","5","2","7","3","4","796469535413772289","杨","446","Female","[""好她"",""坏我"",""好我"",""坏她""]","[""强她"",""弱我"",""强我"",""弱她""]","","","","","","","","match","","","","","","","","","","key","f","16.669361702127485","640","356","f","true","match","img/triangle.png","强她","强她","prac_ALT2_ability","practice_ability","","","","","","","","",""
"null","<span style='color:GreenYellow; font-size: 70px;'>正确! </span>","null","html-keyboard-response","101","455805","0.0-8.0-1.0-1.0-0.0-1.45","4","2","4","3","2","5","2","4","5","5","5","1","-2","-1","1","-1","0","2","1","5","4","5","5","4","3","3","2","2","3","5","7","4","7","4","3","5","5","5","3","3","3","4","4","2","3","3","4","2","6","2","3","5","5","2","4","4","5","4","4","2","3","5","4","2","6","3","6","4","7","4","6","5","5","3","5","2","7","3","4","796469535413772289","杨","446","Female","[""好她"",""坏我"",""好我"",""坏她""]","[""强她"",""弱我"",""强我"",""弱她""]","","","","","","","","","","","","","","","","","","","","","","","","","","","","","","feedback_test","","","","","","","","",""
"858","","j","psychophysics","102","457668","0.0-8.0-1.0-1.0-0.0-0.46","4","2","4","3","2","5","2","4","5","5","5","1","-2","-1","1","-1","0","2","1","5","4","5","5","4","3","3","2","2","3","5","7","4","7","4","3","5","5","5","3","3","3","4","4","2","3","3","4","2","6","2","3","5","5","2","4","4","5","4","4","2","3","5","4","2","6","3","6","4","7","4","6","5","5","3","5","2","7","3","4","796469535413772289","杨","446","Female","[""好她"",""坏我"",""好我"",""坏她""]","[""强她"",""弱我"",""强我"",""弱她""]","","","","","","","","nonmatch","","","","","","","","","","key","j","16.56808181818183","640","356","j","true","nonmatch","img/hexagon.png","强她","弱她","prac_ALT2_ability","practice_ability","","","","","","","","",""
"null","<span style='color:GreenYellow; font-size: 70px;'>正确! </span>","null","html-keyboard-response","103","458170","0.0-8.0-1.0-1.0-0.0-1.46","4","2","4","3","2","5","2","4","5","5","5","1","-2","-1","1","-1","0","2","1","5","4","5","5","4","3","3","2","2","3","5","7","4","7","4","3","5","5","5","3","3","3","4","4","2","3","3","4","2","6","2","3","5","5","2","4","4","5","4","4","2","3","5","4","2","6","3","6","4","7","4","6","5","5","3","5","2","7","3","4","796469535413772289","杨","446","Female","[""好她"",""坏我"",""好我"",""坏她""]","[""强她"",""弱我"",""强我"",""弱她""]","","","","","","","","","","","","","","","","","","","","","","","","","","","","","","feedback_test","","","","","","","","",""
"670","","j","psychophysics","104","459846","0.0-8.0-1.0-1.0-0.0-0.47","4","2","4","3","2","5","2","4","5","5","5","1","-2","-1","1","-1","0","2","1","5","4","5","5","4","3","3","2","2","3","5","7","4","7","4","3","5","5","5","3","3","3","4","4","2","3","3","4","2","6","2","3","5","5","2","4","4","5","4","4","2","3","5","4","2","6","3","6","4","7","4","6","5","5","3","5","2","7","3","4","796469535413772289","杨","446","Female","[""好她"",""坏我"",""好我"",""坏她""]","[""强她"",""弱我"",""强我"",""弱她""]","","","","","","","","nonmatch","","","","","","","","","","key","j","16.669280000000143","640","356","j","true","nonmatch","img/ellipse.png","弱她","弱我","prac_ALT2_ability","practice_ability","","","","","","","","",""
"null","<span style='color:GreenYellow; font-size: 70px;'>正确! </span>","null","html-keyboard-response","105","460349","0.0-8.0-1.0-1.0-0.0-1.47","4","2","4","3","2","5","2","4","5","5","5","1","-2","-1","1","-1","0","2","1","5","4","5","5","4","3","3","2","2","3","5","7","4","7","4","3","5","5","5","3","3","3","4","4","2","3","3","4","2","6","2","3","5","5","2","4","4","5","4","4","2","3","5","4","2","6","3","6","4","7","4","6","5","5","3","5","2","7","3","4","796469535413772289","杨","446","Female","[""好她"",""坏我"",""好我"",""坏她""]","[""强她"",""弱我"",""强我"",""弱她""]","","","","","","","","","","","","","","","","","","","","","","","","","","","","","","feedback_test","","","","","","","","",""
"29751","<style>.context{color:white; font-size: 35px; line-height:40px}</style>                          <div><p class='context'>您正确回答了56% 的试次。</p><p class='context'>您的平均反应时为793毫秒。</p><p class='context'>恭喜您完成练习。按空格键继续。</p></div>"," ","html-keyboard-response","106","490106","0.0-8.0-1.0-1.0-1.0-0.0","4","2","4","3","2","5","2","4","5","5","5","1","-2","-1","1","-1","0","2","1","5","4","5","5","4","3","3","2","2","3","5","7","4","7","4","3","5","5","5","3","3","3","4","4","2","3","3","4","2","6","2","3","5","5","2","4","4","5","4","4","2","3","5","4","2","6","3","6","4","7","4","6","5","5","3","5","2","7","3","4","796469535413772289","杨","446","Female","[""好她"",""坏我"",""好我"",""坏她""]","[""强她"",""弱我"",""强我"",""弱她""]","","","","","","","","","","","","","","","","","","","","","","","","","","","","","","","","","","","","","","",""
"11798","","","instructions","107","501909","0.0-8.0-1.0-1.0-1.0-1.0","4","2","4","3","2","5","2","4","5","5","5","1","-2","-1","1","-1","0","2","1","5","4","5","5","4","3","3","2","2","3","5","7","4","7","4","3","5","5","5","3","3","3","4","4","2","3","3","4","2","6","2","3","5","5","2","4","4","5","4","4","2","3","5","4","2","6","3","6","4","7","4","6","5","5","3","5","2","7","3","4","796469535413772289","杨","446","Female","[""好她"",""坏我"",""好我"",""坏她""]","[""强她"",""弱我"",""强我"",""弱她""]","","","","","","","","","","","","","","","","","[{""page_index"":0,""viewing_time"":4867},{""page_index"":1,""viewing_time"":3759},{""page_index"":2,""viewing_time"":3171}]","","","","","","","","","","","","","","","","","","","","","",""
"817","","f","psychophysics","108","503734","0.0-8.0-1.0-1.1-0.1-0.48","4","2","4","3","2","5","2","4","5","5","5","1","-2","-1","1","-1","0","2","1","5","4","5","5","4","3","3","2","2","3","5","7","4","7","4","3","5","5","5","3","3","3","4","4","2","3","3","4","2","6","2","3","5","5","2","4","4","5","4","4","2","3","5","4","2","6","3","6","4","7","4","6","5","5","3","5","2","7","3","4","796469535413772289","杨","446","Female","[""好她"",""坏我"",""好我"",""坏她""]","[""强她"",""弱我"",""强我"",""弱她""]","","","","","","","","match","","","","","","","","","","key","f","16.668177570093416","640","356","f","true","match","img/hexagon.png","弱她","弱她","prac_ALT2_ability","practice_ability","","","","","","","","",""
"null","<span style='color:GreenYellow; font-size: 70px;'>正确! </span>","null","html-keyboard-response","109","504237","0.0-8.0-1.0-1.1-0.1-1.48","4","2","4","3","2","5","2","4","5","5","5","1","-2","-1","1","-1","0","2","1","5","4","5","5","4","3","3","2","2","3","5","7","4","7","4","3","5","5","5","3","3","3","4","4","2","3","3","4","2","6","2","3","5","5","2","4","4","5","4","4","2","3","5","4","2","6","3","6","4","7","4","6","5","5","3","5","2","7","3","4","796469535413772289","杨","446","Female","[""好她"",""坏我"",""好我"",""坏她""]","[""强她"",""弱我"",""强我"",""弱她""]","","","","","","","","","","","","","","","","","","","","","","","","","","","","","","feedback_test","","","","","","","","",""
"834","","j","psychophysics","110","506075","0.0-8.0-1.0-1.1-0.1-0.49","4","2","4","3","2","5","2","4","5","5","5","1","-2","-1","1","-1","0","2","1","5","4","5","5","4","3","3","2","2","3","5","7","4","7","4","3","5","5","5","3","3","3","4","4","2","3","3","4","2","6","2","3","5","5","2","4","4","5","4","4","2","3","5","4","2","6","3","6","4","7","4","6","5","5","3","5","2","7","3","4","796469535413772289","杨","446","Female","[""好她"",""坏我"",""好我"",""坏她""]","[""强她"",""弱我"",""强我"",""弱她""]","","","","","","","","nonmatch","","","","","","","","","","key","j","16.668880733944917","640","356","j","true","nonmatch","img/triangle.png","强我","强她","prac_ALT2_ability","practice_ability","","","","","","","","",""
"null","<span style='color:GreenYellow; font-size: 70px;'>正确! </span>","null","html-keyboard-response","111","506578","0.0-8.0-1.0-1.1-0.1-1.49","4","2","4","3","2","5","2","4","5","5","5","1","-2","-1","1","-1","0","2","1","5","4","5","5","4","3","3","2","2","3","5","7","4","7","4","3","5","5","5","3","3","3","4","4","2","3","3","4","2","6","2","3","5","5","2","4","4","5","4","4","2","3","5","4","2","6","3","6","4","7","4","6","5","5","3","5","2","7","3","4","796469535413772289","杨","446","Female","[""好她"",""坏我"",""好我"",""坏她""]","[""强她"",""弱我"",""强我"",""弱她""]","","","","","","","","","","","","","","","","","","","","","","","","","","","","","","feedback_test","","","","","","","","",""
"625","","f","psychophysics","112","508207","0.0-8.0-1.0-1.1-0.1-0.50","4","2","4","3","2","5","2","4","5","5","5","1","-2","-1","1","-1","0","2","1","5","4","5","5","4","3","3","2","2","3","5","7","4","7","4","3","5","5","5","3","3","3","4","4","2","3","3","4","2","6","2","3","5","5","2","4","4","5","4","4","2","3","5","4","2","6","3","6","4","7","4","6","5","5","3","5","2","7","3","4","796469535413772289","杨","446","Female","[""好她"",""坏我"",""好我"",""坏她""]","[""强她"",""弱我"",""强我"",""弱她""]","","","","","","","","match","","","","","","","","","","key","f","16.669051546391614","640","356","j","false","nonmatch","img/hexagon.png","强我","弱她","prac_ALT2_ability","practice_ability","","","","","","","","",""
"null","<span style='color:red; font-size: 70px;'>错误! </span>","null","html-keyboard-response","113","508708","0.0-8.0-1.0-1.1-0.1-1.50","4","2","4","3","2","5","2","4","5","5","5","1","-2","-1","1","-1","0","2","1","5","4","5","5","4","3","3","2","2","3","5","7","4","7","4","3","5","5","5","3","3","3","4","4","2","3","3","4","2","6","2","3","5","5","2","4","4","5","4","4","2","3","5","4","2","6","3","6","4","7","4","6","5","5","3","5","2","7","3","4","796469535413772289","杨","446","Female","[""好她"",""坏我"",""好我"",""坏她""]","[""强她"",""弱我"",""强我"",""弱她""]","","","","","","","","","","","","","","","","","","","","","","","","","","","","","","feedback_test","","","","","","","","",""
"619","","f","psychophysics","114","510330","0.0-8.0-1.0-1.1-0.1-0.51","4","2","4","3","2","5","2","4","5","5","5","1","-2","-1","1","-1","0","2","1","5","4","5","5","4","3","3","2","2","3","5","7","4","7","4","3","5","5","5","3","3","3","4","4","2","3","3","4","2","6","2","3","5","5","2","4","4","5","4","4","2","3","5","4","2","6","3","6","4","7","4","6","5","5","3","5","2","7","3","4","796469535413772289","杨","446","Female","[""好她"",""坏我"",""好我"",""坏她""]","[""强她"",""弱我"",""强我"",""弱她""]","","","","","","","","match","","","","","","","","","","key","f","16.669270833333332","640","356","f","true","match","img/triangle.png","强她","强她","prac_ALT2_ability","practice_ability","","","","","","","","",""
"null","<span style='color:GreenYellow; font-size: 70px;'>正确! </span>","null","html-keyboard-response","115","510833","0.0-8.0-1.0-1.1-0.1-1.51","4","2","4","3","2","5","2","4","5","5","5","1","-2","-1","1","-1","0","2","1","5","4","5","5","4","3","3","2","2","3","5","7","4","7","4","3","5","5","5","3","3","3","4","4","2","3","3","4","2","6","2","3","5","5","2","4","4","5","4","4","2","3","5","4","2","6","3","6","4","7","4","6","5","5","3","5","2","7","3","4","796469535413772289","杨","446","Female","[""好她"",""坏我"",""好我"",""坏她""]","[""强她"",""弱我"",""强我"",""弱她""]","","","","","","","","","","","","","","","","","","","","","","","","","","","","","","feedback_test","","","","","","","","",""
"816","","j","psychophysics","116","512652","0.0-8.0-1.0-1.1-0.1-0.52","4","2","4","3","2","5","2","4","5","5","5","1","-2","-1","1","-1","0","2","1","5","4","5","5","4","3","3","2","2","3","5","7","4","7","4","3","5","5","5","3","3","3","4","4","2","3","3","4","2","6","2","3","5","5","2","4","4","5","4","4","2","3","5","4","2","6","3","6","4","7","4","6","5","5","3","5","2","7","3","4","796469535413772289","杨","446","Female","[""好她"",""坏我"",""好我"",""坏她""]","[""强她"",""弱我"",""强我"",""弱她""]","","","","","","","","nonmatch","","","","","","","","","","key","j","16.67097222222246","640","356","f","false","match","img/ellipse.png","弱我","弱我","prac_ALT2_ability","practice_ability","","","","","","","","",""
"null","<span style='color:red; font-size: 70px;'>错误! </span>","null","html-keyboard-response","117","513156","0.0-8.0-1.0-1.1-0.1-1.52","4","2","4","3","2","5","2","4","5","5","5","1","-2","-1","1","-1","0","2","1","5","4","5","5","4","3","3","2","2","3","5","7","4","7","4","3","5","5","5","3","3","3","4","4","2","3","3","4","2","6","2","3","5","5","2","4","4","5","4","4","2","3","5","4","2","6","3","6","4","7","4","6","5","5","3","5","2","7","3","4","796469535413772289","杨","446","Female","[""好她"",""坏我"",""好我"",""坏她""]","[""强她"",""弱我"",""强我"",""弱她""]","","","","","","","","","","","","","","","","","","","","","","","","","","","","","","feedback_test","","","","","","","","",""
"807","","f","psychophysics","118","514965","0.0-8.0-1.0-1.1-0.1-0.53","4","2","4","3","2","5","2","4","5","5","5","1","-2","-1","1","-1","0","2","1","5","4","5","5","4","3","3","2","2","3","5","7","4","7","4","3","5","5","5","3","3","3","4","4","2","3","3","4","2","6","2","3","5","5","2","4","4","5","4","4","2","3","5","4","2","6","3","6","4","7","4","6","5","5","3","5","2","7","3","4","796469535413772289","杨","446","Female","[""好她"",""坏我"",""好我"",""坏她""]","[""强她"",""弱我"",""强我"",""弱她""]","","","","","","","","match","","","","","","","","","","key","f","16.66713084112124","640","356","f","true","match","img/ellipse.png","弱我","弱我","prac_ALT2_ability","practice_ability","","","","","","","","",""
"null","<span style='color:GreenYellow; font-size: 70px;'>正确! </span>","null","html-keyboard-response","119","515468","0.0-8.0-1.0-1.1-0.1-1.53","4","2","4","3","2","5","2","4","5","5","5","1","-2","-1","1","-1","0","2","1","5","4","5","5","4","3","3","2","2","3","5","7","4","7","4","3","5","5","5","3","3","3","4","4","2","3","3","4","2","6","2","3","5","5","2","4","4","5","4","4","2","3","5","4","2","6","3","6","4","7","4","6","5","5","3","5","2","7","3","4","796469535413772289","杨","446","Female","[""好她"",""坏我"",""好我"",""坏她""]","[""强她"",""弱我"",""强我"",""弱她""]","","","","","","","","","","","","","","","","","","","","","","","","","","","","","","feedback_test","","","","","","","","",""
"856","","f","psychophysics","120","517329","0.0-8.0-1.0-1.1-0.1-0.54","4","2","4","3","2","5","2","4","5","5","5","1","-2","-1","1","-1","0","2","1","5","4","5","5","4","3","3","2","2","3","5","7","4","7","4","3","5","5","5","3","3","3","4","4","2","3","3","4","2","6","2","3","5","5","2","4","4","5","4","4","2","3","5","4","2","6","3","6","4","7","4","6","5","5","3","5","2","7","3","4","796469535413772289","杨","446","Female","[""好她"",""坏我"",""好我"",""坏她""]","[""强她"",""弱我"",""强我"",""弱她""]","","","","","","","","match","","","","","","","","","","key","f","16.595263636363565","640","356","f","true","match","img/trapezoid.png","强我","强我","prac_ALT2_ability","practice_ability","","","","","","","","",""
"null","<span style='color:GreenYellow; font-size: 70px;'>正确! </span>","null","html-keyboard-response","121","517831","0.0-8.0-1.0-1.1-0.1-1.54","4","2","4","3","2","5","2","4","5","5","5","1","-2","-1","1","-1","0","2","1","5","4","5","5","4","3","3","2","2","3","5","7","4","7","4","3","5","5","5","3","3","3","4","4","2","3","3","4","2","6","2","3","5","5","2","4","4","5","4","4","2","3","5","4","2","6","3","6","4","7","4","6","5","5","3","5","2","7","3","4","796469535413772289","杨","446","Female","[""好她"",""坏我"",""好我"",""坏她""]","[""强她"",""弱我"",""强我"",""弱她""]","","","","","","","","","","","","","","","","","","","","","","","","","","","","","","feedback_test","","","","","","","","",""
"694","","j","psychophysics","122","519528","0.0-8.0-1.0-1.1-0.1-0.55","4","2","4","3","2","5","2","4","5","5","5","1","-2","-1","1","-1","0","2","1","5","4","5","5","4","3","3","2","2","3","5","7","4","7","4","3","5","5","5","3","3","3","4","4","2","3","3","4","2","6","2","3","5","5","2","4","4","5","4","4","2","3","5","4","2","6","3","6","4","7","4","6","5","5","3","5","2","7","3","4","796469535413772289","杨","446","Female","[""好她"",""坏我"",""好我"",""坏她""]","[""强她"",""弱我"",""强我"",""弱她""]","","","","","","","","nonmatch","","","","","","","","","","key","j","16.66923762376231","640","356","j","true","nonmatch","img/trapezoid.png","弱我","强我","prac_ALT2_ability","practice_ability","","","","","","","","",""
"null","<span style='color:GreenYellow; font-size: 70px;'>正确! </span>","null","html-keyboard-response","123","520030","0.0-8.0-1.0-1.1-0.1-1.55","4","2","4","3","2","5","2","4","5","5","5","1","-2","-1","1","-1","0","2","1","5","4","5","5","4","3","3","2","2","3","5","7","4","7","4","3","5","5","5","3","3","3","4","4","2","3","3","4","2","6","2","3","5","5","2","4","4","5","4","4","2","3","5","4","2","6","3","6","4","7","4","6","5","5","3","5","2","7","3","4","796469535413772289","杨","446","Female","[""好她"",""坏我"",""好我"",""坏她""]","[""强她"",""弱我"",""强我"",""弱她""]","","","","","","","","","","","","","","","","","","","","","","","","","","","","","","feedback_test","","","","","","","","",""
"768","","j","psychophysics","124","521802","0.0-8.0-1.0-1.1-0.1-0.56","4","2","4","3","2","5","2","4","5","5","5","1","-2","-1","1","-1","0","2","1","5","4","5","5","4","3","3","2","2","3","5","7","4","7","4","3","5","5","5","3","3","3","4","4","2","3","3","4","2","6","2","3","5","5","2","4","4","5","4","4","2","3","5","4","2","6","3","6","4","7","4","6","5","5","3","5","2","7","3","4","796469535413772289","杨","446","Female","[""好她"",""坏我"",""好我"",""坏她""]","[""强她"",""弱我"",""强我"",""弱她""]","","","","","","","","nonmatch","","","","","","","","","","key","j","16.667438095238147","640","356","j","true","nonmatch","img/trapezoid.png","强她","强我","prac_ALT2_ability","practice_ability","","","","","","","","",""
"null","<span style='color:GreenYellow; font-size: 70px;'>正确! </span>","null","html-keyboard-response","125","522306","0.0-8.0-1.0-1.1-0.1-1.56","4","2","4","3","2","5","2","4","5","5","5","1","-2","-1","1","-1","0","2","1","5","4","5","5","4","3","3","2","2","3","5","7","4","7","4","3","5","5","5","3","3","3","4","4","2","3","3","4","2","6","2","3","5","5","2","4","4","5","4","4","2","3","5","4","2","6","3","6","4","7","4","6","5","5","3","5","2","7","3","4","796469535413772289","杨","446","Female","[""好她"",""坏我"",""好我"",""坏她""]","[""强她"",""弱我"",""强我"",""弱她""]","","","","","","","","","","","","","","","","","","","","","","","","","","","","","","feedback_test","","","","","","","","",""
"674","","j","psychophysics","126","523983","0.0-8.0-1.0-1.1-0.1-0.57","4","2","4","3","2","5","2","4","5","5","5","1","-2","-1","1","-1","0","2","1","5","4","5","5","4","3","3","2","2","3","5","7","4","7","4","3","5","5","5","3","3","3","4","4","2","3","3","4","2","6","2","3","5","5","2","4","4","5","4","4","2","3","5","4","2","6","3","6","4","7","4","6","5","5","3","5","2","7","3","4","796469535413772289","杨","446","Female","[""好她"",""坏我"",""好我"",""坏她""]","[""强她"",""弱我"",""强我"",""弱她""]","","","","","","","","nonmatch","","","","","","","","","","key","j","16.66927272727304","640","356","j","true","nonmatch","img/ellipse.png","强我","弱我","prac_ALT2_ability","practice_ability","","","","","","","","",""
"null","<span style='color:GreenYellow; font-size: 70px;'>正确! </span>","null","html-keyboard-response","127","524485","0.0-8.0-1.0-1.1-0.1-1.57","4","2","4","3","2","5","2","4","5","5","5","1","-2","-1","1","-1","0","2","1","5","4","5","5","4","3","3","2","2","3","5","7","4","7","4","3","5","5","5","3","3","3","4","4","2","3","3","4","2","6","2","3","5","5","2","4","4","5","4","4","2","3","5","4","2","6","3","6","4","7","4","6","5","5","3","5","2","7","3","4","796469535413772289","杨","446","Female","[""好她"",""坏我"",""好我"",""坏她""]","[""强她"",""弱我"",""强我"",""弱她""]","","","","","","","","","","","","","","","","","","","","","","","","","","","","","","feedback_test","","","","","","","","",""
"1038","","f","psychophysics","128","526527","0.0-8.0-1.0-1.1-0.1-0.58","4","2","4","3","2","5","2","4","5","5","5","1","-2","-1","1","-1","0","2","1","5","4","5","5","4","3","3","2","2","3","5","7","4","7","4","3","5","5","5","3","3","3","4","4","2","3","3","4","2","6","2","3","5","5","2","4","4","5","4","4","2","3","5","4","2","6","3","6","4","7","4","6","5","5","3","5","2","7","3","4","796469535413772289","杨","446","Female","[""好她"",""坏我"",""好我"",""坏她""]","[""强她"",""弱我"",""强我"",""弱她""]","","","","","","","","match","","","","","","","","","","key","f","16.60921487603375","640","356","j","false","nonmatch","img/hexagon.png","强她","弱她","prac_ALT2_ability","practice_ability","","","","","","","","",""
"null","<span style='color:red; font-size: 70px;'>错误! </span>","null","html-keyboard-response","129","527029","0.0-8.0-1.0-1.1-0.1-1.58","4","2","4","3","2","5","2","4","5","5","5","1","-2","-1","1","-1","0","2","1","5","4","5","5","4","3","3","2","2","3","5","7","4","7","4","3","5","5","5","3","3","3","4","4","2","3","3","4","2","6","2","3","5","5","2","4","4","5","4","4","2","3","5","4","2","6","3","6","4","7","4","6","5","5","3","5","2","7","3","4","796469535413772289","杨","446","Female","[""好她"",""坏我"",""好我"",""坏她""]","[""强她"",""弱我"",""强我"",""弱她""]","","","","","","","","","","","","","","","","","","","","","","","","","","","","","","feedback_test","","","","","","","","",""
"530","","f","psychophysics","130","528562","0.0-8.0-1.0-1.1-0.1-0.59","4","2","4","3","2","5","2","4","5","5","5","1","-2","-1","1","-1","0","2","1","5","4","5","5","4","3","3","2","2","3","5","7","4","7","4","3","5","5","5","3","3","3","4","4","2","3","3","4","2","6","2","3","5","5","2","4","4","5","4","4","2","3","5","4","2","6","3","6","4","7","4","6","5","5","3","5","2","7","3","4","796469535413772289","杨","446","Female","[""好她"",""坏我"",""好我"",""坏她""]","[""强她"",""弱我"",""强我"",""弱她""]","","","","","","","","match","","","","","","","","","","key","f","16.668956043956044","640","356","j","false","nonmatch","img/triangle.png","弱她","强她","prac_ALT2_ability","practice_ability","","","","","","","","",""
"null","<span style='color:red; font-size: 70px;'>错误! </span>","null","html-keyboard-response","131","529064","0.0-8.0-1.0-1.1-0.1-1.59","4","2","4","3","2","5","2","4","5","5","5","1","-2","-1","1","-1","0","2","1","5","4","5","5","4","3","3","2","2","3","5","7","4","7","4","3","5","5","5","3","3","3","4","4","2","3","3","4","2","6","2","3","5","5","2","4","4","5","4","4","2","3","5","4","2","6","3","6","4","7","4","6","5","5","3","5","2","7","3","4","796469535413772289","杨","446","Female","[""好她"",""坏我"",""好我"",""坏她""]","[""强她"",""弱我"",""强我"",""弱她""]","","","","","","","","","","","","","","","","","","","","","","","","","","","","","","feedback_test","","","","","","","","",""
"636","","j","psychophysics","132","530701","0.0-8.0-1.0-1.1-0.1-0.60","4","2","4","3","2","5","2","4","5","5","5","1","-2","-1","1","-1","0","2","1","5","4","5","5","4","3","3","2","2","3","5","7","4","7","4","3","5","5","5","3","3","3","4","4","2","3","3","4","2","6","2","3","5","5","2","4","4","5","4","4","2","3","5","4","2","6","3","6","4","7","4","6","5","5","3","5","2","7","3","4","796469535413772289","杨","446","Female","[""好她"",""坏我"",""好我"",""坏她""]","[""强她"",""弱我"",""强我"",""弱她""]","","","","","","","","nonmatch","","","","","","","","","","key","j","16.66867010309193","640","356","j","true","nonmatch","img/triangle.png","弱我","强她","prac_ALT2_ability","practice_ability","","","","","","","","",""
"null","<span style='color:GreenYellow; font-size: 70px;'>正确! </span>","null","html-keyboard-response","133","531206","0.0-8.0-1.0-1.1-0.1-1.60","4","2","4","3","2","5","2","4","5","5","5","1","-2","-1","1","-1","0","2","1","5","4","5","5","4","3","3","2","2","3","5","7","4","7","4","3","5","5","5","3","3","3","4","4","2","3","3","4","2","6","2","3","5","5","2","4","4","5","4","4","2","3","5","4","2","6","3","6","4","7","4","6","5","5","3","5","2","7","3","4","796469535413772289","杨","446","Female","[""好她"",""坏我"",""好我"",""坏她""]","[""强她"",""弱我"",""强我"",""弱她""]","","","","","","","","","","","","","","","","","","","","","","","","","","","","","","feedback_test","","","","","","","","",""
"897","","f","psychophysics","134","533106","0.0-8.0-1.0-1.1-0.1-0.61","4","2","4","3","2","5","2","4","5","5","5","1","-2","-1","1","-1","0","2","1","5","4","5","5","4","3","3","2","2","3","5","7","4","7","4","3","5","5","5","3","3","3","4","4","2","3","3","4","2","6","2","3","5","5","2","4","4","5","4","4","2","3","5","4","2","6","3","6","4","7","4","6","5","5","3","5","2","7","3","4","796469535413772289","杨","446","Female","[""好她"",""坏我"",""好我"",""坏她""]","[""强她"",""弱我"",""强我"",""弱她""]","","","","","","","","match","","","","","","","","","","key","f","16.668831858406897","640","356","f","true","match","img/hexagon.png","弱她","弱她","prac_ALT2_ability","practice_ability","","","","","","","","",""
"null","<span style='color:GreenYellow; font-size: 70px;'>正确! </span>","null","html-keyboard-response","135","533610","0.0-8.0-1.0-1.1-0.1-1.61","4","2","4","3","2","5","2","4","5","5","5","1","-2","-1","1","-1","0","2","1","5","4","5","5","4","3","3","2","2","3","5","7","4","7","4","3","5","5","5","3","3","3","4","4","2","3","3","4","2","6","2","3","5","5","2","4","4","5","4","4","2","3","5","4","2","6","3","6","4","7","4","6","5","5","3","5","2","7","3","4","796469535413772289","杨","446","Female","[""好她"",""坏我"",""好我"",""坏她""]","[""强她"",""弱我"",""强我"",""弱她""]","","","","","","","","","","","","","","","","","","","","","","","","","","","","","","feedback_test","","","","","","","","",""
"595","","f","psychophysics","136","535209","0.0-8.0-1.0-1.1-0.1-0.62","4","2","4","3","2","5","2","4","5","5","5","1","-2","-1","1","-1","0","2","1","5","4","5","5","4","3","3","2","2","3","5","7","4","7","4","3","5","5","5","3","3","3","4","4","2","3","3","4","2","6","2","3","5","5","2","4","4","5","4","4","2","3","5","4","2","6","3","6","4","7","4","6","5","5","3","5","2","7","3","4","796469535413772289","杨","446","Female","[""好她"",""坏我"",""好我"",""坏她""]","[""强她"",""弱我"",""强我"",""弱她""]","","","","","","","","match","","","","","","","","","","key","f","16.668505263158217","640","356","f","true","match","img/triangle.png","强她","强她","prac_ALT2_ability","practice_ability","","","","","","","","",""
