"rt","stimulus","response","trial_type","trial_index","time_elapsed","internal_node_id","swb_1","swb_2","swb_3","swb_4","swb_5","LOT_1","LOT_2","LOT_3","LOT_4","LOT_5","LOT_6","IPC_1","IPC_2","IPC_3","IPC_4","IPC_5","IPC_6","IPC_7","IPC_8","MorIden_1","MorIden_2","MorIden_3","MorIden_4","MorIden_5","MorIden_6","MorIden_7","MorIden_8","MorIden_9","MorIden_10","moralSeImag_1","moralSeImag_2","moralSeImag_3","moralSeImag_4","moralSeImag_5","moralSeImag_6","moralSeImag_7","moralSeImag_8","moralSeImag_9","sde_1","sde_2","sde_3","sde_4","sde_5","sde_6","sde_7","sde_8","sde_9","sde_10","trap2","sde_11","sde_12","sde_13","sde_14","sde_15","sde_16","sde_17","sde_18","sde_19","sde_20","IM_1","IM_2","IM_3","IM_4","IM_5","IM_6","IM_7","IM_8","IM_9","IM_10","IM_11","IM_12","IM_13","IM_14","IM_15","IM_16","IM_17","IM_18","IM_19","IM_20","subj_idx","friend_name","ParticipantID","Sex","Word","Word2","value","success","timeout","failed_images","failed_audio","failed_video","user_agent","responses","item_order","radio_event_ids","radio_event_times","key_event_times","mouse_event_times","straightlining","zigzagging","honeypot","task_id","screen_id","time_stamp","response_type","key_press","avg_frame_time","center_x","center_y","person","word","valence","domain","math","correct_response","correct","status","view_history","identity","duration","Image","condition","question_order","trap2_item"
"1719","
   <p><div style='color:white; font-size: 25px'>您好，欢迎参加本次实验。</div></p>
   <p><div style='color:white; font-size: 25px'>为充分保障您的权利，请确保您已经知晓并同意《参与实验同意书》以及《数据公开知情同意书》。</div></p>
   <p><div style='color:white; font-size: 25px'>如果您未见过上述内容，请咨询实验员。</div></p>
   <p style='color:white; font-size: 25px'>如果您选择继续实验，则表示您已经清楚两份知情同意书的内容并同意。</p>
   <p><div style = ""color: pink;font-size:30px;"">请确保您记得day0的实验编号，您将在本次实验输入该编号，若您忘记，请咨询实验员后作答。</div></p>
   <p><div style = ""color:lightblue;font-size:25px;"">请您尽可能认真地作答，我们将依据您在各问卷和按键任务中的作答质量发放报酬。</div></p>
   <p> <div style = ""color: green""><按空格键至下页></div> </p>
   "," ","html-keyboard-response","0","1722","0.0-0.0","6","5","7","7","6","5","4","5","5","5","5","2","-2","2","1","1","2","0","2","5","5","5","4","5","4","5","5","4","5","7","8","7","8","7","7","6","8","7","7","6","2","7","7","5","7","1","6","6","1","6","3","7","6","5","7","6","2","2","7","3","6","2","2","3","7","5","7","7","7","7","3","4","1","2","7","7","6","5","7","634477074911854592","李","308","Male","[""坏他"",""坏我"",""好我"",""好他""]","[""弱他"",""弱我"",""强我"",""强他""]","","","","","","","","","","","","","","","","","","","","","","","","","","","","","","","","","","","","","","",""
"","","","call-function","1","1723","0.0-1.0-0.0","6","5","7","7","6","5","4","5","5","5","5","2","-2","2","1","1","2","0","2","5","5","5","4","5","4","5","5","4","5","7","8","7","8","7","7","6","8","7","7","6","2","7","7","5","7","1","6","6","1","6","3","7","6","5","7","6","2","2","7","3","6","2","2","3","7","5","7","7","7","7","3","4","1","2","7","7","6","5","7","634477074911854592","李","308","Male","[""坏他"",""坏我"",""好我"",""好他""]","[""弱他"",""弱我"",""强我"",""强他""]","","","","","","","","","","","","","","","","","","","","","","","","","","","","","","","","","","","","","","",""
"65795","","[{""name"":""Sex"",""value"":""0""},{""name"":""friend_name"",""value"":""李""},{""name"":""ParticipantID"",""value"":""308""}]","survey-html-form","2","67523","0.0-1.0-1.0","6","5","7","7","6","5","4","5","5","5","5","2","-2","2","1","1","2","0","2","5","5","5","4","5","4","5","5","4","5","7","8","7","8","7","7","6","8","7","7","6","2","7","7","5","7","1","6","6","1","6","3","7","6","5","7","6","2","2","7","3","6","2","2","3","7","5","7","7","7","7","3","4","1","2","7","7","6","5","7","634477074911854592","李","308","Male","[""坏他"",""坏我"",""好我"",""好他""]","[""弱他"",""弱我"",""强我"",""强他""]","","","","","","","","","","","","","","","","","","","","","","","","","","","","","","","","","","","","","","",""
"","","","preload","3","67846","0.0-2.0","6","5","7","7","6","5","4","5","5","5","5","2","-2","2","1","1","2","0","2","5","5","5","4","5","4","5","5","4","5","7","8","7","8","7","7","6","8","7","7","6","2","7","7","5","7","1","6","6","1","6","3","7","6","5","7","6","2","2","7","3","6","2","2","3","7","5","7","7","7","7","3","4","1","2","7","7","6","5","7","634477074911854592","李","308","Male","[""坏他"",""坏我"",""好我"",""好他""]","[""弱他"",""弱我"",""强我"",""强他""]","","true","false","[]","[]","[]","","","","","","","","","","","","","","","","","","","","","","","","","","","","","","","","",""
"","","","fullscreen","4","72610","0.0-3.0","6","5","7","7","6","5","4","5","5","5","5","2","-2","2","1","1","2","0","2","5","5","5","4","5","4","5","5","4","5","7","8","7","8","7","7","6","8","7","7","6","2","7","7","5","7","1","6","6","1","6","3","7","6","5","7","6","2","2","7","3","6","2","2","3","7","5","7","7","7","7","3","4","1","2","7","7","6","5","7","634477074911854592","李","308","Male","[""坏他"",""坏我"",""好我"",""好他""]","[""弱他"",""弱我"",""强我"",""强他""]","","true","","","","","{}","","","","","","","","","","","","","","","","","","","","","","","","","","","","","","","",""
"17521.59999999404","","{""Q01"":""6"",""Q02"":""5"",""Q03"":""7"",""Q04"":""7"",""Q05"":""6""}","survey-template","5","90135","0.0-4.0","6","5","7","7","6","5","4","5","5","5","5","2","-2","2","1","1","2","0","2","5","5","5","4","5","4","5","5","4","5","7","8","7","8","7","7","6","8","7","7","6","2","7","7","5","7","1","6","6","1","6","3","7","6","5","7","6","2","2","7","3","6","2","2","3","7","5","7","7","7","7","3","4","1","2","7","7","6","5","7","634477074911854592","李","308","Male","[""坏他"",""坏我"",""好我"",""好他""]","[""弱他"",""弱我"",""强我"",""强他""]","","","","","","","","{""Q01"":""6"",""Q02"":""5"",""Q03"":""7"",""Q04"":""7"",""Q05"":""6""}","[0,1,2,3,4]","[""Q01"",""Q02"",""Q03"",""Q04"",""Q05""]","[3771.5999999940395,4921.70000000298,6443.5,7145.399999991059,15224.59999999404]","[]","[721.8999999910593,3771.5999999940395,4921.70000000298,6443.5,7145.399999991059,15224.59999999404,16422.70000000298,17520.70000000298]","0.4","0.5","0","","","","","","","","","","","","","","","","","","","","","","",""
"46754.40000000596","","{""Q01"":""5"",""Q02"":""4"",""Q03"":""5"",""Q04"":""5"",""Q05"":""5"",""Q06"":""5""}","survey-template","6","136899","0.0-5.0","6","5","7","7","6","5","4","5","5","5","5","2","-2","2","1","1","2","0","2","5","5","5","4","5","4","5","5","4","5","7","8","7","8","7","7","6","8","7","7","6","2","7","7","5","7","1","6","6","1","6","3","7","6","5","7","6","2","2","7","3","6","2","2","3","7","5","7","7","7","7","3","4","1","2","7","7","6","5","7","634477074911854592","李","308","Male","[""坏他"",""坏我"",""好我"",""好他""]","[""弱他"",""弱我"",""强我"",""强他""]","","","","","","","","{""Q01"":""5"",""Q02"":""4"",""Q03"":""5"",""Q04"":""5"",""Q05"":""5"",""Q06"":""5""}","[0,1,2,3,4,5]","[""Q01"",""Q02"",""Q03"",""Q04"",""Q05"",""Q06""]","[2295.0999999940395,9454.29999999702,10614.5,12247.20000000298,13646.29999999702,17106]","[]","[675,2295.0999999940395,9454.29999999702,10614.5,12247.20000000298,13646.29999999702,14300.40000000596,16772.29999999702,17106,17528.40000000596,18684,23287.5,46753.70000000298]","0.5","0.4","0","","","","","","","","","","","","","","","","","","","","","","",""
"35453.5","","{""Q01"":""2"",""Q02"":""-2"",""Q03"":""2"",""Q04"":""1"",""Q05"":""1"",""Q06"":""2"",""Q07"":""0"",""Q08"":""2""}","survey-template","7","172360","0.0-6.0","6","5","7","7","6","5","4","5","5","5","5","2","-2","2","1","1","2","0","2","5","5","5","4","5","4","5","5","4","5","7","8","7","8","7","7","6","8","7","7","6","2","7","7","5","7","1","6","6","1","6","3","7","6","5","7","6","2","2","7","3","6","2","2","3","7","5","7","7","7","7","3","4","1","2","7","7","6","5","7","634477074911854592","李","308","Male","[""坏他"",""坏我"",""好我"",""好他""]","[""弱他"",""弱我"",""强我"",""强他""]","","","","","","","","{""Q01"":""2"",""Q02"":""-2"",""Q03"":""2"",""Q04"":""1"",""Q05"":""1"",""Q06"":""2"",""Q07"":""0"",""Q08"":""2""}","[0,1,2,3,4,5,6,7]","[""Q01"",""Q01"",""Q02"",""Q03"",""Q04"",""Q06"",""Q05"",""Q07"",""Q08""]","[2679,8348.59999999404,11296.39999999106,13864.20000000298,16371.79999999702,18777.5,19481.59999999404,24067.29999999702,34508.70000000298]","[]","[976.8999999910593,2679,8348.59999999404,11296.39999999106,13864.20000000298,15210.29999999702,15969.79999999702,16371.79999999702,16848.09999999404,17378.20000000298,18777.5,19481.59999999404,20042,24067.29999999702,25279.5,28201,34508.70000000298,35022.79999999702,35452.70000000298]","0.5","0.2857142857142857","0","","","","","","","","","","","","","","","","","","","","","","",""
"36716","
    <p><div style='color:white;font-size:35px; line-height:20px;'>词汇评估任务</div></p><br>
    <p><div style='color:white;font-size:25px; line-height:20px;'>请再次回忆该亲密的朋友，你们至少2年前就认识了，并且最近2年经常见面。</div></p>
    <p><div style='color:white;font-size:25px; line-height:20px;'>在本实验中，您将会看到一些形容词。</div></p>
    <p><div style='color:yellow;font-size:25px; line-height:20px;'>您的任务是判断这些形容词是否符合对您自己或您的朋友的描述。</div></p><p style='font-size:35px'>符合按<span style=""color:lightgreen""> f 键</span>，不符合按<span style=""color:red""> j 键</span></p>","0","html-button-response","8","209080","0.0-7.0-0.0","6","5","7","7","6","5","4","5","5","5","5","2","-2","2","1","1","2","0","2","5","5","5","4","5","4","5","5","4","5","7","8","7","8","7","7","6","8","7","7","6","2","7","7","5","7","1","6","6","1","6","3","7","6","5","7","6","2","2","7","3","6","2","2","3","7","5","7","7","7","7","3","4","1","2","7","7","6","5","7","634477074911854592","李","308","Male","[""坏他"",""坏我"",""好我"",""好他""]","[""弱他"",""弱我"",""强我"",""强他""]","","","","","","","","","","","","","","","","","SRET_EW","EW_instructions","Wed Jan 10 2024 17:21:15 GMT+0800 (中国标准时间)","","","","","","","","","","","","","","","","","","","",""
"null","","null","psychophysics","9","212088","0.0-7.0-1.0-0.0","6","5","7","7","6","5","4","5","5","5","5","2","-2","2","1","1","2","0","2","5","5","5","4","5","4","5","5","4","5","7","8","7","8","7","7","6","8","7","7","6","2","7","7","5","7","1","6","6","1","6","3","7","6","5","7","6","2","2","7","3","6","2","2","3","7","5","7","7","7","7","3","4","1","2","7","7","6","5","7","634477074911854592","李","308","Male","[""坏他"",""坏我"",""好我"",""好他""]","[""弱他"",""弱我"",""强我"",""强他""]","","","","","","","","","","","","","","","","","SRET_EW","EW_practice","","key","null","17.336471264367827","768","428","自己","刻板","Negative","ability","","","","","","","","","","",""
"829","","f","psychophysics","10","213919","0.0-7.0-1.0-0.1","6","5","7","7","6","5","4","5","5","5","5","2","-2","2","1","1","2","0","2","5","5","5","4","5","4","5","5","4","5","7","8","7","8","7","7","6","8","7","7","6","2","7","7","5","7","1","6","6","1","6","3","7","6","5","7","6","2","2","7","3","6","2","2","3","7","5","7","7","7","7","3","4","1","2","7","7","6","5","7","634477074911854592","李","308","Male","[""坏他"",""坏我"",""好我"",""好他""]","[""弱他"",""弱我"",""强我"",""强他""]","","","","","","","","yes","","","","","","","","","SRET_EW","EW_practice","","key","f","17.300895238095073","768","428","朋友","忠实","Positive","morality","","","","","","","","","","",""
"1028","","f","psychophysics","11","215948","0.0-7.0-1.0-0.2","6","5","7","7","6","5","4","5","5","5","5","2","-2","2","1","1","2","0","2","5","5","5","4","5","4","5","5","4","5","7","8","7","8","7","7","6","8","7","7","6","2","7","7","5","7","1","6","6","1","6","3","7","6","5","7","6","2","2","7","3","6","2","2","3","7","5","7","7","7","7","3","4","1","2","7","7","6","5","7","634477074911854592","李","308","Male","[""坏他"",""坏我"",""好我"",""好他""]","[""弱他"",""弱我"",""强我"",""强他""]","","","","","","","","yes","","","","","","","","","SRET_EW","EW_practice","","key","f","16.946100840335976","768","428","自己","严谨","Positive","ability","","","","","","","","","","",""
"1040","","f","psychophysics","12","217995","0.0-7.0-1.0-0.3","6","5","7","7","6","5","4","5","5","5","5","2","-2","2","1","1","2","0","2","5","5","5","4","5","4","5","5","4","5","7","8","7","8","7","7","6","8","7","7","6","2","7","7","5","7","1","6","6","1","6","3","7","6","5","7","6","2","2","7","3","6","2","2","3","7","5","7","7","7","7","3","4","1","2","7","7","6","5","7","634477074911854592","李","308","Male","[""坏他"",""坏我"",""好我"",""好他""]","[""弱他"",""弱我"",""强我"",""强他""]","","","","","","","","yes","","","","","","","","","SRET_EW","EW_practice","","key","f","16.94610084033622","768","428","朋友","徇私","Negative","morality","","","","","","","","","","",""
"56383","
    <p><div style='color:white;font-size:35px; line-height:20px;'>请您再次阅读实验要求</div></p><br>
    <p><div style='color:white;font-size:25px; line-height:20px;'>请回忆某一个亲密的朋友，你们至少2年前就认识了，并且最近2年经常见面。</div></p>
    <p><div style='color:white;font-size:25px; line-height:20px;'>在本实验中，您将会看到一些形容词。</div></p>
    <p><div style='color:yellow;font-size:25px; line-height:20px;'>您的任务是判断这些形容词是否符合对您自己或您的朋友的描述。</div></p>
    <p><div class='footer' style='font-size:25px; line-height:20px;'>如果对本实验还有不清楚之处，请立即向实验员咨询。</p><p style='font-size:25px; line-height:20px;'>如果您明白了规则：</p><p style='font-size:22px; line-height:20px;'>请按 继续 进入正式实验</p>
    </div>
    <p style='font-size:35px'>符合按<span style=""color:lightgreen""> f 键</span>，不符合按<span style=""color:red""> j 键</span></p>","0","html-button-response","13","274379","0.0-7.0-2.0","6","5","7","7","6","5","4","5","5","5","5","2","-2","2","1","1","2","0","2","5","5","5","4","5","4","5","5","4","5","7","8","7","8","7","7","6","8","7","7","6","2","7","7","5","7","1","6","6","1","6","3","7","6","5","7","6","2","2","7","3","6","2","2","3","7","5","7","7","7","7","3","4","1","2","7","7","6","5","7","634477074911854592","李","308","Male","[""坏他"",""坏我"",""好我"",""好他""]","[""弱他"",""弱我"",""强我"",""强他""]","","","","","","","","","","","","","","","","","SRET_EW","prac_instructions","Wed Jan 10 2024 17:21:15 GMT+0800 (中国标准时间)","","","","","","","","","","","","","","","","","","","",""
"1896","","j","psychophysics","14","277276","0.0-7.0-3.0-0.0","6","5","7","7","6","5","4","5","5","5","5","2","-2","2","1","1","2","0","2","5","5","5","4","5","4","5","5","4","5","7","8","7","8","7","7","6","8","7","7","6","2","7","7","5","7","1","6","6","1","6","3","7","6","5","7","6","2","2","7","3","6","2","2","3","7","5","7","7","7","7","3","4","1","2","7","7","6","5","7","634477074911854592","李","308","Male","[""坏他"",""坏我"",""好我"",""好他""]","[""弱他"",""弱我"",""强我"",""强他""]","","","","","","","","no","","","","","","","","","SRET","EW_formal","","key","j","16.859790697674196","768","428","朋友","迷糊","Negative","ability","","","","","","","","","","",""
"1397","","j","psychophysics","15","279679","0.0-7.0-3.0-0.1","6","5","7","7","6","5","4","5","5","5","5","2","-2","2","1","1","2","0","2","5","5","5","4","5","4","5","5","4","5","7","8","7","8","7","7","6","8","7","7","6","2","7","7","5","7","1","6","6","1","6","3","7","6","5","7","6","2","2","7","3","6","2","2","3","7","5","7","7","7","7","3","4","1","2","7","7","6","5","7","634477074911854592","李","308","Male","[""坏他"",""坏我"",""好我"",""好他""]","[""弱他"",""弱我"",""强我"",""强他""]","","","","","","","","no","","","","","","","","","SRET","EW_formal","","key","j","17.023128571428657","768","428","自己","说谎","Negative","morality","","","","","","","","","","",""
"1251","","f","psychophysics","16","281931","0.0-7.0-3.0-0.2","6","5","7","7","6","5","4","5","5","5","5","2","-2","2","1","1","2","0","2","5","5","5","4","5","4","5","5","4","5","7","8","7","8","7","7","6","8","7","7","6","2","7","7","5","7","1","6","6","1","6","3","7","6","5","7","6","2","2","7","3","6","2","2","3","7","5","7","7","7","7","3","4","1","2","7","7","6","5","7","634477074911854592","李","308","Male","[""坏他"",""坏我"",""好我"",""好他""]","[""弱他"",""弱我"",""强我"",""强他""]","","","","","","","","yes","","","","","","","","","SRET","EW_formal","","key","f","17.04766412213745","768","428","朋友","务实","Positive","ability","","","","","","","","","","",""
"1351","","f","psychophysics","17","284283","0.0-7.0-3.0-0.3","6","5","7","7","6","5","4","5","5","5","5","2","-2","2","1","1","2","0","2","5","5","5","4","5","4","5","5","4","5","7","8","7","8","7","7","6","8","7","7","6","2","7","7","5","7","1","6","6","1","6","3","7","6","5","7","6","2","2","7","3","6","2","2","3","7","5","7","7","7","7","3","4","1","2","7","7","6","5","7","634477074911854592","李","308","Male","[""坏他"",""坏我"",""好我"",""好他""]","[""弱他"",""弱我"",""强我"",""强他""]","","","","","","","","yes","","","","","","","","","SRET","EW_formal","","key","f","16.90753623188399","768","428","自己","坚贞","Positive","morality","","","","","","","","","","",""
"1258","","f","psychophysics","18","286543","0.0-7.0-3.0-0.4","6","5","7","7","6","5","4","5","5","5","5","2","-2","2","1","1","2","0","2","5","5","5","4","5","4","5","5","4","5","7","8","7","8","7","7","6","8","7","7","6","2","7","7","5","7","1","6","6","1","6","3","7","6","5","7","6","2","2","7","3","6","2","2","3","7","5","7","7","7","7","3","4","1","2","7","7","6","5","7","634477074911854592","李","308","Male","[""坏他"",""坏我"",""好我"",""好他""]","[""弱他"",""弱我"",""强我"",""强他""]","","","","","","","","yes","","","","","","","","","SRET","EW_formal","","key","f","17.044772727272974","768","428","自己","慈悲","Positive","morality","","","","","","","","","","",""
"1533","","j","psychophysics","19","289078","0.0-7.0-3.0-0.5","6","5","7","7","6","5","4","5","5","5","5","2","-2","2","1","1","2","0","2","5","5","5","4","5","4","5","5","4","5","7","8","7","8","7","7","6","8","7","7","6","2","7","7","5","7","1","6","6","1","6","3","7","6","5","7","6","2","2","7","3","6","2","2","3","7","5","7","7","7","7","3","4","1","2","7","7","6","5","7","634477074911854592","李","308","Male","[""坏他"",""坏我"",""好我"",""好他""]","[""弱他"",""弱我"",""强我"",""强他""]","","","","","","","","no","","","","","","","","","SRET","EW_formal","","key","j","16.88970469798691","768","428","朋友","无耻","Negative","morality","","","","","","","","","","",""
"1166","","j","psychophysics","20","291245","0.0-7.0-3.0-0.6","6","5","7","7","6","5","4","5","5","5","5","2","-2","2","1","1","2","0","2","5","5","5","4","5","4","5","5","4","5","7","8","7","8","7","7","6","8","7","7","6","2","7","7","5","7","1","6","6","1","6","3","7","6","5","7","6","2","2","7","3","6","2","2","3","7","5","7","7","7","7","3","4","1","2","7","7","6","5","7","634477074911854592","李","308","Male","[""坏他"",""坏我"",""好我"",""好他""]","[""弱他"",""弱我"",""强我"",""强他""]","","","","","","","","no","","","","","","","","","SRET","EW_formal","","key","j","16.928456692913304","768","428","朋友","愚蠢","Negative","ability","","","","","","","","","","",""
"1021","","j","psychophysics","21","293267","0.0-7.0-3.0-0.7","6","5","7","7","6","5","4","5","5","5","5","2","-2","2","1","1","2","0","2","5","5","5","4","5","4","5","5","4","5","7","8","7","8","7","7","6","8","7","7","6","2","7","7","5","7","1","6","6","1","6","3","7","6","5","7","6","2","2","7","3","6","2","2","3","7","5","7","7","7","7","3","4","1","2","7","7","6","5","7","634477074911854592","李","308","Male","[""坏他"",""坏我"",""好我"",""好他""]","[""弱他"",""弱我"",""强我"",""强他""]","","","","","","","","no","","","","","","","","","SRET","EW_formal","","key","j","16.94847457627105","768","428","朋友","罪恶","Negative","morality","","","","","","","","","","",""
"1520","","f","psychophysics","22","295789","0.0-7.0-3.0-0.8","6","5","7","7","6","5","4","5","5","5","5","2","-2","2","1","1","2","0","2","5","5","5","4","5","4","5","5","4","5","7","8","7","8","7","7","6","8","7","7","6","2","7","7","5","7","1","6","6","1","6","3","7","6","5","7","6","2","2","7","3","6","2","2","3","7","5","7","7","7","7","3","4","1","2","7","7","6","5","7","634477074911854592","李","308","Male","[""坏他"",""坏我"",""好我"",""好他""]","[""弱他"",""弱我"",""强我"",""强他""]","","","","","","","","yes","","","","","","","","","SRET","EW_formal","","key","f","17.006122448979355","768","428","朋友","清廉","Positive","morality","","","","","","","","","","",""
"1187","","f","psychophysics","23","297978","0.0-7.0-3.0-0.9","6","5","7","7","6","5","4","5","5","5","5","2","-2","2","1","1","2","0","2","5","5","5","4","5","4","5","5","4","5","7","8","7","8","7","7","6","8","7","7","6","2","7","7","5","7","1","6","6","1","6","3","7","6","5","7","6","2","2","7","3","6","2","2","3","7","5","7","7","7","7","3","4","1","2","7","7","6","5","7","634477074911854592","李","308","Male","[""坏他"",""坏我"",""好我"",""好他""]","[""弱他"",""弱我"",""强我"",""强他""]","","","","","","","","yes","","","","","","","","","SRET","EW_formal","","key","f","16.924387596899106","768","428","自己","学霸","Positive","ability","","","","","","","","","","",""
"1239","","j","psychophysics","24","300218","0.0-7.0-3.0-0.10","6","5","7","7","6","5","4","5","5","5","5","2","-2","2","1","1","2","0","2","5","5","5","4","5","4","5","5","4","5","7","8","7","8","7","7","6","8","7","7","6","2","7","7","5","7","1","6","6","1","6","3","7","6","5","7","6","2","2","7","3","6","2","2","3","7","5","7","7","7","7","3","4","1","2","7","7","6","5","7","634477074911854592","李","308","Male","[""坏他"",""坏我"",""好我"",""好他""]","[""弱他"",""弱我"",""强我"",""强他""]","","","","","","","","no","","","","","","","","","SRET","EW_formal","","key","j","16.920442748091446","768","428","朋友","狡诈","Negative","morality","","","","","","","","","","",""
"1382","","j","psychophysics","25","302601","0.0-7.0-3.0-0.11","6","5","7","7","6","5","4","5","5","5","5","2","-2","2","1","1","2","0","2","5","5","5","4","5","4","5","5","4","5","7","8","7","8","7","7","6","8","7","7","6","2","7","7","5","7","1","6","6","1","6","3","7","6","5","7","6","2","2","7","3","6","2","2","3","7","5","7","7","7","7","3","4","1","2","7","7","6","5","7","634477074911854592","李","308","Male","[""坏他"",""坏我"",""好我"",""好他""]","[""弱他"",""弱我"",""强我"",""强他""]","","","","","","","","no","","","","","","","","","SRET","EW_formal","","key","j","16.90408571428561","768","428","自己","狡狯","Negative","morality","","","","","","","","","","",""
"1794","","f","psychophysics","26","305397","0.0-7.0-3.0-0.12","6","5","7","7","6","5","4","5","5","5","5","2","-2","2","1","1","2","0","2","5","5","5","4","5","4","5","5","4","5","7","8","7","8","7","7","6","8","7","7","6","2","7","7","5","7","1","6","6","1","6","3","7","6","5","7","6","2","2","7","3","6","2","2","3","7","5","7","7","7","7","3","4","1","2","7","7","6","5","7","634477074911854592","李","308","Male","[""坏他"",""坏我"",""好我"",""好他""]","[""弱他"",""弱我"",""强我"",""强他""]","","","","","","","","yes","","","","","","","","","SRET","EW_formal","","key","f","16.868012121212175","768","428","朋友","短视","Negative","ability","","","","","","","","","","",""
"1117","","j","psychophysics","27","307514","0.0-7.0-3.0-0.13","6","5","7","7","6","5","4","5","5","5","5","2","-2","2","1","1","2","0","2","5","5","5","4","5","4","5","5","4","5","7","8","7","8","7","7","6","8","7","7","6","2","7","7","5","7","1","6","6","1","6","3","7","6","5","7","6","2","2","7","3","6","2","2","3","7","5","7","7","7","7","3","4","1","2","7","7","6","5","7","634477074911854592","李","308","Male","[""坏他"",""坏我"",""好我"",""好他""]","[""弱他"",""弱我"",""强我"",""强他""]","","","","","","","","no","","","","","","","","","SRET","EW_formal","","key","j","16.934806451612648","768","428","自己","卑鄙","Negative","morality","","","","","","","","","","",""
"1421","","j","psychophysics","28","309937","0.0-7.0-3.0-0.14","6","5","7","7","6","5","4","5","5","5","5","2","-2","2","1","1","2","0","2","5","5","5","4","5","4","5","5","4","5","7","8","7","8","7","7","6","8","7","7","6","2","7","7","5","7","1","6","6","1","6","3","7","6","5","7","6","2","2","7","3","6","2","2","3","7","5","7","7","7","7","3","4","1","2","7","7","6","5","7","634477074911854592","李","308","Male","[""坏他"",""坏我"",""好我"",""好他""]","[""弱他"",""弱我"",""强我"",""强他""]","","","","","","","","no","","","","","","","","","SRET","EW_formal","","key","j","16.90073239436606","768","428","朋友","厚道","Positive","morality","","","","","","","","","","",""
"1174","","j","psychophysics","29","312113","0.0-7.0-3.0-0.15","6","5","7","7","6","5","4","5","5","5","5","2","-2","2","1","1","2","0","2","5","5","5","4","5","4","5","5","4","5","7","8","7","8","7","7","6","8","7","7","6","2","7","7","5","7","1","6","6","1","6","3","7","6","5","7","6","2","2","7","3","6","2","2","3","7","5","7","7","7","7","3","4","1","2","7","7","6","5","7","634477074911854592","李","308","Male","[""坏他"",""坏我"",""好我"",""好他""]","[""弱他"",""弱我"",""强我"",""强他""]","","","","","","","","no","","","","","","","","","SRET","EW_formal","","key","j","16.926406249999673","768","428","自己","阴毒","Negative","morality","","","","","","","","","","",""
"1348","","f","psychophysics","30","314462","0.0-7.0-3.0-0.16","6","5","7","7","6","5","4","5","5","5","5","2","-2","2","1","1","2","0","2","5","5","5","4","5","4","5","5","4","5","7","8","7","8","7","7","6","8","7","7","6","2","7","7","5","7","1","6","6","1","6","3","7","6","5","7","6","2","2","7","3","6","2","2","3","7","5","7","7","7","7","3","4","1","2","7","7","6","5","7","634477074911854592","李","308","Male","[""坏他"",""坏我"",""好我"",""好他""]","[""弱他"",""弱我"",""强我"",""强他""]","","","","","","","","yes","","","","","","","","","SRET","EW_formal","","key","f","16.90753623188399","768","428","朋友","顶事","Positive","ability","","","","","","","","","","",""
"1434","","f","psychophysics","31","316898","0.0-7.0-3.0-0.17","6","5","7","7","6","5","4","5","5","5","5","2","-2","2","1","1","2","0","2","5","5","5","4","5","4","5","5","4","5","7","8","7","8","7","7","6","8","7","7","6","2","7","7","5","7","1","6","6","1","6","3","7","6","5","7","6","2","2","7","3","6","2","2","3","7","5","7","7","7","7","3","4","1","2","7","7","6","5","7","634477074911854592","李","308","Male","[""坏他"",""坏我"",""好我"",""好他""]","[""弱他"",""弱我"",""强我"",""强他""]","","","","","","","","yes","","","","","","","","","SRET","EW_formal","","key","f","17.018098591549347","768","428","自己","勤恳","Positive","morality","","","","","","","","","","",""
"1070","","j","psychophysics","32","318969","0.0-7.0-3.0-0.18","6","5","7","7","6","5","4","5","5","5","5","2","-2","2","1","1","2","0","2","5","5","5","4","5","4","5","5","4","5","7","8","7","8","7","7","6","8","7","7","6","2","7","7","5","7","1","6","6","1","6","3","7","6","5","7","6","2","2","7","3","6","2","2","3","7","5","7","7","7","7","3","4","1","2","7","7","6","5","7","634477074911854592","李","308","Male","[""坏他"",""坏我"",""好我"",""好他""]","[""弱他"",""弱我"",""强我"",""强他""]","","","","","","","","no","","","","","","","","","SRET","EW_formal","","key","j","16.941471074380207","768","428","朋友","拜金","Negative","morality","","","","","","","","","","",""
"1262","","j","psychophysics","33","321232","0.0-7.0-3.0-0.19","6","5","7","7","6","5","4","5","5","5","5","2","-2","2","1","1","2","0","2","5","5","5","4","5","4","5","5","4","5","7","8","7","8","7","7","6","8","7","7","6","2","7","7","5","7","1","6","6","1","6","3","7","6","5","7","6","2","2","7","3","6","2","2","3","7","5","7","7","7","7","3","4","1","2","7","7","6","5","7","634477074911854592","李","308","Male","[""坏他"",""坏我"",""好我"",""好他""]","[""弱他"",""弱我"",""强我"",""强他""]","","","","","","","","no","","","","","","","","","SRET","EW_formal","","key","j","17.044772727272534","768","428","朋友","伪善","Negative","morality","","","","","","","","","","",""
"1347","","f","psychophysics","34","323580","0.0-7.0-3.0-0.20","6","5","7","7","6","5","4","5","5","5","5","2","-2","2","1","1","2","0","2","5","5","5","4","5","4","5","5","4","5","7","8","7","8","7","7","6","8","7","7","6","2","7","7","5","7","1","6","6","1","6","3","7","6","5","7","6","2","2","7","3","6","2","2","3","7","5","7","7","7","7","3","4","1","2","7","7","6","5","7","634477074911854592","李","308","Male","[""坏他"",""坏我"",""好我"",""好他""]","[""弱他"",""弱我"",""强我"",""强他""]","","","","","","","","yes","","","","","","","","","SRET","EW_formal","","key","f","17.156176470588168","768","428","朋友","守法","Positive","morality","","","","","","","","","","",""
"1155","","f","psychophysics","35","325736","0.0-7.0-3.0-0.21","6","5","7","7","6","5","4","5","5","5","5","2","-2","2","1","1","2","0","2","5","5","5","4","5","4","5","5","4","5","7","8","7","8","7","7","6","8","7","7","6","2","7","7","5","7","1","6","6","1","6","3","7","6","5","7","6","2","2","7","3","6","2","2","3","7","5","7","7","7","7","3","4","1","2","7","7","6","5","7","634477074911854592","李","308","Male","[""坏他"",""坏我"",""好我"",""好他""]","[""弱他"",""弱我"",""强我"",""强他""]","","","","","","","","yes","","","","","","","","","SRET","EW_formal","","key","f","17.06598400000017","768","428","朋友","忠义","Positive","morality","","","","","","","","","","",""
"1026","","j","psychophysics","36","327764","0.0-7.0-3.0-0.22","6","5","7","7","6","5","4","5","5","5","5","2","-2","2","1","1","2","0","2","5","5","5","4","5","4","5","5","4","5","7","8","7","8","7","7","6","8","7","7","6","2","7","7","5","7","1","6","6","1","6","3","7","6","5","7","6","2","2","7","3","6","2","2","3","7","5","7","7","7","7","3","4","1","2","7","7","6","5","7","634477074911854592","李","308","Male","[""坏他"",""坏我"",""好我"",""好他""]","[""弱他"",""弱我"",""强我"",""强他""]","","","","","","","","no","","","","","","","","","SRET","EW_formal","","key","j","16.94610084033622","768","428","自己","独断","Negative","ability","","","","","","","","","","",""
"1531","","f","psychophysics","37","330296","0.0-7.0-3.0-0.23","6","5","7","7","6","5","4","5","5","5","5","2","-2","2","1","1","2","0","2","5","5","5","4","5","4","5","5","4","5","7","8","7","8","7","7","6","8","7","7","6","2","7","7","5","7","1","6","6","1","6","3","7","6","5","7","6","2","2","7","3","6","2","2","3","7","5","7","7","7","7","3","4","1","2","7","7","6","5","7","634477074911854592","李","308","Male","[""坏他"",""坏我"",""好我"",""好他""]","[""弱他"",""弱我"",""强我"",""强他""]","","","","","","","","yes","","","","","","","","","SRET","EW_formal","","key","f","17.003824324324267","768","428","朋友","宽容","Positive","morality","","","","","","","","","","",""
"1047","","f","psychophysics","38","332344","0.0-7.0-3.0-0.24","6","5","7","7","6","5","4","5","5","5","5","2","-2","2","1","1","2","0","2","5","5","5","4","5","4","5","5","4","5","7","8","7","8","7","7","6","8","7","7","6","2","7","7","5","7","1","6","6","1","6","3","7","6","5","7","6","2","2","7","3","6","2","2","3","7","5","7","7","7","7","3","4","1","2","7","7","6","5","7","634477074911854592","李","308","Male","[""坏他"",""坏我"",""好我"",""好他""]","[""弱他"",""弱我"",""强我"",""强他""]","","","","","","","","yes","","","","","","","","","SRET","EW_formal","","key","f","17.08615126050451","768","428","朋友","忠诚","Positive","morality","","","","","","","","","","",""
"1035","","j","psychophysics","39","334381","0.0-7.0-3.0-0.25","6","5","7","7","6","5","4","5","5","5","5","2","-2","2","1","1","2","0","2","5","5","5","4","5","4","5","5","4","5","7","8","7","8","7","7","6","8","7","7","6","2","7","7","5","7","1","6","6","1","6","3","7","6","5","7","6","2","2","7","3","6","2","2","3","7","5","7","7","7","7","3","4","1","2","7","7","6","5","7","634477074911854592","李","308","Male","[""坏他"",""坏我"",""好我"",""好他""]","[""弱他"",""弱我"",""强我"",""强他""]","","","","","","","","no","","","","","","","","","SRET","EW_formal","","key","j","16.94610084033622","768","428","自己","势利","Negative","morality","","","","","","","","","","",""
"1386","","f","psychophysics","40","336768","0.0-7.0-3.0-0.26","6","5","7","7","6","5","4","5","5","5","5","2","-2","2","1","1","2","0","2","5","5","5","4","5","4","5","5","4","5","7","8","7","8","7","7","6","8","7","7","6","2","7","7","5","7","1","6","6","1","6","3","7","6","5","7","6","2","2","7","3","6","2","2","3","7","5","7","7","7","7","3","4","1","2","7","7","6","5","7","634477074911854592","李","308","Male","[""坏他"",""坏我"",""好我"",""好他""]","[""弱他"",""弱我"",""强我"",""强他""]","","","","","","","","yes","","","","","","","","","SRET","EW_formal","","key","f","16.90408571428561","768","428","朋友","上进","Positive","ability","","","","","","","","","","",""
"1243","","f","psychophysics","41","339017","0.0-7.0-3.0-0.27","6","5","7","7","6","5","4","5","5","5","5","2","-2","2","1","1","2","0","2","5","5","5","4","5","4","5","5","4","5","7","8","7","8","7","7","6","8","7","7","6","2","7","7","5","7","1","6","6","1","6","3","7","6","5","7","6","2","2","7","3","6","2","2","3","7","5","7","7","7","7","3","4","1","2","7","7","6","5","7","634477074911854592","李","308","Male","[""坏他"",""坏我"",""好我"",""好他""]","[""弱他"",""弱我"",""强我"",""强他""]","","","","","","","","yes","","","","","","","","","SRET","EW_formal","","key","f","17.047664122137007","768","428","朋友","高明","Positive","ability","","","","","","","","","","",""
"1369","","f","psychophysics","42","341387","0.0-7.0-3.0-0.28","6","5","7","7","6","5","4","5","5","5","5","2","-2","2","1","1","2","0","2","5","5","5","4","5","4","5","5","4","5","7","8","7","8","7","7","6","8","7","7","6","2","7","7","5","7","1","6","6","1","6","3","7","6","5","7","6","2","2","7","3","6","2","2","3","7","5","7","7","7","7","3","4","1","2","7","7","6","5","7","634477074911854592","李","308","Male","[""坏他"",""坏我"",""好我"",""好他""]","[""弱他"",""弱我"",""强我"",""强他""]","","","","","","","","yes","","","","","","","","","SRET","EW_formal","","key","f","16.905798561151204","768","428","自己","善心","Positive","morality","","","","","","","","","","",""
"1015","","f","psychophysics","43","343403","0.0-7.0-3.0-0.29","6","5","7","7","6","5","4","5","5","5","5","2","-2","2","1","1","2","0","2","5","5","5","4","5","4","5","5","4","5","7","8","7","8","7","7","6","8","7","7","6","2","7","7","5","7","1","6","6","1","6","3","7","6","5","7","6","2","2","7","3","6","2","2","3","7","5","7","7","7","7","3","4","1","2","7","7","6","5","7","634477074911854592","李","308","Male","[""坏他"",""坏我"",""好我"",""好他""]","[""弱他"",""弱我"",""强我"",""强他""]","","","","","","","","yes","","","","","","","","","SRET","EW_formal","","key","f","17.093333333333693","768","428","朋友","文明","Positive","morality","","","","","","","","","","",""
"1229","","f","psychophysics","44","345634","0.0-7.0-3.0-0.30","6","5","7","7","6","5","4","5","5","5","5","2","-2","2","1","1","2","0","2","5","5","5","4","5","4","5","5","4","5","7","8","7","8","7","7","6","8","7","7","6","2","7","7","5","7","1","6","6","1","6","3","7","6","5","7","6","2","2","7","3","6","2","2","3","7","5","7","7","7","7","3","4","1","2","7","7","6","5","7","634477074911854592","李","308","Male","[""坏他"",""坏我"",""好我"",""好他""]","[""弱他"",""弱我"",""强我"",""强他""]","","","","","","","","yes","","","","","","","","","SRET","EW_formal","","key","f","17.050599999999843","768","428","自己","仗义","Positive","morality","","","","","","","","","","",""
"967","","j","psychophysics","45","347603","0.0-7.0-3.0-0.31","6","5","7","7","6","5","4","5","5","5","5","2","-2","2","1","1","2","0","2","5","5","5","4","5","4","5","5","4","5","7","8","7","8","7","7","6","8","7","7","6","2","7","7","5","7","1","6","6","1","6","3","7","6","5","7","6","2","2","7","3","6","2","2","3","7","5","7","7","7","7","3","4","1","2","7","7","6","5","7","634477074911854592","李","308","Male","[""坏他"",""坏我"",""好我"",""好他""]","[""弱他"",""弱我"",""强我"",""强他""]","","","","","","","","no","","","","","","","","","SRET","EW_formal","","key","j","17.1045789473686","768","428","朋友","驽钝","Negative","ability","","","","","","","","","","",""
"1179","","f","psychophysics","46","349784","0.0-7.0-3.0-0.32","6","5","7","7","6","5","4","5","5","5","5","2","-2","2","1","1","2","0","2","5","5","5","4","5","4","5","5","4","5","7","8","7","8","7","7","6","8","7","7","6","2","7","7","5","7","1","6","6","1","6","3","7","6","5","7","6","2","2","7","3","6","2","2","3","7","5","7","7","7","7","3","4","1","2","7","7","6","5","7","634477074911854592","李","308","Male","[""坏他"",""坏我"",""好我"",""好他""]","[""弱他"",""弱我"",""强我"",""强他""]","","","","","","","","yes","","","","","","","","","SRET","EW_formal","","key","f","16.926406250000127","768","428","自己","远见","Positive","ability","","","","","","","","","","",""
"1065","","j","psychophysics","47","351850","0.0-7.0-3.0-0.33","6","5","7","7","6","5","4","5","5","5","5","2","-2","2","1","1","2","0","2","5","5","5","4","5","4","5","5","4","5","7","8","7","8","7","7","6","8","7","7","6","2","7","7","5","7","1","6","6","1","6","3","7","6","5","7","6","2","2","7","3","6","2","2","3","7","5","7","7","7","7","3","4","1","2","7","7","6","5","7","634477074911854592","李","308","Male","[""坏他"",""坏我"",""好我"",""好他""]","[""弱他"",""弱我"",""强我"",""强他""]","","","","","","","","no","","","","","","","","","SRET","EW_formal","","key","j","17.082650000000044","768","428","自己","才尽","Negative","ability","","","","","","","","","","",""
"1120","","j","psychophysics","48","353972","0.0-7.0-3.0-0.34","6","5","7","7","6","5","4","5","5","5","5","2","-2","2","1","1","2","0","2","5","5","5","4","5","4","5","5","4","5","7","8","7","8","7","7","6","8","7","7","6","2","7","7","5","7","1","6","6","1","6","3","7","6","5","7","6","2","2","7","3","6","2","2","3","7","5","7","7","7","7","3","4","1","2","7","7","6","5","7","634477074911854592","李","308","Male","[""坏他"",""坏我"",""好我"",""好他""]","[""弱他"",""弱我"",""强我"",""强他""]","","","","","","","","no","","","","","","","","","SRET","EW_formal","","key","j","16.934806451612648","768","428","朋友","废物","Negative","ability","","","","","","","","","","",""
"1226","","j","psychophysics","49","356199","0.0-7.0-3.0-0.35","6","5","7","7","6","5","4","5","5","5","5","2","-2","2","1","1","2","0","2","5","5","5","4","5","4","5","5","4","5","7","8","7","8","7","7","6","8","7","7","6","2","7","7","5","7","1","6","6","1","6","3","7","6","5","7","6","2","2","7","3","6","2","2","3","7","5","7","7","7","7","3","4","1","2","7","7","6","5","7","634477074911854592","李","308","Male","[""坏他"",""坏我"",""好我"",""好他""]","[""弱他"",""弱我"",""强我"",""强他""]","","","","","","","","no","","","","","","","","","SRET","EW_formal","","key","j","16.920442748091446","768","428","自己","失信","Negative","morality","","","","","","","","","","",""
"1025","","j","psychophysics","50","358226","0.0-7.0-3.0-0.36","6","5","7","7","6","5","4","5","5","5","5","2","-2","2","1","1","2","0","2","5","5","5","4","5","4","5","5","4","5","7","8","7","8","7","7","6","8","7","7","6","2","7","7","5","7","1","6","6","1","6","3","7","6","5","7","6","2","2","7","3","6","2","2","3","7","5","7","7","7","7","3","4","1","2","7","7","6","5","7","634477074911854592","李","308","Male","[""坏他"",""坏我"",""好我"",""好他""]","[""弱他"",""弱我"",""强我"",""强他""]","","","","","","","","no","","","","","","","","","SRET","EW_formal","","key","j","17.093333333333195","768","428","朋友","外行","Negative","ability","","","","","","","","","","",""
"1278","","f","psychophysics","51","360506","0.0-7.0-3.0-0.37","6","5","7","7","6","5","4","5","5","5","5","2","-2","2","1","1","2","0","2","5","5","5","4","5","4","5","5","4","5","7","8","7","8","7","7","6","8","7","7","6","2","7","7","5","7","1","6","6","1","6","3","7","6","5","7","6","2","2","7","3","6","2","2","3","7","5","7","7","7","7","3","4","1","2","7","7","6","5","7","634477074911854592","李","308","Male","[""坏他"",""坏我"",""好我"",""好他""]","[""弱他"",""弱我"",""强我"",""强他""]","","","","","","","","yes","","","","","","","","","SRET","EW_formal","","key","f","16.914746268656724","768","428","自己","义气","Positive","morality","","","","","","","","","","",""
"1476","","j","psychophysics","52","362983","0.0-7.0-3.0-0.38","6","5","7","7","6","5","4","5","5","5","5","2","-2","2","1","1","2","0","2","5","5","5","4","5","4","5","5","4","5","7","8","7","8","7","7","6","8","7","7","6","2","7","7","5","7","1","6","6","1","6","3","7","6","5","7","6","2","2","7","3","6","2","2","3","7","5","7","7","7","7","3","4","1","2","7","7","6","5","7","634477074911854592","李","308","Male","[""坏他"",""坏我"",""好我"",""好他""]","[""弱他"",""弱我"",""强我"",""强他""]","","","","","","","","no","","","","","","","","","SRET","EW_formal","","key","j","17.12894444444464","768","428","朋友","不端","Negative","morality","","","","","","","","","","",""
"1041","","j","psychophysics","53","365025","0.0-7.0-3.0-0.39","6","5","7","7","6","5","4","5","5","5","5","2","-2","2","1","1","2","0","2","5","5","5","4","5","4","5","5","4","5","7","8","7","8","7","7","6","8","7","7","6","2","7","7","5","7","1","6","6","1","6","3","7","6","5","7","6","2","2","7","3","6","2","2","3","7","5","7","7","7","7","3","4","1","2","7","7","6","5","7","634477074911854592","李","308","Male","[""坏他"",""坏我"",""好我"",""好他""]","[""弱他"",""弱我"",""强我"",""强他""]","","","","","","","","no","","","","","","","","","SRET","EW_formal","","key","j","17.235777777777866","768","428","自己","昏庸","Negative","ability","","","","","","","","","","",""
"1340","","f","psychophysics","54","367366","0.0-7.0-3.0-0.40","6","5","7","7","6","5","4","5","5","5","5","2","-2","2","1","1","2","0","2","5","5","5","4","5","4","5","5","4","5","7","8","7","8","7","7","6","8","7","7","6","2","7","7","5","7","1","6","6","1","6","3","7","6","5","7","6","2","2","7","3","6","2","2","3","7","5","7","7","7","7","3","4","1","2","7","7","6","5","7","634477074911854592","李","308","Male","[""坏他"",""坏我"",""好我"",""好他""]","[""弱他"",""弱我"",""强我"",""强他""]","","","","","","","","yes","","","","","","","","","SRET","EW_formal","","key","f","17.156176470588168","768","428","朋友","仁厚","Positive","morality","","","","","","","","","","",""
"1073","","j","psychophysics","55","369441","0.0-7.0-3.0-0.41","6","5","7","7","6","5","4","5","5","5","5","2","-2","2","1","1","2","0","2","5","5","5","4","5","4","5","5","4","5","7","8","7","8","7","7","6","8","7","7","6","2","7","7","5","7","1","6","6","1","6","3","7","6","5","7","6","2","2","7","3","6","2","2","3","7","5","7","7","7","7","3","4","1","2","7","7","6","5","7","634477074911854592","李","308","Male","[""坏他"",""坏我"",""好我"",""好他""]","[""弱他"",""弱我"",""强我"",""强他""]","","","","","","","","no","","","","","","","","","SRET","EW_formal","","key","j","17.082650000000044","768","428","朋友","淡泊","Positive","morality","","","","","","","","","","",""
"1192","","f","psychophysics","56","371634","0.0-7.0-3.0-0.42","6","5","7","7","6","5","4","5","5","5","5","2","-2","2","1","1","2","0","2","5","5","5","4","5","4","5","5","4","5","7","8","7","8","7","7","6","8","7","7","6","2","7","7","5","7","1","6","6","1","6","3","7","6","5","7","6","2","2","7","3","6","2","2","3","7","5","7","7","7","7","3","4","1","2","7","7","6","5","7","634477074911854592","李","308","Male","[""坏他"",""坏我"",""好我"",""好他""]","[""弱他"",""弱我"",""强我"",""强他""]","","","","","","","","yes","","","","","","","","","SRET","EW_formal","","key","f","17.05660937499988","768","428","自己","专注","Positive","ability","","","","","","","","","","",""
"1271","","j","psychophysics","57","373906","0.0-7.0-3.0-0.43","6","5","7","7","6","5","4","5","5","5","5","2","-2","2","1","1","2","0","2","5","5","5","4","5","4","5","5","4","5","7","8","7","8","7","7","6","8","7","7","6","2","7","7","5","7","1","6","6","1","6","3","7","6","5","7","6","2","2","7","3","6","2","2","3","7","5","7","7","7","7","3","4","1","2","7","7","6","5","7","634477074911854592","李","308","Male","[""坏他"",""坏我"",""好我"",""好他""]","[""弱他"",""弱我"",""强我"",""强他""]","","","","","","","","no","","","","","","","","","SRET","EW_formal","","key","j","17.302106870229014","768","428","朋友","拙笨","Negative","ability","","","","","","","","","","",""
"1549","","f","psychophysics","58","376456","0.0-7.0-3.0-0.44","6","5","7","7","6","5","4","5","5","5","5","2","-2","2","1","1","2","0","2","5","5","5","4","5","4","5","5","4","5","7","8","7","8","7","7","6","8","7","7","6","2","7","7","5","7","1","6","6","1","6","3","7","6","5","7","6","2","2","7","3","6","2","2","3","7","5","7","7","7","7","3","4","1","2","7","7","6","5","7","634477074911854592","李","308","Male","[""坏他"",""坏我"",""好我"",""好他""]","[""弱他"",""弱我"",""强我"",""强他""]","","","","","","","","yes","","","","","","","","","SRET","EW_formal","","key","f","17.001557046979986","768","428","自己","犹豫","Negative","ability","","","","","","","","","","",""
"1183","","j","psychophysics","59","378640","0.0-7.0-3.0-0.45","6","5","7","7","6","5","4","5","5","5","5","2","-2","2","1","1","2","0","2","5","5","5","4","5","4","5","5","4","5","7","8","7","8","7","7","6","8","7","7","6","2","7","7","5","7","1","6","6","1","6","3","7","6","5","7","6","2","2","7","3","6","2","2","3","7","5","7","7","7","7","3","4","1","2","7","7","6","5","7","634477074911854592","李","308","Male","[""坏他"",""坏我"",""好我"",""好他""]","[""弱他"",""弱我"",""强我"",""强他""]","","","","","","","","no","","","","","","","","","SRET","EW_formal","","key","j","17.05968503937021","768","428","自己","毛糙","Negative","ability","","","","","","","","","","",""
"1578","","j","psychophysics","60","381219","0.0-7.0-3.0-0.46","6","5","7","7","6","5","4","5","5","5","5","2","-2","2","1","1","2","0","2","5","5","5","4","5","4","5","5","4","5","7","8","7","8","7","7","6","8","7","7","6","2","7","7","5","7","1","6","6","1","6","3","7","6","5","7","6","2","2","7","3","6","2","2","3","7","5","7","7","7","7","3","4","1","2","7","7","6","5","7","634477074911854592","李","308","Male","[""坏他"",""坏我"",""好我"",""好他""]","[""弱他"",""弱我"",""强我"",""强他""]","","","","","","","","no","","","","","","","","","SRET","EW_formal","","key","j","16.99931999999991","768","428","朋友","独立","Positive","ability","","","","","","","","","","",""
"1319","","j","psychophysics","61","383540","0.0-7.0-3.0-0.47","6","5","7","7","6","5","4","5","5","5","5","2","-2","2","1","1","2","0","2","5","5","5","4","5","4","5","5","4","5","7","8","7","8","7","7","6","8","7","7","6","2","7","7","5","7","1","6","6","1","6","3","7","6","5","7","6","2","2","7","3","6","2","2","3","7","5","7","7","7","7","3","4","1","2","7","7","6","5","7","634477074911854592","李","308","Male","[""坏他"",""坏我"",""好我"",""好他""]","[""弱他"",""弱我"",""强我"",""强他""]","","","","","","","","no","","","","","","","","","SRET","EW_formal","","key","j","17.03363235294134","768","428","朋友","蛇蝎","Negative","morality","","","","","","","","","","",""
"1629","","f","psychophysics","62","386171","0.0-7.0-3.0-0.48","6","5","7","7","6","5","4","5","5","5","5","2","-2","2","1","1","2","0","2","5","5","5","4","5","4","5","5","4","5","7","8","7","8","7","7","6","8","7","7","6","2","7","7","5","7","1","6","6","1","6","3","7","6","5","7","6","2","2","7","3","6","2","2","3","7","5","7","7","7","7","3","4","1","2","7","7","6","5","7","634477074911854592","李","308","Male","[""坏他"",""坏我"",""好我"",""好他""]","[""弱他"",""弱我"",""强我"",""强他""]","","","","","","","","yes","","","","","","","","","SRET","EW_formal","","key","f","17.10457894736809","768","428","自己","逞能","Negative","ability","","","","","","","","","","",""
"1135","","j","psychophysics","63","388306","0.0-7.0-3.0-0.49","6","5","7","7","6","5","4","5","5","5","5","2","-2","2","1","1","2","0","2","5","5","5","4","5","4","5","5","4","5","7","8","7","8","7","7","6","8","7","7","6","2","7","7","5","7","1","6","6","1","6","3","7","6","5","7","6","2","2","7","3","6","2","2","3","7","5","7","7","7","7","3","4","1","2","7","7","6","5","7","634477074911854592","李","308","Male","[""坏他"",""坏我"",""好我"",""好他""]","[""弱他"",""弱我"",""强我"",""强他""]","","","","","","","","no","","","","","","","","","SRET","EW_formal","","key","j","16.797228346456862","768","428","自己","无能","Negative","ability","","","","","","","","","","",""
"1196","","j","psychophysics","64","390503","0.0-7.0-3.0-0.50","6","5","7","7","6","5","4","5","5","5","5","2","-2","2","1","1","2","0","2","5","5","5","4","5","4","5","5","4","5","7","8","7","8","7","7","6","8","7","7","6","2","7","7","5","7","1","6","6","1","6","3","7","6","5","7","6","2","2","7","3","6","2","2","3","7","5","7","7","7","7","3","4","1","2","7","7","6","5","7","634477074911854592","李","308","Male","[""坏他"",""坏我"",""好我"",""好他""]","[""弱他"",""弱我"",""强我"",""强他""]","","","","","","","","no","","","","","","","","","SRET","EW_formal","","key","j","17.05968503937021","768","428","自己","不孝","Negative","morality","","","","","","","","","","",""
"1102","","f","psychophysics","65","392607","0.0-7.0-3.0-0.51","6","5","7","7","6","5","4","5","5","5","5","2","-2","2","1","1","2","0","2","5","5","5","4","5","4","5","5","4","5","7","8","7","8","7","7","6","8","7","7","6","2","7","7","5","7","1","6","6","1","6","3","7","6","5","7","6","2","2","7","3","6","2","2","3","7","5","7","7","7","7","3","4","1","2","7","7","6","5","7","634477074911854592","李","308","Male","[""坏他"",""坏我"",""好我"",""好他""]","[""弱他"",""弱我"",""强我"",""强他""]","","","","","","","","yes","","","","","","","","","SRET","EW_formal","","key","f","17.072487804878264","768","428","自己","仁爱","Positive","morality","","","","","","","","","","",""
"1360","","f","psychophysics","66","394968","0.0-7.0-3.0-0.52","6","5","7","7","6","5","4","5","5","5","5","2","-2","2","1","1","2","0","2","5","5","5","4","5","4","5","5","4","5","7","8","7","8","7","7","6","8","7","7","6","2","7","7","5","7","1","6","6","1","6","3","7","6","5","7","6","2","2","7","3","6","2","2","3","7","5","7","7","7","7","3","4","1","2","7","7","6","5","7","634477074911854592","李","308","Male","[""坏他"",""坏我"",""好我"",""好他""]","[""弱他"",""弱我"",""强我"",""强他""]","","","","","","","","yes","","","","","","","","","SRET","EW_formal","","key","f","17.030948905109845","768","428","自己","利己","Negative","morality","","","","","","","","","","",""
"1034","","f","psychophysics","67","397002","0.0-7.0-3.0-0.53","6","5","7","7","6","5","4","5","5","5","5","2","-2","2","1","1","2","0","2","5","5","5","4","5","4","5","5","4","5","7","8","7","8","7","7","6","8","7","7","6","2","7","7","5","7","1","6","6","1","6","3","7","6","5","7","6","2","2","7","3","6","2","2","3","7","5","7","7","7","7","3","4","1","2","7","7","6","5","7","634477074911854592","李","308","Male","[""坏他"",""坏我"",""好我"",""好他""]","[""弱他"",""弱我"",""强我"",""强他""]","","","","","","","","yes","","","","","","","","","SRET","EW_formal","","key","f","17.089711864406866","768","428","朋友","骁勇","Positive","ability","","","","","","","","","","",""
"1155","","f","psychophysics","68","399163","0.0-7.0-3.0-0.54","6","5","7","7","6","5","4","5","5","5","5","2","-2","2","1","1","2","0","2","5","5","5","4","5","4","5","5","4","5","7","8","7","8","7","7","6","8","7","7","6","2","7","7","5","7","1","6","6","1","6","3","7","6","5","7","6","2","2","7","3","6","2","2","3","7","5","7","7","7","7","3","4","1","2","7","7","6","5","7","634477074911854592","李","308","Male","[""坏他"",""坏我"",""好我"",""好他""]","[""弱他"",""弱我"",""强我"",""强他""]","","","","","","","","yes","","","","","","","","","SRET","EW_formal","","key","f","17.199311999999917","768","428","朋友","刻苦","Positive","ability","","","","","","","","","","",""
"1000","","f","psychophysics","69","401165","0.0-7.0-3.0-0.55","6","5","7","7","6","5","4","5","5","5","5","2","-2","2","1","1","2","0","2","5","5","5","4","5","4","5","5","4","5","7","8","7","8","7","7","6","8","7","7","6","2","7","7","5","7","1","6","6","1","6","3","7","6","5","7","6","2","2","7","3","6","2","2","3","7","5","7","7","7","7","3","4","1","2","7","7","6","5","7","634477074911854592","李","308","Male","[""坏他"",""坏我"",""好我"",""好他""]","[""弱他"",""弱我"",""强我"",""强他""]","","","","","","","","yes","","","","","","","","","SRET","EW_formal","","key","f","17.097017241379444","768","428","自己","利落","Positive","ability","","","","","","","","","","",""
"1607","","j","psychophysics","70","403774","0.0-7.0-3.0-0.56","6","5","7","7","6","5","4","5","5","5","5","2","-2","2","1","1","2","0","2","5","5","5","4","5","4","5","5","4","5","7","8","7","8","7","7","6","8","7","7","6","2","7","7","5","7","1","6","6","1","6","3","7","6","5","7","6","2","2","7","3","6","2","2","3","7","5","7","7","7","7","3","4","1","2","7","7","6","5","7","634477074911854592","李","308","Male","[""坏他"",""坏我"",""好我"",""好他""]","[""弱他"",""弱我"",""强我"",""强他""]","","","","","","","","no","","","","","","","","","SRET","EW_formal","","key","j","16.994934210526193","768","428","朋友","混账","Negative","morality","","","","","","","","","","",""
"1134","","f","psychophysics","71","405910","0.0-7.0-3.0-0.57","6","5","7","7","6","5","4","5","5","5","5","2","-2","2","1","1","2","0","2","5","5","5","4","5","4","5","5","4","5","7","8","7","8","7","7","6","8","7","7","6","2","7","7","5","7","1","6","6","1","6","3","7","6","5","7","6","2","2","7","3","6","2","2","3","7","5","7","7","7","7","3","4","1","2","7","7","6","5","7","634477074911854592","李","308","Male","[""坏他"",""坏我"",""好我"",""好他""]","[""弱他"",""弱我"",""强我"",""强他""]","","","","","","","","yes","","","","","","","","","SRET","EW_formal","","key","f","17.06598400000017","768","428","自己","智慧","Positive","ability","","","","","","","","","","",""
"1246","","j","psychophysics","72","408157","0.0-7.0-3.0-0.58","6","5","7","7","6","5","4","5","5","5","5","2","-2","2","1","1","2","0","2","5","5","5","4","5","4","5","5","4","5","7","8","7","8","7","7","6","8","7","7","6","2","7","7","5","7","1","6","6","1","6","3","7","6","5","7","6","2","2","7","3","6","2","2","3","7","5","7","7","7","7","3","4","1","2","7","7","6","5","7","634477074911854592","李","308","Male","[""坏他"",""坏我"",""好我"",""好他""]","[""弱他"",""弱我"",""强我"",""强他""]","","","","","","","","no","","","","","","","","","SRET","EW_formal","","key","j","17.050599999999843","768","428","朋友","差生","Negative","ability","","","","","","","","","","",""
"1464","","f","psychophysics","73","410622","0.0-7.0-3.0-0.59","6","5","7","7","6","5","4","5","5","5","5","2","-2","2","1","1","2","0","2","5","5","5","4","5","4","5","5","4","5","7","8","7","8","7","7","6","8","7","7","6","2","7","7","5","7","1","6","6","1","6","3","7","6","5","7","6","2","2","7","3","6","2","2","3","7","5","7","7","7","7","3","4","1","2","7","7","6","5","7","634477074911854592","李","308","Male","[""坏他"",""坏我"",""好我"",""好他""]","[""弱他"",""弱我"",""强我"",""强他""]","","","","","","","","yes","","","","","","","","","SRET","EW_formal","","key","f","17.01320833333294","768","428","自己","君子","Positive","morality","","","","","","","","","","",""
"1502","","j","psychophysics","74","413125","0.0-7.0-3.0-0.60","6","5","7","7","6","5","4","5","5","5","5","2","-2","2","1","1","2","0","2","5","5","5","4","5","4","5","5","4","5","7","8","7","8","7","7","6","8","7","7","6","2","7","7","5","7","1","6","6","1","6","3","7","6","5","7","6","2","2","7","3","6","2","2","3","7","5","7","7","7","7","3","4","1","2","7","7","6","5","7","634477074911854592","李","308","Male","[""坏他"",""坏我"",""好我"",""好他""]","[""弱他"",""弱我"",""强我"",""强他""]","","","","","","","","no","","","","","","","","","SRET","EW_formal","","key","j","17.00612244897975","768","428","朋友","无知","Negative","ability","","","","","","","","","","",""
"1712","","f","psychophysics","75","415839","0.0-7.0-3.0-0.61","6","5","7","7","6","5","4","5","5","5","5","2","-2","2","1","1","2","0","2","5","5","5","4","5","4","5","5","4","5","7","8","7","8","7","7","6","8","7","7","6","2","7","7","5","7","1","6","6","1","6","3","7","6","5","7","6","2","2","7","3","6","2","2","3","7","5","7","7","7","7","3","4","1","2","7","7","6","5","7","634477074911854592","李","308","Male","[""坏他"",""坏我"",""好我"",""好他""]","[""弱他"",""弱我"",""强我"",""强他""]","","","","","","","","yes","","","","","","","","","SRET","EW_formal","","key","f","16.982443037974836","768","428","朋友","依靠","Negative","ability","","","","","","","","","","",""
"1251","","f","psychophysics","76","418091","0.0-7.0-3.0-0.62","6","5","7","7","6","5","4","5","5","5","5","2","-2","2","1","1","2","0","2","5","5","5","4","5","4","5","5","4","5","7","8","7","8","7","7","6","8","7","7","6","2","7","7","5","7","1","6","6","1","6","3","7","6","5","7","6","2","2","7","3","6","2","2","3","7","5","7","7","7","7","3","4","1","2","7","7","6","5","7","634477074911854592","李","308","Male","[""坏他"",""坏我"",""好我"",""好他""]","[""弱他"",""弱我"",""强我"",""强他""]","","","","","","","","yes","","","","","","","","","SRET","EW_formal","","key","f","17.04766412213745","768","428","自己","忠良","Positive","morality","","","","","","","","","","",""
"1191","","f","psychophysics","77","420284","0.0-7.0-3.0-0.63","6","5","7","7","6","5","4","5","5","5","5","2","-2","2","1","1","2","0","2","5","5","5","4","5","4","5","5","4","5","7","8","7","8","7","7","6","8","7","7","6","2","7","7","5","7","1","6","6","1","6","3","7","6","5","7","6","2","2","7","3","6","2","2","3","7","5","7","7","7","7","3","4","1","2","7","7","6","5","7","634477074911854592","李","308","Male","[""坏他"",""坏我"",""好我"",""好他""]","[""弱他"",""弱我"",""强我"",""强他""]","","","","","","","","yes","","","","","","","","","SRET","EW_formal","","key","f","16.941471074380207","768","428","自己","周到","Positive","ability","","","","","","","","","","",""
"1156","","j","psychophysics","78","422441","0.0-7.0-3.0-0.64","6","5","7","7","6","5","4","5","5","5","5","2","-2","2","1","1","2","0","2","5","5","5","4","5","4","5","5","4","5","7","8","7","8","7","7","6","8","7","7","6","2","7","7","5","7","1","6","6","1","6","3","7","6","5","7","6","2","2","7","3","6","2","2","3","7","5","7","7","7","7","3","4","1","2","7","7","6","5","7","634477074911854592","李","308","Male","[""坏他"",""坏我"",""好我"",""好他""]","[""弱他"",""弱我"",""强我"",""强他""]","","","","","","","","no","","","","","","","","","SRET","EW_formal","","key","j","17.570356589147295","768","428","自己","虚假","Negative","morality","","","","","","","","","","",""
"1198","","f","psychophysics","79","424640","0.0-7.0-3.0-0.65","6","5","7","7","6","5","4","5","5","5","5","2","-2","2","1","1","2","0","2","5","5","5","4","5","4","5","5","4","5","7","8","7","8","7","7","6","8","7","7","6","2","7","7","5","7","1","6","6","1","6","3","7","6","5","7","6","2","2","7","3","6","2","2","3","7","5","7","7","7","7","3","4","1","2","7","7","6","5","7","634477074911854592","李","308","Male","[""坏他"",""坏我"",""好我"",""好他""]","[""弱他"",""弱我"",""强我"",""强他""]","","","","","","","","yes","","","","","","","","","SRET","EW_formal","","key","f","16.924387596899106","768","428","自己","娴熟","Positive","ability","","","","","","","","","","",""
"914","","j","psychophysics","80","426556","0.0-7.0-3.0-0.66","6","5","7","7","6","5","4","5","5","5","5","2","-2","2","1","1","2","0","2","5","5","5","4","5","4","5","5","4","5","7","8","7","8","7","7","6","8","7","7","6","2","7","7","5","7","1","6","6","1","6","3","7","6","5","7","6","2","2","7","3","6","2","2","3","7","5","7","7","7","7","3","4","1","2","7","7","6","5","7","634477074911854592","李","308","Male","[""坏他"",""坏我"",""好我"",""好他""]","[""弱他"",""弱我"",""强我"",""强他""]","","","","","","","","no","","","","","","","","","SRET","EW_formal","","key","j","16.963607142857136","768","428","自己","畏难","Negative","ability","","","","","","","","","","",""
"1118","","j","psychophysics","81","428676","0.0-7.0-3.0-0.67","6","5","7","7","6","5","4","5","5","5","5","2","-2","2","1","1","2","0","2","5","5","5","4","5","4","5","5","4","5","7","8","7","8","7","7","6","8","7","7","6","2","7","7","5","7","1","6","6","1","6","3","7","6","5","7","6","2","2","7","3","6","2","2","3","7","5","7","7","7","7","3","4","1","2","7","7","6","5","7","634477074911854592","李","308","Male","[""坏他"",""坏我"",""好我"",""好他""]","[""弱他"",""弱我"",""强我"",""强他""]","","","","","","","","no","","","","","","","","","SRET","EW_formal","","key","j","16.93265599999996","768","428","朋友","无私","Positive","morality","","","","","","","","","","",""
"1184","","f","psychophysics","82","430862","0.0-7.0-3.0-0.68","6","5","7","7","6","5","4","5","5","5","5","2","-2","2","1","1","2","0","2","5","5","5","4","5","4","5","5","4","5","7","8","7","8","7","7","6","8","7","7","6","2","7","7","5","7","1","6","6","1","6","3","7","6","5","7","6","2","2","7","3","6","2","2","3","7","5","7","7","7","7","3","4","1","2","7","7","6","5","7","634477074911854592","李","308","Male","[""坏他"",""坏我"",""好我"",""好他""]","[""弱他"",""弱我"",""强我"",""强他""]","","","","","","","","yes","","","","","","","","","SRET","EW_formal","","key","f","17.05968503936975","768","428","自己","毅力","Positive","ability","","","","","","","","","","",""
"1000","","j","psychophysics","83","432865","0.0-7.0-3.0-0.69","6","5","7","7","6","5","4","5","5","5","5","2","-2","2","1","1","2","0","2","5","5","5","4","5","4","5","5","4","5","7","8","7","8","7","7","6","8","7","7","6","2","7","7","5","7","1","6","6","1","6","3","7","6","5","7","6","2","2","7","3","6","2","2","3","7","5","7","7","7","7","3","4","1","2","7","7","6","5","7","634477074911854592","李","308","Male","[""坏他"",""坏我"",""好我"",""好他""]","[""弱他"",""弱我"",""强我"",""强他""]","","","","","","","","no","","","","","","","","","SRET","EW_formal","","key","j","16.950888888889022","768","428","自己","诡诈","Negative","morality","","","","","","","","","","",""
"1094","","f","psychophysics","84","434961","0.0-7.0-3.0-0.70","6","5","7","7","6","5","4","5","5","5","5","2","-2","2","1","1","2","0","2","5","5","5","4","5","4","5","5","4","5","7","8","7","8","7","7","6","8","7","7","6","2","7","7","5","7","1","6","6","1","6","3","7","6","5","7","6","2","2","7","3","6","2","2","3","7","5","7","7","7","7","3","4","1","2","7","7","6","5","7","634477074911854592","李","308","Male","[""坏他"",""坏我"",""好我"",""好他""]","[""弱他"",""弱我"",""强我"",""强他""]","","","","","","","","yes","","","","","","","","","SRET","EW_formal","","key","f","16.9369918699187","768","428","自己","博识","Positive","ability","","","","","","","","","","",""
"946","","f","psychophysics","85","436908","0.0-7.0-3.0-0.71","6","5","7","7","6","5","4","5","5","5","5","2","-2","2","1","1","2","0","2","5","5","5","4","5","4","5","5","4","5","7","8","7","8","7","7","6","8","7","7","6","2","7","7","5","7","1","6","6","1","6","3","7","6","5","7","6","2","2","7","3","6","2","2","3","7","5","7","7","7","7","3","4","1","2","7","7","6","5","7","634477074911854592","李","308","Male","[""坏他"",""坏我"",""好我"",""好他""]","[""弱他"",""弱我"",""强我"",""强他""]","","","","","","","","yes","","","","","","","","","SRET","EW_formal","","key","f","16.958385964912228","768","428","自己","有力","Positive","ability","","","","","","","","","","",""
"963","","f","psychophysics","86","438873","0.0-7.0-3.0-0.72","6","5","7","7","6","5","4","5","5","5","5","2","-2","2","1","1","2","0","2","5","5","5","4","5","4","5","5","4","5","7","8","7","8","7","7","6","8","7","7","6","2","7","7","5","7","1","6","6","1","6","3","7","6","5","7","6","2","2","7","3","6","2","2","3","7","5","7","7","7","7","3","4","1","2","7","7","6","5","7","634477074911854592","李","308","Male","[""坏他"",""坏我"",""好我"",""好他""]","[""弱他"",""弱我"",""强我"",""强他""]","","","","","","","","yes","","","","","","","","","SRET","EW_formal","","key","f","16.810921739130887","768","428","自己","廉明","Positive","morality","","","","","","","","","","",""
"974","","f","psychophysics","87","440849","0.0-7.0-3.0-0.73","6","5","7","7","6","5","4","5","5","5","5","2","-2","2","1","1","2","0","2","5","5","5","4","5","4","5","5","4","5","7","8","7","8","7","7","6","8","7","7","6","2","7","7","5","7","1","6","6","1","6","3","7","6","5","7","6","2","2","7","3","6","2","2","3","7","5","7","7","7","7","3","4","1","2","7","7","6","5","7","634477074911854592","李","308","Male","[""坏他"",""坏我"",""好我"",""好他""]","[""弱他"",""弱我"",""强我"",""强他""]","","","","","","","","yes","","","","","","","","","SRET","EW_formal","","key","f","16.808444444444348","768","428","朋友","思辨","Positive","ability","","","","","","","","","","",""
"957","","j","psychophysics","88","442808","0.0-7.0-3.0-0.74","6","5","7","7","6","5","4","5","5","5","5","2","-2","2","1","1","2","0","2","5","5","5","4","5","4","5","5","4","5","7","8","7","8","7","7","6","8","7","7","6","2","7","7","5","7","1","6","6","1","6","3","7","6","5","7","6","2","2","7","3","6","2","2","3","7","5","7","7","7","7","3","4","1","2","7","7","6","5","7","634477074911854592","李","308","Male","[""坏他"",""坏我"",""好我"",""好他""]","[""弱他"",""弱我"",""强我"",""强他""]","","","","","","","","no","","","","","","","","","SRET","EW_formal","","key","j","16.95584347826054","768","428","朋友","浅薄","Negative","ability","","","","","","","","","","",""
"935","","f","psychophysics","89","444744","0.0-7.0-3.0-0.75","6","5","7","7","6","5","4","5","5","5","5","2","-2","2","1","1","2","0","2","5","5","5","4","5","4","5","5","4","5","7","8","7","8","7","7","6","8","7","7","6","2","7","7","5","7","1","6","6","1","6","3","7","6","5","7","6","2","2","7","3","6","2","2","3","7","5","7","7","7","7","3","4","1","2","7","7","6","5","7","634477074911854592","李","308","Male","[""坏他"",""坏我"",""好我"",""好他""]","[""弱他"",""弱我"",""强我"",""强他""]","","","","","","","","yes","","","","","","","","","SRET","EW_formal","","key","f","16.812192982456367","768","428","朋友","精干","Positive","ability","","","","","","","","","","",""
"920","","j","psychophysics","90","446665","0.0-7.0-3.0-0.76","6","5","7","7","6","5","4","5","5","5","5","2","-2","2","1","1","2","0","2","5","5","5","4","5","4","5","5","4","5","7","8","7","8","7","7","6","8","7","7","6","2","7","7","5","7","1","6","6","1","6","3","7","6","5","7","6","2","2","7","3","6","2","2","3","7","5","7","7","7","7","3","4","1","2","7","7","6","5","7","634477074911854592","李","308","Male","[""坏他"",""坏我"",""好我"",""好他""]","[""弱他"",""弱我"",""强我"",""强他""]","","","","","","","","no","","","","","","","","","SRET","EW_formal","","key","j","16.813486725663708","768","428","自己","弱智","Negative","ability","","","","","","","","","","",""
"1246","","f","psychophysics","91","448912","0.0-7.0-3.0-0.77","6","5","7","7","6","5","4","5","5","5","5","2","-2","2","1","1","2","0","2","5","5","5","4","5","4","5","5","4","5","7","8","7","8","7","7","6","8","7","7","6","2","7","7","5","7","1","6","6","1","6","3","7","6","5","7","6","2","2","7","3","6","2","2","3","7","5","7","7","7","7","3","4","1","2","7","7","6","5","7","634477074911854592","李","308","Male","[""坏他"",""坏我"",""好我"",""好他""]","[""弱他"",""弱我"",""强我"",""强他""]","","","","","","","","yes","","","","","","","","","SRET","EW_formal","","key","f","16.791308270676737","768","428","朋友","果断","Positive","ability","","","","","","","","","","",""
"894","","j","psychophysics","92","450808","0.0-7.0-3.0-0.78","6","5","7","7","6","5","4","5","5","5","5","2","-2","2","1","1","2","0","2","5","5","5","4","5","4","5","5","4","5","7","8","7","8","7","7","6","8","7","7","6","2","7","7","5","7","1","6","6","1","6","3","7","6","5","7","6","2","2","7","3","6","2","2","3","7","5","7","7","7","7","3","4","1","2","7","7","6","5","7","634477074911854592","李","308","Male","[""坏他"",""坏我"",""好我"",""好他""]","[""弱他"",""弱我"",""强我"",""强他""]","","","","","","","","no","","","","","","","","","SRET","EW_formal","","key","j","16.814803571428847","768","428","朋友","缺德","Negative","morality","","","","","","","","","","",""
"1282","","f","psychophysics","93","453091","0.0-7.0-3.0-0.79","6","5","7","7","6","5","4","5","5","5","5","2","-2","2","1","1","2","0","2","5","5","5","4","5","4","5","5","4","5","7","8","7","8","7","7","6","8","7","7","6","2","7","7","5","7","1","6","6","1","6","3","7","6","5","7","6","2","2","7","3","6","2","2","3","7","5","7","7","7","7","3","4","1","2","7","7","6","5","7","634477074911854592","李","308","Male","[""坏他"",""坏我"",""好我"",""好他""]","[""弱他"",""弱我"",""强我"",""强他""]","","","","","","","","yes","","","","","","","","","SRET","EW_formal","","key","f","16.789451851851858","768","428","自己","拖拉","Negative","ability","","","","","","","","","","",""
"1451","","j","psychophysics","94","455544","0.0-7.0-3.0-0.80","6","5","7","7","6","5","4","5","5","5","5","2","-2","2","1","1","2","0","2","5","5","5","4","5","4","5","5","4","5","7","8","7","8","7","7","6","8","7","7","6","2","7","7","5","7","1","6","6","1","6","3","7","6","5","7","6","2","2","7","3","6","2","2","3","7","5","7","7","7","7","3","4","1","2","7","7","6","5","7","634477074911854592","李","308","Male","[""坏他"",""坏我"",""好我"",""好他""]","[""弱他"",""弱我"",""强我"",""强他""]","","","","","","","","no","","","","","","","","","SRET","EW_formal","","key","j","16.89747222222205","768","428","自己","腐败","Negative","morality","","","","","","","","","","",""
"1095","","j","psychophysics","95","457644","0.0-7.0-3.0-0.81","6","5","7","7","6","5","4","5","5","5","5","2","-2","2","1","1","2","0","2","5","5","5","4","5","4","5","5","4","5","7","8","7","8","7","7","6","8","7","7","6","2","7","7","5","7","1","6","6","1","6","3","7","6","5","7","6","2","2","7","3","6","2","2","3","7","5","7","7","7","7","3","4","1","2","7","7","6","5","7","634477074911854592","李","308","Male","[""坏他"",""坏我"",""好我"",""好他""]","[""弱他"",""弱我"",""强我"",""强他""]","","","","","","","","no","","","","","","","","","SRET","EW_formal","","key","j","16.800403225806452","768","428","朋友","奸险","Negative","morality","","","","","","","","","","",""
"1103","","f","psychophysics","96","459749","0.0-7.0-3.0-0.82","6","5","7","7","6","5","4","5","5","5","5","2","-2","2","1","1","2","0","2","5","5","5","4","5","4","5","5","4","5","7","8","7","8","7","7","6","8","7","7","6","2","7","7","5","7","1","6","6","1","6","3","7","6","5","7","6","2","2","7","3","6","2","2","3","7","5","7","7","7","7","3","4","1","2","7","7","6","5","7","634477074911854592","李","308","Male","[""坏他"",""坏我"",""好我"",""好他""]","[""弱他"",""弱我"",""强我"",""强他""]","","","","","","","","yes","","","","","","","","","SRET","EW_formal","","key","f","16.800403225806452","768","428","自己","慷慨","Positive","morality","","","","","","","","","","",""
"1094","","f","psychophysics","97","461844","0.0-7.0-3.0-0.83","6","5","7","7","6","5","4","5","5","5","5","2","-2","2","1","1","2","0","2","5","5","5","4","5","4","5","5","4","5","7","8","7","8","7","7","6","8","7","7","6","2","7","7","5","7","1","6","6","1","6","3","7","6","5","7","6","2","2","7","3","6","2","2","3","7","5","7","7","7","7","3","4","1","2","7","7","6","5","7","634477074911854592","李","308","Male","[""坏他"",""坏我"",""好我"",""好他""]","[""弱他"",""弱我"",""强我"",""强他""]","","","","","","","","yes","","","","","","","","","SRET","EW_formal","","key","f","16.800403225806452","768","428","朋友","扎实","Positive","ability","","","","","","","","","","",""
"1084","","j","psychophysics","98","463930","0.0-7.0-3.0-0.84","6","5","7","7","6","5","4","5","5","5","5","2","-2","2","1","1","2","0","2","5","5","5","4","5","4","5","5","4","5","7","8","7","8","7","7","6","8","7","7","6","2","7","7","5","7","1","6","6","1","6","3","7","6","5","7","6","2","2","7","3","6","2","2","3","7","5","7","7","7","7","3","4","1","2","7","7","6","5","7","634477074911854592","李","308","Male","[""坏他"",""坏我"",""好我"",""好他""]","[""弱他"",""弱我"",""强我"",""强他""]","","","","","","","","no","","","","","","","","","SRET","EW_formal","","key","j","16.801495934959608","768","428","自己","缓慢","Negative","ability","","","","","","","","","","",""
"934","","f","psychophysics","99","465864","0.0-7.0-3.0-0.85","6","5","7","7","6","5","4","5","5","5","5","2","-2","2","1","1","2","0","2","5","5","5","4","5","4","5","5","4","5","7","8","7","8","7","7","6","8","7","7","6","2","7","7","5","7","1","6","6","1","6","3","7","6","5","7","6","2","2","7","3","6","2","2","3","7","5","7","7","7","7","3","4","1","2","7","7","6","5","7","634477074911854592","李","308","Male","[""坏他"",""坏我"",""好我"",""好他""]","[""弱他"",""弱我"",""强我"",""强他""]","","","","","","","","yes","","","","","","","","","SRET","EW_formal","","key","f","16.96097345132766","768","428","自己","主见","Positive","ability","","","","","","","","","","",""
"1111","","j","psychophysics","100","467986","0.0-7.0-3.0-0.86","6","5","7","7","6","5","4","5","5","5","5","2","-2","2","1","1","2","0","2","5","5","5","4","5","4","5","5","4","5","7","8","7","8","7","7","6","8","7","7","6","2","7","7","5","7","1","6","6","1","6","3","7","6","5","7","6","2","2","7","3","6","2","2","3","7","5","7","7","7","7","3","4","1","2","7","7","6","5","7","634477074911854592","李","308","Male","[""坏他"",""坏我"",""好我"",""好他""]","[""弱他"",""弱我"",""强我"",""强他""]","","","","","","","","no","","","","","","","","","SRET","EW_formal","","key","j","16.799328000000212","768","428","朋友","低俗","Negative","morality","","","","","","","","","","",""
"1128","","f","psychophysics","101","470115","0.0-7.0-3.0-0.87","6","5","7","7","6","5","4","5","5","5","5","2","-2","2","1","1","2","0","2","5","5","5","4","5","4","5","5","4","5","7","8","7","8","7","7","6","8","7","7","6","2","7","7","5","7","1","6","6","1","6","3","7","6","5","7","6","2","2","7","3","6","2","2","3","7","5","7","7","7","7","3","4","1","2","7","7","6","5","7","634477074911854592","李","308","Male","[""坏他"",""坏我"",""好我"",""好他""]","[""弱他"",""弱我"",""强我"",""强他""]","","","","","","","","yes","","","","","","","","","SRET","EW_formal","","key","f","16.798269841270262","768","428","朋友","素养","Positive","morality","","","","","","","","","","",""
"19558","
    <p><div style='color:white;font-size:35px; line-height:20px;'>计算任务</div></p><br>
    <p><div style='color:red;font-size:25px; line-height:20px;'>接下来，您将看到一些四则运算题，<b>请从键盘选择 0-9 进行反应。</b></div></p>
    <p><div style='color:red;font-size:25px; line-height:20px;'>请尽可能快地进行计算，计算的速度和正确率将影响报酬的发放。</div></p>
    <p><div class='footer' style='color:white;font-size:25px; line-height:20px;'>如果对本实验还有不清楚之处，请立即向实验员咨询。</p><p style='color:white;font-size:25px; line-height:20px;'>如果您明白了规则：</p><p style='color:white;font-size:22px; line-height:20px;'>请按 继续 进入练习</p>
    </div>
    ","0","html-button-response","102","489674","0.0-7.0-4.0","6","5","7","7","6","5","4","5","5","5","5","2","-2","2","1","1","2","0","2","5","5","5","4","5","4","5","5","4","5","7","8","7","8","7","7","6","8","7","7","6","2","7","7","5","7","1","6","6","1","6","3","7","6","5","7","6","2","2","7","3","6","2","2","3","7","5","7","7","7","7","3","4","1","2","7","7","6","5","7","634477074911854592","李","308","Male","[""坏他"",""坏我"",""好我"",""好他""]","[""弱他"",""弱我"",""强我"",""强他""]","","","","","","","","","","","","","","","","","SRET_math","math_instructions","Wed Jan 10 2024 17:21:15 GMT+0800 (中国标准时间)","","","","","","","","","","","","","","","","","","","",""
"2470","","8","psychophysics","103","492147","0.0-7.0-5.0-0.0","6","5","7","7","6","5","4","5","5","5","5","2","-2","2","1","1","2","0","2","5","5","5","4","5","4","5","5","4","5","7","8","7","8","7","7","6","8","7","7","6","2","7","7","5","7","1","6","6","1","6","3","7","6","5","7","6","2","2","7","3","6","2","2","3","7","5","7","7","7","7","3","4","1","2","7","7","6","5","7","634477074911854592","李","308","Male","[""坏他"",""坏我"",""好我"",""好他""]","[""弱他"",""弱我"",""强我"",""强他""]","","","","","","","","8","","","","","","","","","SRET","SRET_math_calculate","","key","8","16.892748299319706","768","428","","","","","1+7= ?","8","1","","","","","","","",""
"2187","","5","psychophysics","104","494336","0.0-7.0-5.0-0.1","6","5","7","7","6","5","4","5","5","5","5","2","-2","2","1","1","2","0","2","5","5","5","4","5","4","5","5","4","5","7","8","7","8","7","7","6","8","7","7","6","2","7","7","5","7","1","6","6","1","6","3","7","6","5","7","6","2","2","7","3","6","2","2","3","7","5","7","7","7","7","3","4","1","2","7","7","6","5","7","634477074911854592","李","308","Male","[""坏他"",""坏我"",""好我"",""好他""]","[""弱他"",""弱我"",""强我"",""强他""]","","","","","","","","5","","","","","","","","","SRET","SRET_math_calculate","","key","5","17.05968503937021","768","428","","","","","5/1= ?","5","1","","","","","","","",""
"2324","","2","psychophysics","105","496662","0.0-7.0-5.0-0.2","6","5","7","7","6","5","4","5","5","5","5","2","-2","2","1","1","2","0","2","5","5","5","4","5","4","5","5","4","5","7","8","7","8","7","7","6","8","7","7","6","2","7","7","5","7","1","6","6","1","6","3","7","6","5","7","6","2","2","7","3","6","2","2","3","7","5","7","7","7","7","3","4","1","2","7","7","6","5","7","634477074911854592","李","308","Male","[""坏他"",""坏我"",""好我"",""好他""]","[""弱他"",""弱我"",""强我"",""强他""]","","","","","","","","2","","","","","","","","","SRET","SRET_math_calculate","","key","2","16.78676811594177","768","428","","","","","29-27= ?","2","1","","","","","","","",""
"2283","","5","psychophysics","106","498948","0.0-7.0-5.0-0.3","6","5","7","7","6","5","4","5","5","5","5","2","-2","2","1","1","2","0","2","5","5","5","4","5","4","5","5","4","5","7","8","7","8","7","7","6","8","7","7","6","2","7","7","5","7","1","6","6","1","6","3","7","6","5","7","6","2","2","7","3","6","2","2","3","7","5","7","7","7","7","3","4","1","2","7","7","6","5","7","634477074911854592","李","308","Male","[""坏他"",""坏我"",""好我"",""好他""]","[""弱他"",""弱我"",""强我"",""强他""]","","","","","","","","5","","","","","","","","","SRET","SRET_math_calculate","","key","5","16.789451851851858","768","428","","","","","15-10= ?","5","1","","","","","","","",""
"2097","","7","psychophysics","107","501048","0.0-7.0-5.0-0.4","6","5","7","7","6","5","4","5","5","5","5","2","-2","2","1","1","2","0","2","5","5","5","4","5","4","5","5","4","5","7","8","7","8","7","7","6","8","7","7","6","2","7","7","5","7","1","6","6","1","6","3","7","6","5","7","6","2","2","7","3","6","2","2","3","7","5","7","7","7","7","3","4","1","2","7","7","6","5","7","634477074911854592","李","308","Male","[""坏他"",""坏我"",""好我"",""好他""]","[""弱他"",""弱我"",""强我"",""强他""]","","","","","","","","7","","","","","","","","","SRET","SRET_math_calculate","","key","7","16.9369918699187","768","428","","","","","7*1=  ?","7","1","","","","","","","",""
"2286","","9","psychophysics","108","503335","0.0-7.0-5.0-0.5","6","5","7","7","6","5","4","5","5","5","5","2","-2","2","1","1","2","0","2","5","5","5","4","5","4","5","5","4","5","7","8","7","8","7","7","6","8","7","7","6","2","7","7","5","7","1","6","6","1","6","3","7","6","5","7","6","2","2","7","3","6","2","2","3","7","5","7","7","7","7","3","4","1","2","7","7","6","5","7","634477074911854592","李","308","Male","[""坏他"",""坏我"",""好我"",""好他""]","[""弱他"",""弱我"",""强我"",""强他""]","","","","","","","","9","","","","","","","","","SRET","SRET_math_calculate","","key","9","16.914746268656724","768","428","","","","","18/2= ?","9","1","","","","","","","",""
"2291","","2","psychophysics","109","505631","0.0-7.0-5.0-0.6","6","5","7","7","6","5","4","5","5","5","5","2","-2","2","1","1","2","0","2","5","5","5","4","5","4","5","5","4","5","7","8","7","8","7","7","6","8","7","7","6","2","7","7","5","7","1","6","6","1","6","3","7","6","5","7","6","2","2","7","3","6","2","2","3","7","5","7","7","7","7","3","4","1","2","7","7","6","5","7","634477074911854592","李","308","Male","[""坏他"",""坏我"",""好我"",""好他""]","[""弱他"",""弱我"",""强我"",""强他""]","","","","","","","","2","","","","","","","","","SRET","SRET_math_calculate","","key","2","16.788544117647263","768","428","","","","","8-6= ?","2","1","","","","","","","",""
"2086","","9","psychophysics","110","507719","0.0-7.0-5.0-0.7","6","5","7","7","6","5","4","5","5","5","5","2","-2","2","1","1","2","0","2","5","5","5","4","5","4","5","5","4","5","7","8","7","8","7","7","6","8","7","7","6","2","7","7","5","7","1","6","6","1","6","3","7","6","5","7","6","2","2","7","3","6","2","2","3","7","5","7","7","7","7","3","4","1","2","7","7","6","5","7","634477074911854592","李","308","Male","[""坏他"",""坏我"",""好我"",""好他""]","[""弱他"",""弱我"",""强我"",""强他""]","","","","","","","","9","","","","","","","","","SRET","SRET_math_calculate","","key","9","16.666000000000256","768","428","","","","","2+7= ?","9","1","","","","","","","",""
"2309","","6","psychophysics","111","510031","0.0-7.0-5.0-0.8","6","5","7","7","6","5","4","5","5","5","5","2","-2","2","1","1","2","0","2","5","5","5","4","5","4","5","5","4","5","7","8","7","8","7","7","6","8","7","7","6","2","7","7","5","7","1","6","6","1","6","3","7","6","5","7","6","2","2","7","3","6","2","2","3","7","5","7","7","7","7","3","4","1","2","7","7","6","5","7","634477074911854592","李","308","Male","[""坏他"",""坏我"",""好我"",""好他""]","[""弱他"",""弱我"",""强我"",""强他""]","","","","","","","","6","","","","","","","","","SRET","SRET_math_calculate","","key","6","16.787649635036466","768","428","","","","","4+2= ?","6","1","","","","","","","",""
"2256","","7","psychophysics","112","512303","0.0-7.0-5.0-0.9","6","5","7","7","6","5","4","5","5","5","5","2","-2","2","1","1","2","0","2","5","5","5","4","5","4","5","5","4","5","7","8","7","8","7","7","6","8","7","7","6","2","7","7","5","7","1","6","6","1","6","3","7","6","5","7","6","2","2","7","3","6","2","2","3","7","5","7","7","7","7","3","4","1","2","7","7","6","5","7","634477074911854592","李","308","Male","[""坏他"",""坏我"",""好我"",""好他""]","[""弱他"",""弱我"",""强我"",""强他""]","","","","","","","","7","","","","","","","","","SRET","SRET_math_calculate","","key","7","16.790373134328167","768","428","","","","","1+6= ?","7","1","","","","","","","",""
"2461","","1","psychophysics","113","514767","0.0-7.0-5.0-0.10","6","5","7","7","6","5","4","5","5","5","5","2","-2","2","1","1","2","0","2","5","5","5","4","5","4","5","5","4","5","7","8","7","8","7","7","6","8","7","7","6","2","7","7","5","7","1","6","6","1","6","3","7","6","5","7","6","2","2","7","3","6","2","2","3","7","5","7","7","7","7","3","4","1","2","7","7","6","5","7","634477074911854592","李","308","Male","[""坏他"",""坏我"",""好我"",""好他""]","[""弱他"",""弱我"",""强我"",""强他""]","","","","","","","","1","","","","","","","","","SRET","SRET_math_calculate","","key","1","16.78015068493152","768","428","","","","","10-9= ?","1","1","","","","","","","",""
"2129","","9","psychophysics","114","516898","0.0-7.0-5.0-0.11","6","5","7","7","6","5","4","5","5","5","5","2","-2","2","1","1","2","0","2","5","5","5","4","5","4","5","5","4","5","7","8","7","8","7","7","6","8","7","7","6","2","7","7","5","7","1","6","6","1","6","3","7","6","5","7","6","2","2","7","3","6","2","2","3","7","5","7","7","7","7","3","4","1","2","7","7","6","5","7","634477074911854592","李","308","Male","[""坏他"",""坏我"",""好我"",""好他""]","[""弱他"",""弱我"",""强我"",""强他""]","","","","","","","","9","","","","","","","","","SRET","SRET_math_calculate","","key","9","16.798269841270262","768","428","","","","","5+4= ?","9","1","","","","","","","",""
"2573","","5","psychophysics","115","519477","0.0-7.0-5.0-0.12","6","5","7","7","6","5","4","5","5","5","5","2","-2","2","1","1","2","0","2","5","5","5","4","5","4","5","5","4","5","7","8","7","8","7","7","6","8","7","7","6","2","7","7","5","7","1","6","6","1","6","3","7","6","5","7","6","2","2","7","3","6","2","2","3","7","5","7","7","7","7","3","4","1","2","7","7","6","5","7","634477074911854592","李","308","Male","[""坏他"",""坏我"",""好我"",""好他""]","[""弱他"",""弱我"",""强我"",""强他""]","","","","","","","","5","","","","","","","","","SRET","SRET_math_calculate","","key","5","16.66599999999991","768","428","","","","","14-9= ?","5","1","","","","","","","",""
"2587","","3","psychophysics","116","522075","0.0-7.0-5.0-0.13","6","5","7","7","6","5","4","5","5","5","5","2","-2","2","1","1","2","0","2","5","5","5","4","5","4","5","5","4","5","7","8","7","8","7","7","6","8","7","7","6","2","7","7","5","7","1","6","6","1","6","3","7","6","5","7","6","2","2","7","3","6","2","2","3","7","5","7","7","7","7","3","4","1","2","7","7","6","5","7","634477074911854592","李","308","Male","[""坏他"",""坏我"",""好我"",""好他""]","[""弱他"",""弱我"",""强我"",""强他""]","","","","","","","","3","","","","","","","","","SRET","SRET_math_calculate","","key","3","16.883856209150206","768","428","","","","","11-8= ?","3","1","","","","","","","",""
"2017","","7","psychophysics","117","524094","0.0-7.0-5.0-0.14","6","5","7","7","6","5","4","5","5","5","5","2","-2","2","1","1","2","0","2","5","5","5","4","5","4","5","5","4","5","7","8","7","8","7","7","6","8","7","7","6","2","7","7","5","7","1","6","6","1","6","3","7","6","5","7","6","2","2","7","3","6","2","2","3","7","5","7","7","7","7","3","4","1","2","7","7","6","5","7","634477074911854592","李","308","Male","[""坏他"",""坏我"",""好我"",""好他""]","[""弱他"",""弱我"",""强我"",""强他""]","","","","","","","","7","","","","","","","","","SRET","SRET_math_calculate","","key","7","16.66600000000035","768","428","","","","","2+5= ?","7","1","","","","","","","",""
"2356","","8","psychophysics","118","526453","0.0-7.0-5.0-0.15","6","5","7","7","6","5","4","5","5","5","5","2","-2","2","1","1","2","0","2","5","5","5","4","5","4","5","5","4","5","7","8","7","8","7","7","6","8","7","7","6","2","7","7","5","7","1","6","6","1","6","3","7","6","5","7","6","2","2","7","3","6","2","2","3","7","5","7","7","7","7","3","4","1","2","7","7","6","5","7","634477074911854592","李","308","Male","[""坏他"",""坏我"",""好我"",""好他""]","[""弱他"",""弱我"",""强我"",""强他""]","","","","","","","","8","","","","","","","","","SRET","SRET_math_calculate","","key","8","16.905798561150785","768","428","","","","","4*2= ?","8","1","","","","","","","",""
"2052","","4","psychophysics","119","528507","0.0-7.0-5.0-0.16","6","5","7","7","6","5","4","5","5","5","5","2","-2","2","1","1","2","0","2","5","5","5","4","5","4","5","5","4","5","7","8","7","8","7","7","6","8","7","7","6","2","7","7","5","7","1","6","6","1","6","3","7","6","5","7","6","2","2","7","3","6","2","2","3","7","5","7","7","7","7","3","4","1","2","7","7","6","5","7","634477074911854592","李","308","Male","[""坏他"",""坏我"",""好我"",""好他""]","[""弱他"",""弱我"",""强我"",""强他""]","","","","","","","","4","","","","","","","","","SRET","SRET_math_calculate","","key","4","16.66600000000078","768","428","","","","","9-5= ?","4","1","","","","","","","",""
"5615","","1","psychophysics","120","534123","0.0-7.0-5.0-0.17","6","5","7","7","6","5","4","5","5","5","5","2","-2","2","1","1","2","0","2","5","5","5","4","5","4","5","5","4","5","7","8","7","8","7","7","6","8","7","7","6","2","7","7","5","7","1","6","6","1","6","3","7","6","5","7","6","2","2","7","3","6","2","2","3","7","5","7","7","7","7","3","4","1","2","7","7","6","5","7","634477074911854592","李","308","Male","[""坏他"",""坏我"",""好我"",""好他""]","[""弱他"",""弱我"",""强我"",""强他""]","","","","","","","","1","","","","","","","","","SRET","SRET_math_calculate","","key","1","16.715749253731207","768","428","","","","","43-34= ?","9","0","","","","","","","",""
"177","","1","psychophysics","121","534303","0.0-7.0-5.0-0.18","6","5","7","7","6","5","4","5","5","5","5","2","-2","2","1","1","2","0","2","5","5","5","4","5","4","5","5","4","5","7","8","7","8","7","7","6","8","7","7","6","2","7","7","5","7","1","6","6","1","6","3","7","6","5","7","6","2","2","7","3","6","2","2","3","7","5","7","7","7","7","3","4","1","2","7","7","6","5","7","634477074911854592","李","308","Male","[""坏他"",""坏我"",""好我"",""好他""]","[""弱他"",""弱我"",""强我"",""强他""]","","","","","","","","1","","","","","","","","","SRET","SRET_math_calculate","","key","1","16.66599999999162","768","428","","","","","8-5= ?","3","0","","","","","","","",""
"2833","","9","psychophysics","122","537138","0.0-7.0-5.0-0.19","6","5","7","7","6","5","4","5","5","5","5","2","-2","2","1","1","2","0","2","5","5","5","4","5","4","5","5","4","5","7","8","7","8","7","7","6","8","7","7","6","2","7","7","5","7","1","6","6","1","6","3","7","6","5","7","6","2","2","7","3","6","2","2","3","7","5","7","7","7","7","3","4","1","2","7","7","6","5","7","634477074911854592","李","308","Male","[""坏他"",""坏我"",""好我"",""好他""]","[""弱他"",""弱我"",""强我"",""强他""]","","","","","","","","9","","","","","","","","","SRET","SRET_math_calculate","","key","9","16.76520238095171","768","428","","","","","81/9= ?","9","1","","","","","","","",""
"3781","","5","psychophysics","123","540935","0.0-7.0-5.0-0.20","6","5","7","7","6","5","4","5","5","5","5","2","-2","2","1","1","2","0","2","5","5","5","4","5","4","5","5","4","5","7","8","7","8","7","7","6","8","7","7","6","2","7","7","5","7","1","6","6","1","6","3","7","6","5","7","6","2","2","7","3","6","2","2","3","7","5","7","7","7","7","3","4","1","2","7","7","6","5","7","634477074911854592","李","308","Male","[""坏他"",""坏我"",""好我"",""好他""]","[""弱他"",""弱我"",""强我"",""强他""]","","","","","","","","5","","","","","","","","","SRET","SRET_math_calculate","","key","5","16.73974336283199","768","428","","","","","8-3= ? ","5","1","","","","","","","",""
"2066","","7","psychophysics","124","543003","0.0-7.0-5.0-0.21","6","5","7","7","6","5","4","5","5","5","5","2","-2","2","1","1","2","0","2","5","5","5","4","5","4","5","5","4","5","7","8","7","8","7","7","6","8","7","7","6","2","7","7","5","7","1","6","6","1","6","3","7","6","5","7","6","2","2","7","3","6","2","2","3","7","5","7","7","7","7","3","4","1","2","7","7","6","5","7","634477074911854592","李","308","Male","[""坏他"",""坏我"",""好我"",""好他""]","[""弱他"",""弱我"",""强我"",""强他""]","","","","","","","","7","","","","","","","","","SRET","SRET_math_calculate","","key","7","16.665999999999567","768","428","","","","","9-2= ?","7","1","","","","","","","",""
"4020","","8","psychophysics","125","547025","0.0-7.0-5.0-0.22","6","5","7","7","6","5","4","5","5","5","5","2","-2","2","1","1","2","0","2","5","5","5","4","5","4","5","5","4","5","7","8","7","8","7","7","6","8","7","7","6","2","7","7","5","7","1","6","6","1","6","3","7","6","5","7","6","2","2","7","3","6","2","2","3","7","5","7","7","7","7","3","4","1","2","7","7","6","5","7","634477074911854592","李","308","Male","[""坏他"",""坏我"",""好我"",""好他""]","[""弱他"",""弱我"",""强我"",""强他""]","","","","","","","","8","","","","","","","","","SRET","SRET_math_calculate","","key","8","16.665999999999865","768","428","","","","","13-5= ?","8","1","","","","","","","",""
"2061","","5","psychophysics","126","549089","0.0-7.0-5.0-0.23","6","5","7","7","6","5","4","5","5","5","5","2","-2","2","1","1","2","0","2","5","5","5","4","5","4","5","5","4","5","7","8","7","8","7","7","6","8","7","7","6","2","7","7","5","7","1","6","6","1","6","3","7","6","5","7","6","2","2","7","3","6","2","2","3","7","5","7","7","7","7","3","4","1","2","7","7","6","5","7","634477074911854592","李","308","Male","[""坏他"",""坏我"",""好我"",""好他""]","[""弱他"",""弱我"",""强我"",""强他""]","","","","","","","","5","","","","","","","","","SRET","SRET_math_calculate","","key","5","16.666000000000516","768","428","","","","","2+3= ?","5","1","","","","","","","",""
"2029","","8","psychophysics","127","551120","0.0-7.0-5.0-0.24","6","5","7","7","6","5","4","5","5","5","5","2","-2","2","1","1","2","0","2","5","5","5","4","5","4","5","5","4","5","7","8","7","8","7","7","6","8","7","7","6","2","7","7","5","7","1","6","6","1","6","3","7","6","5","7","6","2","2","7","3","6","2","2","3","7","5","7","7","7","7","3","4","1","2","7","7","6","5","7","634477074911854592","李","308","Male","[""坏他"",""坏我"",""好我"",""好他""]","[""弱他"",""弱我"",""强我"",""强他""]","","","","","","","","8","","","","","","","","","SRET","SRET_math_calculate","","key","8","16.666000000000086","768","428","","","","","5+3= ?","8","1","","","","","","","",""
"2149","","7","psychophysics","128","553285","0.0-7.0-5.0-0.25","6","5","7","7","6","5","4","5","5","5","5","2","-2","2","1","1","2","0","2","5","5","5","4","5","4","5","5","4","5","7","8","7","8","7","7","6","8","7","7","6","2","7","7","5","7","1","6","6","1","6","3","7","6","5","7","6","2","2","7","3","6","2","2","3","7","5","7","7","7","7","3","4","1","2","7","7","6","5","7","634477074911854592","李","308","Male","[""坏他"",""坏我"",""好我"",""好他""]","[""弱他"",""弱我"",""强我"",""强他""]","","","","","","","","7","","","","","","","","","SRET","SRET_math_calculate","","key","7","16.79620312499992","768","428","","","","","5+2= ?","7","1","","","","","","","",""
"2584","","4","psychophysics","129","555872","0.0-7.0-5.0-0.26","6","5","7","7","6","5","4","5","5","5","5","2","-2","2","1","1","2","0","2","5","5","5","4","5","4","5","5","4","5","7","8","7","8","7","7","6","8","7","7","6","2","7","7","5","7","1","6","6","1","6","3","7","6","5","7","6","2","2","7","3","6","2","2","3","7","5","7","7","7","7","3","4","1","2","7","7","6","5","7","634477074911854592","李","308","Male","[""坏他"",""坏我"",""好我"",""好他""]","[""弱他"",""弱我"",""强我"",""强他""]","","","","","","","","4","","","","","","","","","SRET","SRET_math_calculate","","key","4","16.77492810457525","768","428","","","","","20/5= ?","4","1","","","","","","","",""
"3438","","8","psychophysics","130","559313","0.0-7.0-5.0-0.27","6","5","7","7","6","5","4","5","5","5","5","2","-2","2","1","1","2","0","2","5","5","5","4","5","4","5","5","4","5","7","8","7","8","7","7","6","8","7","7","6","2","7","7","5","7","1","6","6","1","6","3","7","6","5","7","6","2","2","7","3","6","2","2","3","7","5","7","7","7","7","3","4","1","2","7","7","6","5","7","634477074911854592","李","308","Male","[""坏他"",""坏我"",""好我"",""好他""]","[""弱他"",""弱我"",""强我"",""强他""]","","","","","","","","8","","","","","","","","","SRET","SRET_math_calculate","","key","8","16.666000000000135","768","428","","","","","11-3= ?","8","1","","","","","","","",""
"2422","","2","psychophysics","131","561737","0.0-7.0-5.0-0.28","6","5","7","7","6","5","4","5","5","5","5","2","-2","2","1","1","2","0","2","5","5","5","4","5","4","5","5","4","5","7","8","7","8","7","7","6","8","7","7","6","2","7","7","5","7","1","6","6","1","6","3","7","6","5","7","6","2","2","7","3","6","2","2","3","7","5","7","7","7","7","3","4","1","2","7","7","6","5","7","634477074911854592","李","308","Male","[""坏他"",""坏我"",""好我"",""好他""]","[""弱他"",""弱我"",""强我"",""强他""]","","","","","","","","2","","","","","","","","","SRET","SRET_math_calculate","","key","2","16.781736111110757","768","428","","","","","18/9= ?","2","1","","","","","","","",""
"2021","","5","psychophysics","132","563761","0.0-7.0-5.0-0.29","6","5","7","7","6","5","4","5","5","5","5","2","-2","2","1","1","2","0","2","5","5","5","4","5","4","5","5","4","5","7","8","7","8","7","7","6","8","7","7","6","2","7","7","5","7","1","6","6","1","6","3","7","6","5","7","6","2","2","7","3","6","2","2","3","7","5","7","7","7","7","3","4","1","2","7","7","6","5","7","634477074911854592","李","308","Male","[""坏他"",""坏我"",""好我"",""好他""]","[""弱他"",""弱我"",""强我"",""强他""]","","","","","","","","5","","","","","","","","","SRET","SRET_math_calculate","","key","5","16.66600000000035","768","428","","","","","10-5= ?","5","1","","","","","","","",""
"2137","","8","psychophysics","133","565912","0.0-7.0-5.0-0.30","6","5","7","7","6","5","4","5","5","5","5","2","-2","2","1","1","2","0","2","5","5","5","4","5","4","5","5","4","5","7","8","7","8","7","7","6","8","7","7","6","2","7","7","5","7","1","6","6","1","6","3","7","6","5","7","6","2","2","7","3","6","2","2","3","7","5","7","7","7","7","3","4","1","2","7","7","6","5","7","634477074911854592","李","308","Male","[""坏他"",""坏我"",""好我"",""好他""]","[""弱他"",""弱我"",""强我"",""强他""]","","","","","","","","8","","","","","","","","","SRET","SRET_math_calculate","","key","8","16.666000000000167","768","428","","","","","1*8= ?","8","1","","","","","","","",""
"1972","","4","psychophysics","134","567887","0.0-7.0-5.0-0.31","6","5","7","7","6","5","4","5","5","5","5","2","-2","2","1","1","2","0","2","5","5","5","4","5","4","5","5","4","5","7","8","7","8","7","7","6","8","7","7","6","2","7","7","5","7","1","6","6","1","6","3","7","6","5","7","6","2","2","7","3","6","2","2","3","7","5","7","7","7","7","3","4","1","2","7","7","6","5","7","634477074911854592","李","308","Male","[""坏他"",""坏我"",""好我"",""好他""]","[""弱他"",""弱我"",""强我"",""强他""]","","","","","","","","4","","","","","","","","","SRET","SRET_math_calculate","","key","4","16.665999999999904","768","428","","","","","3+1= ?","4","1","","","","","","","",""
"2351","","2","psychophysics","135","570240","0.0-7.0-5.0-0.32","6","5","7","7","6","5","4","5","5","5","5","2","-2","2","1","1","2","0","2","5","5","5","4","5","4","5","5","4","5","7","8","7","8","7","7","6","8","7","7","6","2","7","7","5","7","1","6","6","1","6","3","7","6","5","7","6","2","2","7","3","6","2","2","3","7","5","7","7","7","7","3","4","1","2","7","7","6","5","7","634477074911854592","李","308","Male","[""坏他"",""坏我"",""好我"",""好他""]","[""弱他"",""弱我"",""强我"",""强他""]","","","","","","","","2","","","","","","","","","SRET","SRET_math_calculate","","key","2","16.90753623188399","768","428","","","","","12/6= ?","2","1","","","","","","","",""
"2037","","9","psychophysics","136","572279","0.0-7.0-5.0-0.33","6","5","7","7","6","5","4","5","5","5","5","2","-2","2","1","1","2","0","2","5","5","5","4","5","4","5","5","4","5","7","8","7","8","7","7","6","8","7","7","6","2","7","7","5","7","1","6","6","1","6","3","7","6","5","7","6","2","2","7","3","6","2","2","3","7","5","7","7","7","7","3","4","1","2","7","7","6","5","7","634477074911854592","李","308","Male","[""坏他"",""坏我"",""好我"",""好他""]","[""弱他"",""弱我"",""强我"",""强他""]","","","","","","","","9","","","","","","","","","SRET","SRET_math_calculate","","key","9","16.804883333333418","768","428","","","","","1+8= ?","9","1","","","","","","","",""
"2190","","0","psychophysics","137","574472","0.0-7.0-5.0-0.34","6","5","7","7","6","5","4","5","5","5","5","2","-2","2","1","1","2","0","2","5","5","5","4","5","4","5","5","4","5","7","8","7","8","7","7","6","8","7","7","6","2","7","7","5","7","1","6","6","1","6","3","7","6","5","7","6","2","2","7","3","6","2","2","3","7","5","7","7","7","7","3","4","1","2","7","7","6","5","7","634477074911854592","李","308","Male","[""坏他"",""坏我"",""好我"",""好他""]","[""弱他"",""弱我"",""强我"",""强他""]","","","","","","","","0","","","","","","","","","SRET","SRET_math_calculate","","key","0","16.924387596899557","768","428","","","","","7*0= ?","0","1","","","","","","","",""
"2113","","7","psychophysics","138","576587","0.0-7.0-5.0-0.35","6","5","7","7","6","5","4","5","5","5","5","2","-2","2","1","1","2","0","2","5","5","5","4","5","4","5","5","4","5","7","8","7","8","7","7","6","8","7","7","6","2","7","7","5","7","1","6","6","1","6","3","7","6","5","7","6","2","2","7","3","6","2","2","3","7","5","7","7","7","7","3","4","1","2","7","7","6","5","7","634477074911854592","李","308","Male","[""坏他"",""坏我"",""好我"",""好他""]","[""弱他"",""弱我"",""强我"",""强他""]","","","","","","","","7","","","","","","","","","SRET","SRET_math_calculate","","key","7","16.665999999999748","768","428","","","","","4+3= ?","7","1","","","","","","","",""
"2232","","3","psychophysics","139","578826","0.0-7.0-5.0-0.36","6","5","7","7","6","5","4","5","5","5","5","2","-2","2","1","1","2","0","2","5","5","5","4","5","4","5","5","4","5","7","8","7","8","7","7","6","8","7","7","6","2","7","7","5","7","1","6","6","1","6","3","7","6","5","7","6","2","2","7","3","6","2","2","3","7","5","7","7","7","7","3","4","1","2","7","7","6","5","7","634477074911854592","李","308","Male","[""坏他"",""坏我"",""好我"",""好他""]","[""弱他"",""弱我"",""强我"",""强他""]","","","","","","","","3","","","","","","","","","SRET","SRET_math_calculate","","key","3","16.79225757575742","768","428","","","","","12/4= ?","3","1","","","","","","","",""
"3834","","7","psychophysics","140","582661","0.0-7.0-5.0-0.37","6","5","7","7","6","5","4","5","5","5","5","2","-2","2","1","1","2","0","2","5","5","5","4","5","4","5","5","4","5","7","8","7","8","7","7","6","8","7","7","6","2","7","7","5","7","1","6","6","1","6","3","7","6","5","7","6","2","2","7","3","6","2","2","3","7","5","7","7","7","7","3","4","1","2","7","7","6","5","7","634477074911854592","李","308","Male","[""坏他"",""坏我"",""好我"",""好他""]","[""弱他"",""弱我"",""强我"",""强他""]","","","","","","","","7","","","","","","","","","SRET","SRET_math_calculate","","key","7","16.665999999999855","768","428","","","","","12-5= ?","7","1","","","","","","","",""
"2132","","0","psychophysics","141","584795","0.0-7.0-5.0-0.38","6","5","7","7","6","5","4","5","5","5","5","2","-2","2","1","1","2","0","2","5","5","5","4","5","4","5","5","4","5","7","8","7","8","7","7","6","8","7","7","6","2","7","7","5","7","1","6","6","1","6","3","7","6","5","7","6","2","2","7","3","6","2","2","3","7","5","7","7","7","7","3","4","1","2","7","7","6","5","7","634477074911854592","李","308","Male","[""坏他"",""坏我"",""好我"",""好他""]","[""弱他"",""弱我"",""强我"",""强他""]","","","","","","","","0","","","","","","","","","SRET","SRET_math_calculate","","key","0","16.665999999999503","768","428","","","","","12-12= ?","0","1","","","","","","","",""
"2048","","8","psychophysics","142","586845","0.0-7.0-5.0-0.39","6","5","7","7","6","5","4","5","5","5","5","2","-2","2","1","1","2","0","2","5","5","5","4","5","4","5","5","4","5","7","8","7","8","7","7","6","8","7","7","6","2","7","7","5","7","1","6","6","1","6","3","7","6","5","7","6","2","2","7","3","6","2","2","3","7","5","7","7","7","7","3","4","1","2","7","7","6","5","7","634477074911854592","李","308","Male","[""坏他"",""坏我"",""好我"",""好他""]","[""弱他"",""弱我"",""强我"",""强他""]","","","","","","","","8","","","","","","","","","SRET","SRET_math_calculate","","key","8","16.66600000000078","768","428","","","","","3+5= ?","8","1","","","","","","","",""
