"rt","stimulus","response","trial_type","trial_index","time_elapsed","internal_node_id","swb_1","swb_2","swb_3","swb_4","swb_5","LOT_1","LOT_2","LOT_3","LOT_4","LOT_5","LOT_6","IPC_1","IPC_2","IPC_3","IPC_4","IPC_5","IPC_6","IPC_7","IPC_8","MorIden_1","MorIden_2","MorIden_3","MorIden_4","MorIden_5","MorIden_6","MorIden_7","MorIden_8","MorIden_9","MorIden_10","moralSeImag_1","moralSeImag_2","moralSeImag_3","moralSeImag_4","moralSeImag_5","moralSeImag_6","moralSeImag_7","moralSeImag_8","moralSeImag_9","sde_1","sde_2","sde_3","sde_4","sde_5","sde_6","sde_7","sde_8","sde_9","sde_10","trap2","sde_11","sde_12","sde_13","sde_14","sde_15","sde_16","sde_17","sde_18","sde_19","sde_20","IM_1","IM_2","IM_3","IM_4","IM_5","IM_6","IM_7","IM_8","IM_9","IM_10","IM_11","IM_12","IM_13","IM_14","IM_15","IM_16","IM_17","IM_18","IM_19","IM_20","subj_idx","friend_name","ParticipantID","Sex","Word","Word2","value","success","timeout","failed_images","failed_audio","failed_video","user_agent","responses","item_order","radio_event_ids","radio_event_times","key_event_times","mouse_event_times","straightlining","zigzagging","honeypot","task_id","screen_id","time_stamp","response_type","key_press","avg_frame_time","center_x","center_y","person","word","valence","domain","math","correct_response","correct","status","view_history","identity","duration","Image","condition","question_order","trap2_item"
"5110","
   <p><div style='color:white; font-size: 25px'>您好，欢迎参加本次实验。</div></p>
   <p><div style='color:white; font-size: 25px'>为充分保障您的权利，请确保您已经知晓并同意《参与实验同意书》以及《数据公开知情同意书》。</div></p>
   <p><div style='color:white; font-size: 25px'>如果您未见过上述内容，请咨询实验员。</div></p>
   <p style='color:white; font-size: 25px'>如果您选择继续实验，则表示您已经清楚两份知情同意书的内容并同意。</p>
   <p><div style = ""color: pink;font-size:30px;"">请确保您记得day0的实验编号，您将在本次实验输入该编号，若您忘记，请咨询实验员后作答。</div></p>
   <p><div style = ""color:lightblue;font-size:25px;"">请您尽可能认真地作答，我们将依据您在各问卷和按键任务中的作答质量发放报酬。</div></p>
   <p> <div style = ""color: green""><按空格键至下页></div> </p>
   "," ","html-keyboard-response","0","5112","0.0-0.0","5","4","4","3","2","4","2","3","4","4","5","1","-2","-1","0","-1","1","1","1","4","4","5","5","5","3","3","4","4","3","4","6","4","6","4","5","6","6","7","5","5","6","3","3","3","5","5","5","5","1","3","2","6","3","2","5","5","5","5","3","3","5","4","3","4","6","3","6","3","6","6","5","6","5","4","5","3","5","6","5","790996128928768002","徐","283","Female","[""坏她"",""好我"",""好她"",""坏我""]","[""弱她"",""强我"",""强她"",""弱我""]","","","","","","","","","","","","","","","","","","","","","","","","","","","","","","","","","","","","","","",""
"","","","call-function","1","5113","0.0-1.0-0.0","5","4","4","3","2","4","2","3","4","4","5","1","-2","-1","0","-1","1","1","1","4","4","5","5","5","3","3","4","4","3","4","6","4","6","4","5","6","6","7","5","5","6","3","3","3","5","5","5","5","1","3","2","6","3","2","5","5","5","5","3","3","5","4","3","4","6","3","6","3","6","6","5","6","5","4","5","3","5","6","5","790996128928768002","徐","283","Female","[""坏她"",""好我"",""好她"",""坏我""]","[""弱她"",""强我"",""强她"",""弱我""]","","","","","","","","","","","","","","","","","","","","","","","","","","","","","","","","","","","","","","",""
"21431","","[{""name"":""Sex"",""value"":""1""},{""name"":""friend_name"",""value"":""徐""},{""name"":""ParticipantID"",""value"":""283""}]","survey-html-form","2","26545","0.0-1.0-1.0","5","4","4","3","2","4","2","3","4","4","5","1","-2","-1","0","-1","1","1","1","4","4","5","5","5","3","3","4","4","3","4","6","4","6","4","5","6","6","7","5","5","6","3","3","3","5","5","5","5","1","3","2","6","3","2","5","5","5","5","3","3","5","4","3","4","6","3","6","3","6","6","5","6","5","4","5","3","5","6","5","790996128928768002","徐","283","Female","[""坏她"",""好我"",""好她"",""坏我""]","[""弱她"",""强我"",""强她"",""弱我""]","","","","","","","","","","","","","","","","","","","","","","","","","","","","","","","","","","","","","","",""
"","","","preload","3","26892","0.0-2.0","5","4","4","3","2","4","2","3","4","4","5","1","-2","-1","0","-1","1","1","1","4","4","5","5","5","3","3","4","4","3","4","6","4","6","4","5","6","6","7","5","5","6","3","3","3","5","5","5","5","1","3","2","6","3","2","5","5","5","5","3","3","5","4","3","4","6","3","6","3","6","6","5","6","5","4","5","3","5","6","5","790996128928768002","徐","283","Female","[""坏她"",""好我"",""好她"",""坏我""]","[""弱她"",""强我"",""强她"",""弱我""]","","true","false","[]","[]","[]","","","","","","","","","","","","","","","","","","","","","","","","","","","","","","","","",""
"","","","fullscreen","4","29614","0.0-3.0","5","4","4","3","2","4","2","3","4","4","5","1","-2","-1","0","-1","1","1","1","4","4","5","5","5","3","3","4","4","3","4","6","4","6","4","5","6","6","7","5","5","6","3","3","3","5","5","5","5","1","3","2","6","3","2","5","5","5","5","3","3","5","4","3","4","6","3","6","3","6","6","5","6","5","4","5","3","5","6","5","790996128928768002","徐","283","Female","[""坏她"",""好我"",""好她"",""坏我""]","[""弱她"",""强我"",""强她"",""弱我""]","","true","","","","","{}","","","","","","","","","","","","","","","","","","","","","","","","","","","","","","","",""
"12616.400000095367","","{""Q01"":""5"",""Q02"":""4"",""Q03"":""4"",""Q04"":""3"",""Q05"":""2""}","survey-template","5","42232","0.0-4.0","5","4","4","3","2","4","2","3","4","4","5","1","-2","-1","0","-1","1","1","1","4","4","5","5","5","3","3","4","4","3","4","6","4","6","4","5","6","6","7","5","5","6","3","3","3","5","5","5","5","1","3","2","6","3","2","5","5","5","5","3","3","5","4","3","4","6","3","6","3","6","6","5","6","5","4","5","3","5","6","5","790996128928768002","徐","283","Female","[""坏她"",""好我"",""好她"",""坏我""]","[""弱她"",""强我"",""强她"",""弱我""]","","","","","","","","{""Q01"":""5"",""Q02"":""4"",""Q03"":""4"",""Q04"":""3"",""Q05"":""2""}","[0,1,2,3,4]","[""Q01"",""Q02"",""Q03"",""Q04"",""Q05""]","[4327.799999952316,7010.400000095367,8479.599999904633,9447.799999952316,11119.599999904633]","[]","[4327.799999952316,7010.400000095367,8479.599999904633,9447.799999952316,11119.599999904633,12615.5]","0.4","0.75","0","","","","","","","","","","","","","","","","","","","","","","",""
"14207.200000047684","","{""Q01"":""4"",""Q02"":""2"",""Q03"":""3"",""Q04"":""4"",""Q05"":""4"",""Q06"":""5""}","survey-template","6","56442","0.0-5.0","5","4","4","3","2","4","2","3","4","4","5","1","-2","-1","0","-1","1","1","1","4","4","5","5","5","3","3","4","4","3","4","6","4","6","4","5","6","6","7","5","5","6","3","3","3","5","5","5","5","1","3","2","6","3","2","5","5","5","5","3","3","5","4","3","4","6","3","6","3","6","6","5","6","5","4","5","3","5","6","5","790996128928768002","徐","283","Female","[""坏她"",""好我"",""好她"",""坏我""]","[""弱她"",""强我"",""强她"",""弱我""]","","","","","","","","{""Q01"":""4"",""Q02"":""2"",""Q03"":""3"",""Q04"":""4"",""Q05"":""4"",""Q06"":""5""}","[0,1,2,3,4,5]","[""Q01"",""Q03"",""Q02"",""Q04"",""Q05"",""Q06""]","[6340.600000143051,7868.100000143051,9508.100000143051,10780.200000047684,12276.400000095367,13412.5]","[]","[3244.2000000476837,6340.600000143051,7868.100000143051,9508.100000143051,10780.200000047684,12276.400000095367,13412.5,14206.600000143051]","0.3333333333333333","0.4","0","","","","","","","","","","","","","","","","","","","","","","",""
"19867.599999904633","","{""Q01"":""1"",""Q02"":""-2"",""Q03"":""-1"",""Q04"":""0"",""Q05"":""-1"",""Q06"":""1"",""Q07"":""1"",""Q08"":""1""}","survey-template","7","76312","0.0-6.0","5","4","4","3","2","4","2","3","4","4","5","1","-2","-1","0","-1","1","1","1","4","4","5","5","5","3","3","4","4","3","4","6","4","6","4","5","6","6","7","5","5","6","3","3","3","5","5","5","5","1","3","2","6","3","2","5","5","5","5","3","3","5","4","3","4","6","3","6","3","6","6","5","6","5","4","5","3","5","6","5","790996128928768002","徐","283","Female","[""坏她"",""好我"",""好她"",""坏我""]","[""弱她"",""强我"",""强她"",""弱我""]","","","","","","","","{""Q01"":""1"",""Q02"":""-2"",""Q03"":""-1"",""Q04"":""0"",""Q05"":""-1"",""Q06"":""1"",""Q07"":""1"",""Q08"":""1""}","[0,1,2,3,4,5,6,7]","[""Q01"",""Q02"",""Q03"",""Q04"",""Q05"",""Q06"",""Q07"",""Q08""]","[3154.7999999523163,4866.700000047684,8018.899999856949,10426.5,12874.799999952316,14677,17746.89999985695,18954.700000047684]","[]","[3154.7999999523163,4866.700000047684,8018.899999856949,10426.5,12874.799999952316,14677,17746.89999985695,18954.700000047684,19866.799999952316]","0.5","0.42857142857142855","0","","","","","","","","","","","","","","","","","","","","","","",""
"9765","
    <p><div style='color:white;font-size:35px; line-height:20px;'>词汇评估任务</div></p><br>
    <p><div style='color:white;font-size:25px; line-height:20px;'>请再次回忆该亲密的朋友，你们至少2年前就认识了，并且最近2年经常见面。</div></p>
    <p><div style='color:white;font-size:25px; line-height:20px;'>在本实验中，您将会看到一些形容词。</div></p>
    <p><div style='color:yellow;font-size:25px; line-height:20px;'>您的任务是判断这些形容词是否符合对您自己或您的朋友的描述。</div></p><p style='font-size:35px'>符合按<span style=""color:lightgreen""> j 键</span>，不符合按<span style=""color:red""> f 键</span></p>","0","html-button-response","8","86079","0.0-7.0-0.0","5","4","4","3","2","4","2","3","4","4","5","1","-2","-1","0","-1","1","1","1","4","4","5","5","5","3","3","4","4","3","4","6","4","6","4","5","6","6","7","5","5","6","3","3","3","5","5","5","5","1","3","2","6","3","2","5","5","5","5","3","3","5","4","3","4","6","3","6","3","6","6","5","6","5","4","5","3","5","6","5","790996128928768002","徐","283","Female","[""坏她"",""好我"",""好她"",""坏我""]","[""弱她"",""强我"",""强她"",""弱我""]","","","","","","","","","","","","","","","","","SRET_EW","EW_instructions","Wed Jan 10 2024 15:59:13 GMT+0800 (中国标准时间)","","","","","","","","","","","","","","","","","","","",""
"null","","null","psychophysics","9","89082","0.0-7.0-1.0-0.0","5","4","4","3","2","4","2","3","4","4","5","1","-2","-1","0","-1","1","1","1","4","4","5","5","5","3","3","4","4","3","4","6","4","6","4","5","6","6","7","5","5","6","3","3","3","5","5","5","5","1","3","2","6","3","2","5","5","5","5","3","3","5","4","3","4","6","3","6","3","6","6","5","6","5","4","5","3","5","6","5","790996128928768002","徐","283","Female","[""坏她"",""好我"",""好她"",""坏我""]","[""弱她"",""强我"",""强她"",""弱我""]","","","","","","","","","","","","","","","","","SRET_EW","EW_practice","","key","null","16.66611111111108","960","536","朋友","忠实","Positive","morality","","","","","","","","","","",""
"732","","j","psychophysics","10","90815","0.0-7.0-1.0-0.1","5","4","4","3","2","4","2","3","4","4","5","1","-2","-1","0","-1","1","1","1","4","4","5","5","5","3","3","4","4","3","4","6","4","6","4","5","6","6","7","5","5","6","3","3","3","5","5","5","5","1","3","2","6","3","2","5","5","5","5","3","3","5","4","3","4","6","3","6","3","6","6","5","6","5","4","5","3","5","6","5","790996128928768002","徐","283","Female","[""坏她"",""好我"",""好她"",""坏我""]","[""弱她"",""强我"",""强她"",""弱我""]","","","","","","","","yes","","","","","","","","","SRET_EW","EW_practice","","key","j","16.666019417475642","960","536","自己","刻板","Negative","ability","","","","","","","","","","",""
"null","","null","psychophysics","11","93816","0.0-7.0-1.0-0.2","5","4","4","3","2","4","2","3","4","4","5","1","-2","-1","0","-1","1","1","1","4","4","5","5","5","3","3","4","4","3","4","6","4","6","4","5","6","6","7","5","5","6","3","3","3","5","5","5","5","1","3","2","6","3","2","5","5","5","5","3","3","5","4","3","4","6","3","6","3","6","6","5","6","5","4","5","3","5","6","5","790996128928768002","徐","283","Female","[""坏她"",""好我"",""好她"",""坏我""]","[""弱她"",""强我"",""强她"",""弱我""]","","","","","","","","","","","","","","","","","SRET_EW","EW_practice","","key","null","16.665921787709483","960","536","朋友","徇私","Negative","morality","","","","","","","","","","",""
"1135","","j","psychophysics","12","95952","0.0-7.0-1.0-0.3","5","4","4","3","2","4","2","3","4","4","5","1","-2","-1","0","-1","1","1","1","4","4","5","5","5","3","3","4","4","3","4","6","4","6","4","5","6","6","7","5","5","6","3","3","3","5","5","5","5","1","3","2","6","3","2","5","5","5","5","3","3","5","4","3","4","6","3","6","3","6","6","5","6","5","4","5","3","5","6","5","790996128928768002","徐","283","Female","[""坏她"",""好我"",""好她"",""坏我""]","[""弱她"",""强我"",""强她"",""弱我""]","","","","","","","","yes","","","","","","","","","SRET_EW","EW_practice","","key","j","16.665624999999977","960","536","自己","严谨","Positive","ability","","","","","","","","","","",""
"108623","
    <p><div style='color:white;font-size:35px; line-height:20px;'>请您再次阅读实验要求</div></p><br>
    <p><div style='color:white;font-size:25px; line-height:20px;'>请回忆某一个亲密的朋友，你们至少2年前就认识了，并且最近2年经常见面。</div></p>
    <p><div style='color:white;font-size:25px; line-height:20px;'>在本实验中，您将会看到一些形容词。</div></p>
    <p><div style='color:yellow;font-size:25px; line-height:20px;'>您的任务是判断这些形容词是否符合对您自己或您的朋友的描述。</div></p>
    <p><div class='footer' style='font-size:25px; line-height:20px;'>如果对本实验还有不清楚之处，请立即向实验员咨询。</p><p style='font-size:25px; line-height:20px;'>如果您明白了规则：</p><p style='font-size:22px; line-height:20px;'>请按 继续 进入正式实验</p>
    </div>
    <p style='font-size:35px'>符合按<span style=""color:lightgreen""> j 键</span>，不符合按<span style=""color:red""> f 键</span></p>","0","html-button-response","13","204575","0.0-7.0-2.0","5","4","4","3","2","4","2","3","4","4","5","1","-2","-1","0","-1","1","1","1","4","4","5","5","5","3","3","4","4","3","4","6","4","6","4","5","6","6","7","5","5","6","3","3","3","5","5","5","5","1","3","2","6","3","2","5","5","5","5","3","3","5","4","3","4","6","3","6","3","6","6","5","6","5","4","5","3","5","6","5","790996128928768002","徐","283","Female","[""坏她"",""好我"",""好她"",""坏我""]","[""弱她"",""强我"",""强她"",""弱我""]","","","","","","","","","","","","","","","","","SRET_EW","prac_instructions","Wed Jan 10 2024 15:59:13 GMT+0800 (中国标准时间)","","","","","","","","","","","","","","","","","","","",""
"806","","j","psychophysics","14","206383","0.0-7.0-3.0-0.0","5","4","4","3","2","4","2","3","4","4","5","1","-2","-1","0","-1","1","1","1","4","4","5","5","5","3","3","4","4","3","4","6","4","6","4","5","6","6","7","5","5","6","3","3","3","5","5","5","5","1","3","2","6","3","2","5","5","5","5","3","3","5","4","3","4","6","3","6","3","6","6","5","6","5","4","5","3","5","6","5","790996128928768002","徐","283","Female","[""坏她"",""好我"",""好她"",""坏我""]","[""弱她"",""强我"",""强她"",""弱我""]","","","","","","","","yes","","","","","","","","","SRET","EW_formal","","key","j","16.664220183486186","960","536","朋友","务实","Positive","ability","","","","","","","","","","",""
"1118","","f","psychophysics","15","208503","0.0-7.0-3.0-0.1","5","4","4","3","2","4","2","3","4","4","5","1","-2","-1","0","-1","1","1","1","4","4","5","5","5","3","3","4","4","3","4","6","4","6","4","5","6","6","7","5","5","6","3","3","3","5","5","5","5","1","3","2","6","3","2","5","5","5","5","3","3","5","4","3","4","6","3","6","3","6","6","5","6","5","4","5","3","5","6","5","790996128928768002","徐","283","Female","[""坏她"",""好我"",""好她"",""坏我""]","[""弱她"",""强我"",""强她"",""弱我""]","","","","","","","","no","","","","","","","","","SRET","EW_formal","","key","f","16.6658730158732","960","536","自己","说谎","Negative","morality","","","","","","","","","","",""
"1160","","j","psychophysics","16","210665","0.0-7.0-3.0-0.2","5","4","4","3","2","4","2","3","4","4","5","1","-2","-1","0","-1","1","1","1","4","4","5","5","5","3","3","4","4","3","4","6","4","6","4","5","6","6","7","5","5","6","3","3","3","5","5","5","5","1","3","2","6","3","2","5","5","5","5","3","3","5","4","3","4","6","3","6","3","6","6","5","6","5","4","5","3","5","6","5","790996128928768002","徐","283","Female","[""坏她"",""好我"",""好她"",""坏我""]","[""弱她"",""强我"",""强她"",""弱我""]","","","","","","","","yes","","","","","","","","","SRET","EW_formal","","key","j","16.666666666666668","960","536","朋友","迷糊","Negative","ability","","","","","","","","","","",""
"805","","j","psychophysics","17","212471","0.0-7.0-3.0-0.3","5","4","4","3","2","4","2","3","4","4","5","1","-2","-1","0","-1","1","1","1","4","4","5","5","5","3","3","4","4","3","4","6","4","6","4","5","6","6","7","5","5","6","3","3","3","5","5","5","5","1","3","2","6","3","2","5","5","5","5","3","3","5","4","3","4","6","3","6","3","6","6","5","6","5","4","5","3","5","6","5","790996128928768002","徐","283","Female","[""坏她"",""好我"",""好她"",""坏我""]","[""弱她"",""强我"",""强她"",""弱我""]","","","","","","","","yes","","","","","","","","","SRET","EW_formal","","key","j","16.66635514018708","960","536","自己","坚贞","Positive","morality","","","","","","","","","","",""
"1343","","f","psychophysics","18","214815","0.0-7.0-3.0-0.4","5","4","4","3","2","4","2","3","4","4","5","1","-2","-1","0","-1","1","1","1","4","4","5","5","5","3","3","4","4","3","4","6","4","6","4","5","6","6","7","5","5","6","3","3","3","5","5","5","5","1","3","2","6","3","2","5","5","5","5","3","3","5","4","3","4","6","3","6","3","6","6","5","6","5","4","5","3","5","6","5","790996128928768002","徐","283","Female","[""坏她"",""好我"",""好她"",""坏我""]","[""弱她"",""强我"",""强她"",""弱我""]","","","","","","","","no","","","","","","","","","SRET","EW_formal","","key","f","16.665000000000042","960","536","自己","怠惰","Negative","ability","","","","","","","","","","",""
"839","","j","psychophysics","19","216655","0.0-7.0-3.0-0.5","5","4","4","3","2","4","2","3","4","4","5","1","-2","-1","0","-1","1","1","1","4","4","5","5","5","3","3","4","4","3","4","6","4","6","4","5","6","6","7","5","5","6","3","3","3","5","5","5","5","1","3","2","6","3","2","5","5","5","5","3","3","5","4","3","4","6","3","6","3","6","6","5","6","5","4","5","3","5","6","5","790996128928768002","徐","283","Female","[""坏她"",""好我"",""好她"",""坏我""]","[""弱她"",""强我"",""强她"",""弱我""]","","","","","","","","yes","","","","","","","","","SRET","EW_formal","","key","j","16.665137614678898","960","536","朋友","博识","Positive","ability","","","","","","","","","","",""
"806","","j","psychophysics","20","218463","0.0-7.0-3.0-0.6","5","4","4","3","2","4","2","3","4","4","5","1","-2","-1","0","-1","1","1","1","4","4","5","5","5","3","3","4","4","3","4","6","4","6","4","5","6","6","7","5","5","6","3","3","3","5","5","5","5","1","3","2","6","3","2","5","5","5","5","3","3","5","4","3","4","6","3","6","3","6","6","5","6","5","4","5","3","5","6","5","790996128928768002","徐","283","Female","[""坏她"",""好我"",""好她"",""坏我""]","[""弱她"",""强我"",""强她"",""弱我""]","","","","","","","","yes","","","","","","","","","SRET","EW_formal","","key","j","16.665740740740688","960","536","朋友","慈悲","Positive","morality","","","","","","","","","","",""
"671","","j","psychophysics","21","220135","0.0-7.0-3.0-0.7","5","4","4","3","2","4","2","3","4","4","5","1","-2","-1","0","-1","1","1","1","4","4","5","5","5","3","3","4","4","3","4","6","4","6","4","5","6","6","7","5","5","6","3","3","3","5","5","5","5","1","3","2","6","3","2","5","5","5","5","3","3","5","4","3","4","6","3","6","3","6","6","5","6","5","4","5","3","5","6","5","790996128928768002","徐","283","Female","[""坏她"",""好我"",""好她"",""坏我""]","[""弱她"",""强我"",""强她"",""弱我""]","","","","","","","","yes","","","","","","","","","SRET","EW_formal","","key","j","16.66565656565651","960","536","朋友","果断","Positive","ability","","","","","","","","","","",""
"961","","f","psychophysics","22","222097","0.0-7.0-3.0-0.8","5","4","4","3","2","4","2","3","4","4","5","1","-2","-1","0","-1","1","1","1","4","4","5","5","5","3","3","4","4","3","4","6","4","6","4","5","6","6","7","5","5","6","3","3","3","5","5","5","5","1","3","2","6","3","2","5","5","5","5","3","3","5","4","3","4","6","3","6","3","6","6","5","6","5","4","5","3","5","6","5","790996128928768002","徐","283","Female","[""坏她"",""好我"",""好她"",""坏我""]","[""弱她"",""强我"",""强她"",""弱我""]","","","","","","","","no","","","","","","","","","SRET","EW_formal","","key","f","16.666666666666668","960","536","朋友","背叛","Negative","morality","","","","","","","","","","",""
"1524","","f","psychophysics","23","224623","0.0-7.0-3.0-0.9","5","4","4","3","2","4","2","3","4","4","5","1","-2","-1","0","-1","1","1","1","4","4","5","5","5","3","3","4","4","3","4","6","4","6","4","5","6","6","7","5","5","6","3","3","3","5","5","5","5","1","3","2","6","3","2","5","5","5","5","3","3","5","4","3","4","6","3","6","3","6","6","5","6","5","4","5","3","5","6","5","790996128928768002","徐","283","Female","[""坏她"",""好我"",""好她"",""坏我""]","[""弱她"",""强我"",""强她"",""弱我""]","","","","","","","","no","","","","","","","","","SRET","EW_formal","","key","f","16.666000000000157","960","536","朋友","屈才","Negative","ability","","","","","","","","","","",""
"832","","j","psychophysics","24","226455","0.0-7.0-3.0-0.10","5","4","4","3","2","4","2","3","4","4","5","1","-2","-1","0","-1","1","1","1","4","4","5","5","5","3","3","4","4","3","4","6","4","6","4","5","6","6","7","5","5","6","3","3","3","5","5","5","5","1","3","2","6","3","2","5","5","5","5","3","3","5","4","3","4","6","3","6","3","6","6","5","6","5","4","5","3","5","6","5","790996128928768002","徐","283","Female","[""坏她"",""好我"",""好她"",""坏我""]","[""弱她"",""强我"",""强她"",""弱我""]","","","","","","","","yes","","","","","","","","","SRET","EW_formal","","key","j","16.666055045871612","960","536","朋友","刻苦","Positive","ability","","","","","","","","","","",""
"662","","j","psychophysics","25","228119","0.0-7.0-3.0-0.11","5","4","4","3","2","4","2","3","4","4","5","1","-2","-1","0","-1","1","1","1","4","4","5","5","5","3","3","4","4","3","4","6","4","6","4","5","6","6","7","5","5","6","3","3","3","5","5","5","5","1","3","2","6","3","2","5","5","5","5","3","3","5","4","3","4","6","3","6","3","6","6","5","6","5","4","5","3","5","6","5","790996128928768002","徐","283","Female","[""坏她"",""好我"",""好她"",""坏我""]","[""弱她"",""强我"",""强她"",""弱我""]","","","","","","","","yes","","","","","","","","","SRET","EW_formal","","key","j","16.666666666666668","960","536","自己","正气","Positive","morality","","","","","","","","","","",""
"671","","j","psychophysics","26","229791","0.0-7.0-3.0-0.12","5","4","4","3","2","4","2","3","4","4","5","1","-2","-1","0","-1","1","1","1","4","4","5","5","5","3","3","4","4","3","4","6","4","6","4","5","6","6","7","5","5","6","3","3","3","5","5","5","5","1","3","2","6","3","2","5","5","5","5","3","3","5","4","3","4","6","3","6","3","6","6","5","6","5","4","5","3","5","6","5","790996128928768002","徐","283","Female","[""坏她"",""好我"",""好她"",""坏我""]","[""弱她"",""强我"",""强她"",""弱我""]","","","","","","","","yes","","","","","","","","","SRET","EW_formal","","key","j","16.66868686868669","960","536","朋友","孝顺","Positive","morality","","","","","","","","","","",""
"610","","j","psychophysics","27","231401","0.0-7.0-3.0-0.13","5","4","4","3","2","4","2","3","4","4","5","1","-2","-1","0","-1","1","1","1","4","4","5","5","5","3","3","4","4","3","4","6","4","6","4","5","6","6","7","5","5","6","3","3","3","5","5","5","5","1","3","2","6","3","2","5","5","5","5","3","3","5","4","3","4","6","3","6","3","6","6","5","6","5","4","5","3","5","6","5","790996128928768002","徐","283","Female","[""坏她"",""好我"",""好她"",""坏我""]","[""弱她"",""强我"",""强她"",""弱我""]","","","","","","","","yes","","","","","","","","","SRET","EW_formal","","key","j","16.664583333333212","960","536","自己","坦荡","Positive","morality","","","","","","","","","","",""
"628","","j","psychophysics","28","233032","0.0-7.0-3.0-0.14","5","4","4","3","2","4","2","3","4","4","5","1","-2","-1","0","-1","1","1","1","4","4","5","5","5","3","3","4","4","3","4","6","4","6","4","5","6","6","7","5","5","6","3","3","3","5","5","5","5","1","3","2","6","3","2","5","5","5","5","3","3","5","4","3","4","6","3","6","3","6","6","5","6","5","4","5","3","5","6","5","790996128928768002","徐","283","Female","[""坏她"",""好我"",""好她"",""坏我""]","[""弱她"",""强我"",""强她"",""弱我""]","","","","","","","","yes","","","","","","","","","SRET","EW_formal","","key","j","16.66701030927847","960","536","朋友","谦逊","Positive","morality","","","","","","","","","","",""
"598","","j","psychophysics","29","234631","0.0-7.0-3.0-0.15","5","4","4","3","2","4","2","3","4","4","5","1","-2","-1","0","-1","1","1","1","4","4","5","5","5","3","3","4","4","3","4","6","4","6","4","5","6","6","7","5","5","6","3","3","3","5","5","5","5","1","3","2","6","3","2","5","5","5","5","3","3","5","4","3","4","6","3","6","3","6","6","5","6","5","4","5","3","5","6","5","790996128928768002","徐","283","Female","[""坏她"",""好我"",""好她"",""坏我""]","[""弱她"",""强我"",""强她"",""弱我""]","","","","","","","","yes","","","","","","","","","SRET","EW_formal","","key","j","16.66631578947356","960","536","自己","高尚","Positive","morality","","","","","","","","","","",""
"1255","","f","psychophysics","30","236887","0.0-7.0-3.0-0.16","5","4","4","3","2","4","2","3","4","4","5","1","-2","-1","0","-1","1","1","1","4","4","5","5","5","3","3","4","4","3","4","6","4","6","4","5","6","6","7","5","5","6","3","3","3","5","5","5","5","1","3","2","6","3","2","5","5","5","5","3","3","5","4","3","4","6","3","6","3","6","6","5","6","5","4","5","3","5","6","5","790996128928768002","徐","283","Female","[""坏她"",""好我"",""好她"",""坏我""]","[""弱她"",""强我"",""强她"",""弱我""]","","","","","","","","no","","","","","","","","","SRET","EW_formal","","key","f","16.664925373134373","960","536","自己","势利","Negative","morality","","","","","","","","","","",""
"1893","","f","psychophysics","31","239783","0.0-7.0-3.0-0.17","5","4","4","3","2","4","2","3","4","4","5","1","-2","-1","0","-1","1","1","1","4","4","5","5","5","3","3","4","4","3","4","6","4","6","4","5","6","6","7","5","5","6","3","3","3","5","5","5","5","1","3","2","6","3","2","5","5","5","5","3","3","5","4","3","4","6","3","6","3","6","6","5","6","5","4","5","3","5","6","5","790996128928768002","徐","283","Female","[""坏她"",""好我"",""好她"",""坏我""]","[""弱她"",""强我"",""强她"",""弱我""]","","","","","","","","no","","","","","","","","","SRET","EW_formal","","key","f","16.66531791907518","960","536","朋友","高洁","Positive","morality","","","","","","","","","","",""
"1285","","f","psychophysics","32","242071","0.0-7.0-3.0-0.18","5","4","4","3","2","4","2","3","4","4","5","1","-2","-1","0","-1","1","1","1","4","4","5","5","5","3","3","4","4","3","4","6","4","6","4","5","6","6","7","5","5","6","3","3","3","5","5","5","5","1","3","2","6","3","2","5","5","5","5","3","3","5","4","3","4","6","3","6","3","6","6","5","6","5","4","5","3","5","6","5","790996128928768002","徐","283","Female","[""坏她"",""好我"",""好她"",""坏我""]","[""弱她"",""强我"",""强她"",""弱我""]","","","","","","","","no","","","","","","","","","SRET","EW_formal","","key","f","16.665441176470587","960","536","自己","马虎","Negative","ability","","","","","","","","","","",""
"1128","","j","psychophysics","33","244200","0.0-7.0-3.0-0.19","5","4","4","3","2","4","2","3","4","4","5","1","-2","-1","0","-1","1","1","1","4","4","5","5","5","3","3","4","4","3","4","6","4","6","4","5","6","6","7","5","5","6","3","3","3","5","5","5","5","1","3","2","6","3","2","5","5","5","5","3","3","5","4","3","4","6","3","6","3","6","6","5","6","5","4","5","3","5","6","5","790996128928768002","徐","283","Female","[""坏她"",""好我"",""好她"",""坏我""]","[""弱她"",""强我"",""强她"",""弱我""]","","","","","","","","yes","","","","","","","","","SRET","EW_formal","","key","j","16.66614173228351","960","536","朋友","逞强","Negative","ability","","","","","","","","","","",""
"1246","","f","psychophysics","34","246447","0.0-7.0-3.0-0.20","5","4","4","3","2","4","2","3","4","4","5","1","-2","-1","0","-1","1","1","1","4","4","5","5","5","3","3","4","4","3","4","6","4","6","4","5","6","6","7","5","5","6","3","3","3","5","5","5","5","1","3","2","6","3","2","5","5","5","5","3","3","5","4","3","4","6","3","6","3","6","6","5","6","5","4","5","3","5","6","5","790996128928768002","徐","283","Female","[""坏她"",""好我"",""好她"",""坏我""]","[""弱她"",""强我"",""强她"",""弱我""]","","","","","","","","no","","","","","","","","","SRET","EW_formal","","key","f","16.665671641791132","960","536","自己","礼貌","Positive","morality","","","","","","","","","","",""
"1774","","j","psychophysics","35","249223","0.0-7.0-3.0-0.21","5","4","4","3","2","4","2","3","4","4","5","1","-2","-1","0","-1","1","1","1","4","4","5","5","5","3","3","4","4","3","4","6","4","6","4","5","6","6","7","5","5","6","3","3","3","5","5","5","5","1","3","2","6","3","2","5","5","5","5","3","3","5","4","3","4","6","3","6","3","6","6","5","6","5","4","5","3","5","6","5","790996128928768002","徐","283","Female","[""坏她"",""好我"",""好她"",""坏我""]","[""弱她"",""强我"",""强她"",""弱我""]","","","","","","","","yes","","","","","","","","","SRET","EW_formal","","key","j","16.666060606060572","960","536","朋友","淡泊","Positive","morality","","","","","","","","","","",""
"1063","","f","psychophysics","36","251287","0.0-7.0-3.0-0.22","5","4","4","3","2","4","2","3","4","4","5","1","-2","-1","0","-1","1","1","1","4","4","5","5","5","3","3","4","4","3","4","6","4","6","4","5","6","6","7","5","5","6","3","3","3","5","5","5","5","1","3","2","6","3","2","5","5","5","5","3","3","5","4","3","4","6","3","6","3","6","6","5","6","5","4","5","3","5","6","5","790996128928768002","徐","283","Female","[""坏她"",""好我"",""好她"",""坏我""]","[""弱她"",""强我"",""强她"",""弱我""]","","","","","","","","no","","","","","","","","","SRET","EW_formal","","key","f","16.665853658536538","960","536","朋友","邪恶","Negative","morality","","","","","","","","","","",""
"627","","j","psychophysics","37","252915","0.0-7.0-3.0-0.23","5","4","4","3","2","4","2","3","4","4","5","1","-2","-1","0","-1","1","1","1","4","4","5","5","5","3","3","4","4","3","4","6","4","6","4","5","6","6","7","5","5","6","3","3","3","5","5","5","5","1","3","2","6","3","2","5","5","5","5","3","3","5","4","3","4","6","3","6","3","6","6","5","6","5","4","5","3","5","6","5","790996128928768002","徐","283","Female","[""坏她"",""好我"",""好她"",""坏我""]","[""弱她"",""强我"",""强她"",""弱我""]","","","","","","","","yes","","","","","","","","","SRET","EW_formal","","key","j","16.66597938144336","960","536","自己","上进","Positive","ability","","","","","","","","","","",""
"618","","j","psychophysics","38","254536","0.0-7.0-3.0-0.24","5","4","4","3","2","4","2","3","4","4","5","1","-2","-1","0","-1","1","1","1","4","4","5","5","5","3","3","4","4","3","4","6","4","6","4","5","6","6","7","5","5","6","3","3","3","5","5","5","5","1","3","2","6","3","2","5","5","5","5","3","3","5","4","3","4","6","3","6","3","6","6","5","6","5","4","5","3","5","6","5","790996128928768002","徐","283","Female","[""坏她"",""好我"",""好她"",""坏我""]","[""弱她"",""强我"",""强她"",""弱我""]","","","","","","","","yes","","","","","","","","","SRET","EW_formal","","key","j","16.664583333333212","960","536","自己","聪明","Positive","ability","","","","","","","","","","",""
"862","","j","psychophysics","39","256399","0.0-7.0-3.0-0.25","5","4","4","3","2","4","2","3","4","4","5","1","-2","-1","0","-1","1","1","1","4","4","5","5","5","3","3","4","4","3","4","6","4","6","4","5","6","6","7","5","5","6","3","3","3","5","5","5","5","1","3","2","6","3","2","5","5","5","5","3","3","5","4","3","4","6","3","6","3","6","6","5","6","5","4","5","3","5","6","5","790996128928768002","徐","283","Female","[""坏她"",""好我"",""好她"",""坏我""]","[""弱她"",""强我"",""强她"",""弱我""]","","","","","","","","yes","","","","","","","","","SRET","EW_formal","","key","j","16.667567567567357","960","536","朋友","依靠","Negative","ability","","","","","","","","","","",""
"887","","j","psychophysics","40","258287","0.0-7.0-3.0-0.26","5","4","4","3","2","4","2","3","4","4","5","1","-2","-1","0","-1","1","1","1","4","4","5","5","5","3","3","4","4","3","4","6","4","6","4","5","6","6","7","5","5","6","3","3","3","5","5","5","5","1","3","2","6","3","2","5","5","5","5","3","3","5","4","3","4","6","3","6","3","6","6","5","6","5","4","5","3","5","6","5","790996128928768002","徐","283","Female","[""坏她"",""好我"",""好她"",""坏我""]","[""弱她"",""强我"",""强她"",""弱我""]","","","","","","","","yes","","","","","","","","","SRET","EW_formal","","key","j","16.66874999999995","960","536","自己","顶事","Positive","ability","","","","","","","","","","",""
"638","","f","psychophysics","41","259927","0.0-7.0-3.0-0.27","5","4","4","3","2","4","2","3","4","4","5","1","-2","-1","0","-1","1","1","1","4","4","5","5","5","3","3","4","4","3","4","6","4","6","4","5","6","6","7","5","5","6","3","3","3","5","5","5","5","1","3","2","6","3","2","5","5","5","5","3","3","5","4","3","4","6","3","6","3","6","6","5","6","5","4","5","3","5","6","5","790996128928768002","徐","283","Female","[""坏她"",""好我"",""好她"",""坏我""]","[""弱她"",""强我"",""强她"",""弱我""]","","","","","","","","no","","","","","","","","","SRET","EW_formal","","key","f","16.6653061224488","960","536","自己","卑鄙","Negative","morality","","","","","","","","","","",""
"838","","f","psychophysics","42","261767","0.0-7.0-3.0-0.28","5","4","4","3","2","4","2","3","4","4","5","1","-2","-1","0","-1","1","1","1","4","4","5","5","5","3","3","4","4","3","4","6","4","6","4","5","6","6","7","5","5","6","3","3","3","5","5","5","5","1","3","2","6","3","2","5","5","5","5","3","3","5","4","3","4","6","3","6","3","6","6","5","6","5","4","5","3","5","6","5","790996128928768002","徐","283","Female","[""坏她"",""好我"",""好她"",""坏我""]","[""弱她"",""强我"",""强她"",""弱我""]","","","","","","","","no","","","","","","","","","SRET","EW_formal","","key","f","16.666055045871612","960","536","自己","无助","Negative","ability","","","","","","","","","","",""
"1049","","f","psychophysics","43","263817","0.0-7.0-3.0-0.29","5","4","4","3","2","4","2","3","4","4","5","1","-2","-1","0","-1","1","1","1","4","4","5","5","5","3","3","4","4","3","4","6","4","6","4","5","6","6","7","5","5","6","3","3","3","5","5","5","5","1","3","2","6","3","2","5","5","5","5","3","3","5","4","3","4","6","3","6","3","6","6","5","6","5","4","5","3","5","6","5","790996128928768002","徐","283","Female","[""坏她"",""好我"",""好她"",""坏我""]","[""弱她"",""强我"",""强她"",""弱我""]","","","","","","","","no","","","","","","","","","SRET","EW_formal","","key","f","16.666393442622855","960","536","朋友","无能","Negative","ability","","","","","","","","","","",""
"645","","j","psychophysics","44","265464","0.0-7.0-3.0-0.30","5","4","4","3","2","4","2","3","4","4","5","1","-2","-1","0","-1","1","1","1","4","4","5","5","5","3","3","4","4","3","4","6","4","6","4","5","6","6","7","5","5","6","3","3","3","5","5","5","5","1","3","2","6","3","2","5","5","5","5","3","3","5","4","3","4","6","3","6","3","6","6","5","6","5","4","5","3","5","6","5","790996128928768002","徐","283","Female","[""坏她"",""好我"",""好她"",""坏我""]","[""弱她"",""强我"",""强她"",""弱我""]","","","","","","","","yes","","","","","","","","","SRET","EW_formal","","key","j","16.6653061224491","960","536","朋友","厚道","Positive","morality","","","","","","","","","","",""
"925","","f","psychophysics","45","267391","0.0-7.0-3.0-0.31","5","4","4","3","2","4","2","3","4","4","5","1","-2","-1","0","-1","1","1","1","4","4","5","5","5","3","3","4","4","3","4","6","4","6","4","5","6","6","7","5","5","6","3","3","3","5","5","5","5","1","3","2","6","3","2","5","5","5","5","3","3","5","4","3","4","6","3","6","3","6","6","5","6","5","4","5","3","5","6","5","790996128928768002","徐","283","Female","[""坏她"",""好我"",""好她"",""坏我""]","[""弱她"",""强我"",""强她"",""弱我""]","","","","","","","","no","","","","","","","","","SRET","EW_formal","","key","f","16.66754385964892","960","536","朋友","小人","Negative","morality","","","","","","","","","","",""
"607","","j","psychophysics","46","268999","0.0-7.0-3.0-0.32","5","4","4","3","2","4","2","3","4","4","5","1","-2","-1","0","-1","1","1","1","4","4","5","5","5","3","3","4","4","3","4","6","4","6","4","5","6","6","7","5","5","6","3","3","3","5","5","5","5","1","3","2","6","3","2","5","5","5","5","3","3","5","4","3","4","6","3","6","3","6","6","5","6","5","4","5","3","5","6","5","790996128928768002","徐","283","Female","[""坏她"",""好我"",""好她"",""坏我""]","[""弱她"",""强我"",""强她"",""弱我""]","","","","","","","","yes","","","","","","","","","SRET","EW_formal","","key","j","16.667708333333696","960","536","朋友","懂行","Positive","ability","","","","","","","","","","",""
"583","","j","psychophysics","47","270583","0.0-7.0-3.0-0.33","5","4","4","3","2","4","2","3","4","4","5","1","-2","-1","0","-1","1","1","1","4","4","5","5","5","3","3","4","4","3","4","6","4","6","4","5","6","6","7","5","5","6","3","3","3","5","5","5","5","1","3","2","6","3","2","5","5","5","5","3","3","5","4","3","4","6","3","6","3","6","6","5","6","5","4","5","3","5","6","5","790996128928768002","徐","283","Female","[""坏她"",""好我"",""好她"",""坏我""]","[""弱她"",""强我"",""强她"",""弱我""]","","","","","","","","yes","","","","","","","","","SRET","EW_formal","","key","j","16.665957446808264","960","536","朋友","忠诚","Positive","morality","","","","","","","","","","",""
"840","","f","psychophysics","48","272424","0.0-7.0-3.0-0.34","5","4","4","3","2","4","2","3","4","4","5","1","-2","-1","0","-1","1","1","1","4","4","5","5","5","3","3","4","4","3","4","6","4","6","4","5","6","6","7","5","5","6","3","3","3","5","5","5","5","1","3","2","6","3","2","5","5","5","5","3","3","5","4","3","4","6","3","6","3","6","6","5","6","5","4","5","3","5","6","5","790996128928768002","徐","283","Female","[""坏她"",""好我"",""好她"",""坏我""]","[""弱她"",""强我"",""强她"",""弱我""]","","","","","","","","no","","","","","","","","","SRET","EW_formal","","key","f","16.666972477063794","960","536","自己","迂拙","Negative","ability","","","","","","","","","","",""
"537","","j","psychophysics","49","273962","0.0-7.0-3.0-0.35","5","4","4","3","2","4","2","3","4","4","5","1","-2","-1","0","-1","1","1","1","4","4","5","5","5","3","3","4","4","3","4","6","4","6","4","5","6","6","7","5","5","6","3","3","3","5","5","5","5","1","3","2","6","3","2","5","5","5","5","3","3","5","4","3","4","6","3","6","3","6","6","5","6","5","4","5","3","5","6","5","790996128928768002","徐","283","Female","[""坏她"",""好我"",""好她"",""坏我""]","[""弱她"",""强我"",""强她"",""弱我""]","","","","","","","","yes","","","","","","","","","SRET","EW_formal","","key","j","16.668478260869566","960","536","自己","爱国","Positive","morality","","","","","","","","","","",""
"645","","j","psychophysics","50","275609","0.0-7.0-3.0-0.36","5","4","4","3","2","4","2","3","4","4","5","1","-2","-1","0","-1","1","1","1","4","4","5","5","5","3","3","4","4","3","4","6","4","6","4","5","6","6","7","5","5","6","3","3","3","5","5","5","5","1","3","2","6","3","2","5","5","5","5","3","3","5","4","3","4","6","3","6","3","6","6","5","6","5","4","5","3","5","6","5","790996128928768002","徐","283","Female","[""坏她"",""好我"",""好她"",""坏我""]","[""弱她"",""强我"",""强她"",""弱我""]","","","","","","","","yes","","","","","","","","","SRET","EW_formal","","key","j","16.66701030927847","960","536","自己","高效","Positive","ability","","","","","","","","","","",""
"581","","j","psychophysics","51","277191","0.0-7.0-3.0-0.37","5","4","4","3","2","4","2","3","4","4","5","1","-2","-1","0","-1","1","1","1","4","4","5","5","5","3","3","4","4","3","4","6","4","6","4","5","6","6","7","5","5","6","3","3","3","5","5","5","5","1","3","2","6","3","2","5","5","5","5","3","3","5","4","3","4","6","3","6","3","6","6","5","6","5","4","5","3","5","6","5","790996128928768002","徐","283","Female","[""坏她"",""好我"",""好她"",""坏我""]","[""弱她"",""强我"",""强她"",""弱我""]","","","","","","","","yes","","","","","","","","","SRET","EW_formal","","key","j","16.664893617021278","960","536","朋友","仗义","Positive","morality","","","","","","","","","","",""
"855","","f","psychophysics","52","279048","0.0-7.0-3.0-0.38","5","4","4","3","2","4","2","3","4","4","5","1","-2","-1","0","-1","1","1","1","4","4","5","5","5","3","3","4","4","3","4","6","4","6","4","5","6","6","7","5","5","6","3","3","3","5","5","5","5","1","3","2","6","3","2","5","5","5","5","3","3","5","4","3","4","6","3","6","3","6","6","5","6","5","4","5","3","5","6","5","790996128928768002","徐","283","Female","[""坏她"",""好我"",""好她"",""坏我""]","[""弱她"",""强我"",""强她"",""弱我""]","","","","","","","","no","","","","","","","","","SRET","EW_formal","","key","f","16.667567567567882","960","536","自己","庸碌","Negative","ability","","","","","","","","","","",""
"869","","f","psychophysics","53","280919","0.0-7.0-3.0-0.39","5","4","4","3","2","4","2","3","4","4","5","1","-2","-1","0","-1","1","1","1","4","4","5","5","5","3","3","4","4","3","4","6","4","6","4","5","6","6","7","5","5","6","3","3","3","5","5","5","5","1","3","2","6","3","2","5","5","5","5","3","3","5","4","3","4","6","3","6","3","6","6","5","6","5","4","5","3","5","6","5","790996128928768002","徐","283","Female","[""坏她"",""好我"",""好她"",""坏我""]","[""弱她"",""强我"",""强她"",""弱我""]","","","","","","","","no","","","","","","","","","SRET","EW_formal","","key","f","16.665765765765975","960","536","朋友","外行","Negative","ability","","","","","","","","","","",""
"992","","j","psychophysics","54","282911","0.0-7.0-3.0-0.40","5","4","4","3","2","4","2","3","4","4","5","1","-2","-1","0","-1","1","1","1","4","4","5","5","5","3","3","4","4","3","4","6","4","6","4","5","6","6","7","5","5","6","3","3","3","5","5","5","5","1","3","2","6","3","2","5","5","5","5","3","3","5","4","3","4","6","3","6","3","6","6","5","6","5","4","5","3","5","6","5","790996128928768002","徐","283","Female","[""坏她"",""好我"",""好她"",""坏我""]","[""弱她"",""强我"",""强她"",""弱我""]","","","","","","","","yes","","","","","","","","","SRET","EW_formal","","key","j","16.668067226890756","960","536","自己","义气","Positive","morality","","","","","","","","","","",""
"679","","f","psychophysics","55","284591","0.0-7.0-3.0-0.41","5","4","4","3","2","4","2","3","4","4","5","1","-2","-1","0","-1","1","1","1","4","4","5","5","5","3","3","4","4","3","4","6","4","6","4","5","6","6","7","5","5","6","3","3","3","5","5","5","5","1","3","2","6","3","2","5","5","5","5","3","3","5","4","3","4","6","3","6","3","6","6","5","6","5","4","5","3","5","6","5","790996128928768002","徐","283","Female","[""坏她"",""好我"",""好她"",""坏我""]","[""弱她"",""强我"",""强她"",""弱我""]","","","","","","","","no","","","","","","","","","SRET","EW_formal","","key","f","16.6656565656568","960","536","自己","无为","Negative","ability","","","","","","","","","","",""
"904","","f","psychophysics","56","286496","0.0-7.0-3.0-0.42","5","4","4","3","2","4","2","3","4","4","5","1","-2","-1","0","-1","1","1","1","4","4","5","5","5","3","3","4","4","3","4","6","4","6","4","5","6","6","7","5","5","6","3","3","3","5","5","5","5","1","3","2","6","3","2","5","5","5","5","3","3","5","4","3","4","6","3","6","3","6","6","5","6","5","4","5","3","5","6","5","790996128928768002","徐","283","Female","[""坏她"",""好我"",""好她"",""坏我""]","[""弱她"",""强我"",""强她"",""弱我""]","","","","","","","","no","","","","","","","","","SRET","EW_formal","","key","f","16.666666666666668","960","536","自己","变通","Positive","ability","","","","","","","","","","",""
"847","","f","psychophysics","57","288344","0.0-7.0-3.0-0.43","5","4","4","3","2","4","2","3","4","4","5","1","-2","-1","0","-1","1","1","1","4","4","5","5","5","3","3","4","4","3","4","6","4","6","4","5","6","6","7","5","5","6","3","3","3","5","5","5","5","1","3","2","6","3","2","5","5","5","5","3","3","5","4","3","4","6","3","6","3","6","6","5","6","5","4","5","3","5","6","5","790996128928768002","徐","283","Female","[""坏她"",""好我"",""好她"",""坏我""]","[""弱她"",""强我"",""强她"",""弱我""]","","","","","","","","no","","","","","","","","","SRET","EW_formal","","key","f","16.66636363636353","960","536","自己","不孝","Negative","morality","","","","","","","","","","",""
"692","","f","psychophysics","58","290039","0.0-7.0-3.0-0.44","5","4","4","3","2","4","2","3","4","4","5","1","-2","-1","0","-1","1","1","1","4","4","5","5","5","3","3","4","4","3","4","6","4","6","4","5","6","6","7","5","5","6","3","3","3","5","5","5","5","1","3","2","6","3","2","5","5","5","5","3","3","5","4","3","4","6","3","6","3","6","6","5","6","5","4","5","3","5","6","5","790996128928768002","徐","283","Female","[""坏她"",""好我"",""好她"",""坏我""]","[""弱她"",""强我"",""强她"",""弱我""]","","","","","","","","no","","","","","","","","","SRET","EW_formal","","key","f","16.66600000000035","960","536","朋友","贪污","Negative","morality","","","","","","","","","","",""
"567","","j","psychophysics","59","291607","0.0-7.0-3.0-0.45","5","4","4","3","2","4","2","3","4","4","5","1","-2","-1","0","-1","1","1","1","4","4","5","5","5","3","3","4","4","3","4","6","4","6","4","5","6","6","7","5","5","6","3","3","3","5","5","5","5","1","3","2","6","3","2","5","5","5","5","3","3","5","4","3","4","6","3","6","3","6","6","5","6","5","4","5","3","5","6","5","790996128928768002","徐","283","Female","[""坏她"",""好我"",""好她"",""坏我""]","[""弱她"",""强我"",""强她"",""弱我""]","","","","","","","","yes","","","","","","","","","SRET","EW_formal","","key","j","16.665591397849713","960","536","自己","侠义","Positive","morality","","","","","","","","","","",""
"570","","f","psychophysics","60","293178","0.0-7.0-3.0-0.46","5","4","4","3","2","4","2","3","4","4","5","1","-2","-1","0","-1","1","1","1","4","4","5","5","5","3","3","4","4","3","4","6","4","6","4","5","6","6","7","5","5","6","3","3","3","5","5","5","5","1","3","2","6","3","2","5","5","5","5","3","3","5","4","3","4","6","3","6","3","6","6","5","6","5","4","5","3","5","6","5","790996128928768002","徐","283","Female","[""坏她"",""好我"",""好她"",""坏我""]","[""弱她"",""强我"",""强她"",""弱我""]","","","","","","","","no","","","","","","","","","SRET","EW_formal","","key","f","16.667021276595868","960","536","朋友","迟钝","Negative","ability","","","","","","","","","","",""
"815","","f","psychophysics","61","294994","0.0-7.0-3.0-0.47","5","4","4","3","2","4","2","3","4","4","5","1","-2","-1","0","-1","1","1","1","4","4","5","5","5","3","3","4","4","3","4","6","4","6","4","5","6","6","7","5","5","6","3","3","3","5","5","5","5","1","3","2","6","3","2","5","5","5","5","3","3","5","4","3","4","6","3","6","3","6","6","5","6","5","4","5","3","5","6","5","790996128928768002","徐","283","Female","[""坏她"",""好我"",""好她"",""坏我""]","[""弱她"",""强我"",""强她"",""弱我""]","","","","","","","","no","","","","","","","","","SRET","EW_formal","","key","f","16.665740740740958","960","536","自己","独断","Negative","ability","","","","","","","","","","",""
"689","","f","psychophysics","62","296688","0.0-7.0-3.0-0.48","5","4","4","3","2","4","2","3","4","4","5","1","-2","-1","0","-1","1","1","1","4","4","5","5","5","3","3","4","4","3","4","6","4","6","4","5","6","6","7","5","5","6","3","3","3","5","5","5","5","1","3","2","6","3","2","5","5","5","5","3","3","5","4","3","4","6","3","6","3","6","6","5","6","5","4","5","3","5","6","5","790996128928768002","徐","283","Female","[""坏她"",""好我"",""好她"",""坏我""]","[""弱她"",""强我"",""强她"",""弱我""]","","","","","","","","no","","","","","","","","","SRET","EW_formal","","key","f","16.665","960","536","朋友","愚钝","Negative","ability","","","","","","","","","","",""
"861","","f","psychophysics","63","298550","0.0-7.0-3.0-0.49","5","4","4","3","2","4","2","3","4","4","5","1","-2","-1","0","-1","1","1","1","4","4","5","5","5","3","3","4","4","3","4","6","4","6","4","5","6","6","7","5","5","6","3","3","3","5","5","5","5","1","3","2","6","3","2","5","5","5","5","3","3","5","4","3","4","6","3","6","3","6","6","5","6","5","4","5","3","5","6","5","790996128928768002","徐","283","Female","[""坏她"",""好我"",""好她"",""坏我""]","[""弱她"",""强我"",""强她"",""弱我""]","","","","","","","","no","","","","","","","","","SRET","EW_formal","","key","f","16.66486486486476","960","536","朋友","浅薄","Negative","ability","","","","","","","","","","",""
"631","","f","psychophysics","64","300182","0.0-7.0-3.0-0.50","5","4","4","3","2","4","2","3","4","4","5","1","-2","-1","0","-1","1","1","1","4","4","5","5","5","3","3","4","4","3","4","6","4","6","4","5","6","6","7","5","5","6","3","3","3","5","5","5","5","1","3","2","6","3","2","5","5","5","5","3","3","5","4","3","4","6","3","6","3","6","6","5","6","5","4","5","3","5","6","5","790996128928768002","徐","283","Female","[""坏她"",""好我"",""好她"",""坏我""]","[""弱她"",""强我"",""强她"",""弱我""]","","","","","","","","no","","","","","","","","","SRET","EW_formal","","key","f","16.66701030927787","960","536","朋友","奸险","Negative","morality","","","","","","","","","","",""
"568","","j","psychophysics","65","301750","0.0-7.0-3.0-0.51","5","4","4","3","2","4","2","3","4","4","5","1","-2","-1","0","-1","1","1","1","4","4","5","5","5","3","3","4","4","3","4","6","4","6","4","5","6","6","7","5","5","6","3","3","3","5","5","5","5","1","3","2","6","3","2","5","5","5","5","3","3","5","4","3","4","6","3","6","3","6","6","5","6","5","4","5","3","5","6","5","790996128928768002","徐","283","Female","[""坏她"",""好我"",""好她"",""坏我""]","[""弱她"",""强我"",""强她"",""弱我""]","","","","","","","","yes","","","","","","","","","SRET","EW_formal","","key","j","16.665591397849088","960","536","自己","敬业","Positive","morality","","","","","","","","","","",""
"615","","f","psychophysics","66","303366","0.0-7.0-3.0-0.52","5","4","4","3","2","4","2","3","4","4","5","1","-2","-1","0","-1","1","1","1","4","4","5","5","5","3","3","4","4","3","4","6","4","6","4","5","6","6","7","5","5","6","3","3","3","5","5","5","5","1","3","2","6","3","2","5","5","5","5","3","3","5","4","3","4","6","3","6","3","6","6","5","6","5","4","5","3","5","6","5","790996128928768002","徐","283","Female","[""坏她"",""好我"",""好她"",""坏我""]","[""弱她"",""强我"",""强她"",""弱我""]","","","","","","","","no","","","","","","","","","SRET","EW_formal","","key","f","16.664583333333212","960","536","朋友","不良","Negative","morality","","","","","","","","","","",""
"631","","f","psychophysics","67","304998","0.0-7.0-3.0-0.53","5","4","4","3","2","4","2","3","4","4","5","1","-2","-1","0","-1","1","1","1","4","4","5","5","5","3","3","4","4","3","4","6","4","6","4","5","6","6","7","5","5","6","3","3","3","5","5","5","5","1","3","2","6","3","2","5","5","5","5","3","3","5","4","3","4","6","3","6","3","6","6","5","6","5","4","5","3","5","6","5","790996128928768002","徐","283","Female","[""坏她"",""好我"",""好她"",""坏我""]","[""弱她"",""强我"",""强她"",""弱我""]","","","","","","","","no","","","","","","","","","SRET","EW_formal","","key","f","16.668041237113282","960","536","自己","差生","Negative","ability","","","","","","","","","","",""
"679","","j","psychophysics","68","306678","0.0-7.0-3.0-0.54","5","4","4","3","2","4","2","3","4","4","5","1","-2","-1","0","-1","1","1","1","4","4","5","5","5","3","3","4","4","3","4","6","4","6","4","5","6","6","7","5","5","6","3","3","3","5","5","5","5","1","3","2","6","3","2","5","5","5","5","3","3","5","4","3","4","6","3","6","3","6","6","5","6","5","4","5","3","5","6","5","790996128928768002","徐","283","Female","[""坏她"",""好我"",""好她"",""坏我""]","[""弱她"",""强我"",""强她"",""弱我""]","","","","","","","","yes","","","","","","","","","SRET","EW_formal","","key","j","16.667000000000115","960","536","自己","沉着","Positive","ability","","","","","","","","","","",""
"866","","f","psychophysics","69","308544","0.0-7.0-3.0-0.55","5","4","4","3","2","4","2","3","4","4","5","1","-2","-1","0","-1","1","1","1","4","4","5","5","5","3","3","4","4","3","4","6","4","6","4","5","6","6","7","5","5","6","3","3","3","5","5","5","5","1","3","2","6","3","2","5","5","5","5","3","3","5","4","3","4","6","3","6","3","6","6","5","6","5","4","5","3","5","6","5","790996128928768002","徐","283","Female","[""坏她"",""好我"",""好她"",""坏我""]","[""弱她"",""强我"",""强她"",""弱我""]","","","","","","","","no","","","","","","","","","SRET","EW_formal","","key","f","16.666666666666668","960","536","自己","失信","Negative","morality","","","","","","","","","","",""
"677","","f","psychophysics","70","310222","0.0-7.0-3.0-0.56","5","4","4","3","2","4","2","3","4","4","5","1","-2","-1","0","-1","1","1","1","4","4","5","5","5","3","3","4","4","3","4","6","4","6","4","5","6","6","7","5","5","6","3","3","3","5","5","5","5","1","3","2","6","3","2","5","5","5","5","3","3","5","4","3","4","6","3","6","3","6","6","5","6","5","4","5","3","5","6","5","790996128928768002","徐","283","Female","[""坏她"",""好我"",""好她"",""坏我""]","[""弱她"",""强我"",""强她"",""弱我""]","","","","","","","","no","","","","","","","","","SRET","EW_formal","","key","f","16.666666666666668","960","536","自己","低劣","Negative","morality","","","","","","","","","","",""
"829","","j","psychophysics","71","312054","0.0-7.0-3.0-0.57","5","4","4","3","2","4","2","3","4","4","5","1","-2","-1","0","-1","1","1","1","4","4","5","5","5","3","3","4","4","3","4","6","4","6","4","5","6","6","7","5","5","6","3","3","3","5","5","5","5","1","3","2","6","3","2","5","5","5","5","3","3","5","4","3","4","6","3","6","3","6","6","5","6","5","4","5","3","5","6","5","790996128928768002","徐","283","Female","[""坏她"",""好我"",""好她"",""坏我""]","[""弱她"",""强我"",""强她"",""弱我""]","","","","","","","","yes","","","","","","","","","SRET","EW_formal","","key","j","16.666055045871346","960","536","自己","慷慨","Positive","morality","","","","","","","","","","",""
"660","","f","psychophysics","72","313718","0.0-7.0-3.0-0.58","5","4","4","3","2","4","2","3","4","4","5","1","-2","-1","0","-1","1","1","1","4","4","5","5","5","3","3","4","4","3","4","6","4","6","4","5","6","6","7","5","5","6","3","3","3","5","5","5","5","1","3","2","6","3","2","5","5","5","5","3","3","5","4","3","4","6","3","6","3","6","6","5","6","5","4","5","3","5","6","5","790996128928768002","徐","283","Female","[""坏她"",""好我"",""好她"",""坏我""]","[""弱她"",""强我"",""强她"",""弱我""]","","","","","","","","no","","","","","","","","","SRET","EW_formal","","key","f","16.667676767677122","960","536","自己","龌龊","Negative","morality","","","","","","","","","","",""
"647","","j","psychophysics","73","315366","0.0-7.0-3.0-0.59","5","4","4","3","2","4","2","3","4","4","5","1","-2","-1","0","-1","1","1","1","4","4","5","5","5","3","3","4","4","3","4","6","4","6","4","5","6","6","7","5","5","6","3","3","3","5","5","5","5","1","3","2","6","3","2","5","5","5","5","3","3","5","4","3","4","6","3","6","3","6","6","5","6","5","4","5","3","5","6","5","790996128928768002","徐","283","Female","[""坏她"",""好我"",""好她"",""坏我""]","[""弱她"",""强我"",""强她"",""弱我""]","","","","","","","","yes","","","","","","","","","SRET","EW_formal","","key","j","16.665306122448506","960","536","朋友","努力","Positive","ability","","","","","","","","","","",""
"615","","j","psychophysics","74","316982","0.0-7.0-3.0-0.60","5","4","4","3","2","4","2","3","4","4","5","1","-2","-1","0","-1","1","1","1","4","4","5","5","5","3","3","4","4","3","4","6","4","6","4","5","6","6","7","5","5","6","3","3","3","5","5","5","5","1","3","2","6","3","2","5","5","5","5","3","3","5","4","3","4","6","3","6","3","6","6","5","6","5","4","5","3","5","6","5","790996128928768002","徐","283","Female","[""坏她"",""好我"",""好她"",""坏我""]","[""弱她"",""强我"",""强她"",""弱我""]","","","","","","","","yes","","","","","","","","","SRET","EW_formal","","key","j","16.665625000000244","960","536","自己","高明","Positive","ability","","","","","","","","","","",""
"834","","j","psychophysics","75","318816","0.0-7.0-3.0-0.61","5","4","4","3","2","4","2","3","4","4","5","1","-2","-1","0","-1","1","1","1","4","4","5","5","5","3","3","4","4","3","4","6","4","6","4","5","6","6","7","5","5","6","3","3","3","5","5","5","5","1","3","2","6","3","2","5","5","5","5","3","3","5","4","3","4","6","3","6","3","6","6","5","6","5","4","5","3","5","6","5","790996128928768002","徐","283","Female","[""坏她"",""好我"",""好她"",""坏我""]","[""弱她"",""强我"",""强她"",""弱我""]","","","","","","","","yes","","","","","","","","","SRET","EW_formal","","key","j","16.666972477063794","960","536","朋友","利落","Positive","ability","","","","","","","","","","",""
"789","","f","psychophysics","76","320606","0.0-7.0-3.0-0.62","5","4","4","3","2","4","2","3","4","4","5","1","-2","-1","0","-1","1","1","1","4","4","5","5","5","3","3","4","4","3","4","6","4","6","4","5","6","6","7","5","5","6","3","3","3","5","5","5","5","1","3","2","6","3","2","5","5","5","5","3","3","5","4","3","4","6","3","6","3","6","6","5","6","5","4","5","3","5","6","5","790996128928768002","徐","283","Female","[""坏她"",""好我"",""好她"",""坏我""]","[""弱她"",""强我"",""强她"",""弱我""]","","","","","","","","no","","","","","","","","","SRET","EW_formal","","key","f","16.666355140186806","960","536","自己","不端","Negative","morality","","","","","","","","","","",""
"584","","f","psychophysics","77","322192","0.0-7.0-3.0-0.63","5","4","4","3","2","4","2","3","4","4","5","1","-2","-1","0","-1","1","1","1","4","4","5","5","5","3","3","4","4","3","4","6","4","6","4","5","6","6","7","5","5","6","3","3","3","5","5","5","5","1","3","2","6","3","2","5","5","5","5","3","3","5","4","3","4","6","3","6","3","6","6","5","6","5","4","5","3","5","6","5","790996128928768002","徐","283","Female","[""坏她"",""好我"",""好她"",""坏我""]","[""弱她"",""强我"",""强她"",""弱我""]","","","","","","","","no","","","","","","","","","SRET","EW_formal","","key","f","16.665957446808882","960","536","朋友","缺德","Negative","morality","","","","","","","","","","",""
"925","","j","psychophysics","78","324118","0.0-7.0-3.0-0.64","5","4","4","3","2","4","2","3","4","4","5","1","-2","-1","0","-1","1","1","1","4","4","5","5","5","3","3","4","4","3","4","6","4","6","4","5","6","6","7","5","5","6","3","3","3","5","5","5","5","1","3","2","6","3","2","5","5","5","5","3","3","5","4","3","4","6","3","6","3","6","6","5","6","5","4","5","3","5","6","5","790996128928768002","徐","283","Female","[""坏她"",""好我"",""好她"",""坏我""]","[""弱她"",""强我"",""强她"",""弱我""]","","","","","","","","yes","","","","","","","","","SRET","EW_formal","","key","j","16.664912280701653","960","536","朋友","忠良","Positive","morality","","","","","","","","","","",""
"1032","","j","psychophysics","79","326150","0.0-7.0-3.0-0.65","5","4","4","3","2","4","2","3","4","4","5","1","-2","-1","0","-1","1","1","1","4","4","5","5","5","3","3","4","4","3","4","6","4","6","4","5","6","6","7","5","5","6","3","3","3","5","5","5","5","1","3","2","6","3","2","5","5","5","5","3","3","5","4","3","4","6","3","6","3","6","6","5","6","5","4","5","3","5","6","5","790996128928768002","徐","283","Female","[""坏她"",""好我"",""好她"",""坏我""]","[""弱她"",""强我"",""强她"",""弱我""]","","","","","","","","yes","","","","","","","","","SRET","EW_formal","","key","j","16.666115702479146","960","536","朋友","全才","Positive","ability","","","","","","","","","","",""
"638","","j","psychophysics","80","327790","0.0-7.0-3.0-0.66","5","4","4","3","2","4","2","3","4","4","5","1","-2","-1","0","-1","1","1","1","4","4","5","5","5","3","3","4","4","3","4","6","4","6","4","5","6","6","7","5","5","6","3","3","3","5","5","5","5","1","3","2","6","3","2","5","5","5","5","3","3","5","4","3","4","6","3","6","3","6","6","5","6","5","4","5","3","5","6","5","790996128928768002","徐","283","Female","[""坏她"",""好我"",""好她"",""坏我""]","[""弱她"",""强我"",""强她"",""弱我""]","","","","","","","","yes","","","","","","","","","SRET","EW_formal","","key","j","16.664285714285477","960","536","自己","精干","Positive","ability","","","","","","","","","","",""
"616","","j","psychophysics","81","329407","0.0-7.0-3.0-0.67","5","4","4","3","2","4","2","3","4","4","5","1","-2","-1","0","-1","1","1","1","4","4","5","5","5","3","3","4","4","3","4","6","4","6","4","5","6","6","7","5","5","6","3","3","3","5","5","5","5","1","3","2","6","3","2","5","5","5","5","3","3","5","4","3","4","6","3","6","3","6","6","5","6","5","4","5","3","5","6","5","790996128928768002","徐","283","Female","[""坏她"",""好我"",""好她"",""坏我""]","[""弱她"",""强我"",""强她"",""弱我""]","","","","","","","","yes","","","","","","","","","SRET","EW_formal","","key","j","16.665625000000244","960","536","自己","肯干","Positive","ability","","","","","","","","","","",""
"798","","f","psychophysics","82","331206","0.0-7.0-3.0-0.68","5","4","4","3","2","4","2","3","4","4","5","1","-2","-1","0","-1","1","1","1","4","4","5","5","5","3","3","4","4","3","4","6","4","6","4","5","6","6","7","5","5","6","3","3","3","5","5","5","5","1","3","2","6","3","2","5","5","5","5","3","3","5","4","3","4","6","3","6","3","6","6","5","6","5","4","5","3","5","6","5","790996128928768002","徐","283","Female","[""坏她"",""好我"",""好她"",""坏我""]","[""弱她"",""强我"",""强她"",""弱我""]","","","","","","","","no","","","","","","","","","SRET","EW_formal","","key","f","16.665420560747773","960","536","朋友","黑心","Negative","morality","","","","","","","","","","",""
"784","","f","psychophysics","83","332992","0.0-7.0-3.0-0.69","5","4","4","3","2","4","2","3","4","4","5","1","-2","-1","0","-1","1","1","1","4","4","5","5","5","3","3","4","4","3","4","6","4","6","4","5","6","6","7","5","5","6","3","3","3","5","5","5","5","1","3","2","6","3","2","5","5","5","5","3","3","5","4","3","4","6","3","6","3","6","6","5","6","5","4","5","3","5","6","5","790996128928768002","徐","283","Female","[""坏她"",""好我"",""好她"",""坏我""]","[""弱她"",""强我"",""强她"",""弱我""]","","","","","","","","no","","","","","","","","","SRET","EW_formal","","key","f","16.66698113207558","960","536","自己","刻薄","Negative","morality","","","","","","","","","","",""
"861","","j","psychophysics","84","334855","0.0-7.0-3.0-0.70","5","4","4","3","2","4","2","3","4","4","5","1","-2","-1","0","-1","1","1","1","4","4","5","5","5","3","3","4","4","3","4","6","4","6","4","5","6","6","7","5","5","6","3","3","3","5","5","5","5","1","3","2","6","3","2","5","5","5","5","3","3","5","4","3","4","6","3","6","3","6","6","5","6","5","4","5","3","5","6","5","790996128928768002","徐","283","Female","[""坏她"",""好我"",""好她"",""坏我""]","[""弱她"",""强我"",""强她"",""弱我""]","","","","","","","","yes","","","","","","","","","SRET","EW_formal","","key","j","16.66545454545412","960","536","自己","稳健","Positive","ability","","","","","","","","","","",""
"964","","j","psychophysics","85","336822","0.0-7.0-3.0-0.71","5","4","4","3","2","4","2","3","4","4","5","1","-2","-1","0","-1","1","1","1","4","4","5","5","5","3","3","4","4","3","4","6","4","6","4","5","6","6","7","5","5","6","3","3","3","5","5","5","5","1","3","2","6","3","2","5","5","5","5","3","3","5","4","3","4","6","3","6","3","6","6","5","6","5","4","5","3","5","6","5","790996128928768002","徐","283","Female","[""坏她"",""好我"",""好她"",""坏我""]","[""弱她"",""强我"",""强她"",""弱我""]","","","","","","","","yes","","","","","","","","","SRET","EW_formal","","key","j","16.663559322033798","960","536","朋友","果决","Positive","ability","","","","","","","","","","",""
"797","","j","psychophysics","86","338622","0.0-7.0-3.0-0.72","5","4","4","3","2","4","2","3","4","4","5","1","-2","-1","0","-1","1","1","1","4","4","5","5","5","3","3","4","4","3","4","6","4","6","4","5","6","6","7","5","5","6","3","3","3","5","5","5","5","1","3","2","6","3","2","5","5","5","5","3","3","5","4","3","4","6","3","6","3","6","6","5","6","5","4","5","3","5","6","5","790996128928768002","徐","283","Female","[""坏她"",""好我"",""好她"",""坏我""]","[""弱她"",""强我"",""强她"",""弱我""]","","","","","","","","yes","","","","","","","","","SRET","EW_formal","","key","j","16.665420560747773","960","536","朋友","独立","Positive","ability","","","","","","","","","","",""
"935","","f","psychophysics","87","340559","0.0-7.0-3.0-0.73","5","4","4","3","2","4","2","3","4","4","5","1","-2","-1","0","-1","1","1","1","4","4","5","5","5","3","3","4","4","3","4","6","4","6","4","5","6","6","7","5","5","6","3","3","3","5","5","5","5","1","3","2","6","3","2","5","5","5","5","3","3","5","4","3","4","6","3","6","3","6","6","5","6","5","4","5","3","5","6","5","790996128928768002","徐","283","Female","[""坏她"",""好我"",""好她"",""坏我""]","[""弱她"",""强我"",""强她"",""弱我""]","","","","","","","","no","","","","","","","","","SRET","EW_formal","","key","f","16.66521739130435","960","536","自己","蛇蝎","Negative","morality","","","","","","","","","","",""
"670","","f","psychophysics","88","342230","0.0-7.0-3.0-0.74","5","4","4","3","2","4","2","3","4","4","5","1","-2","-1","0","-1","1","1","1","4","4","5","5","5","3","3","4","4","3","4","6","4","6","4","5","6","6","7","5","5","6","3","3","3","5","5","5","5","1","3","2","6","3","2","5","5","5","5","3","3","5","4","3","4","6","3","6","3","6","6","5","6","5","4","5","3","5","6","5","790996128928768002","徐","283","Female","[""坏她"",""好我"",""好她"",""坏我""]","[""弱她"",""强我"",""强她"",""弱我""]","","","","","","","","no","","","","","","","","","SRET","EW_formal","","key","f","16.6656565656568","960","536","朋友","无耻","Negative","morality","","","","","","","","","","",""
"631","","f","psychophysics","89","343862","0.0-7.0-3.0-0.75","5","4","4","3","2","4","2","3","4","4","5","1","-2","-1","0","-1","1","1","1","4","4","5","5","5","3","3","4","4","3","4","6","4","6","4","5","6","6","7","5","5","6","3","3","3","5","5","5","5","1","3","2","6","3","2","5","5","5","5","3","3","5","4","3","4","6","3","6","3","6","6","5","6","5","4","5","3","5","6","5","790996128928768002","徐","283","Female","[""坏她"",""好我"",""好她"",""坏我""]","[""弱她"",""强我"",""强她"",""弱我""]","","","","","","","","no","","","","","","","","","SRET","EW_formal","","key","f","16.66701030927847","960","536","自己","昏庸","Negative","ability","","","","","","","","","","",""
"966","","f","psychophysics","90","345830","0.0-7.0-3.0-0.76","5","4","4","3","2","4","2","3","4","4","5","1","-2","-1","0","-1","1","1","1","4","4","5","5","5","3","3","4","4","3","4","6","4","6","4","5","6","6","7","5","5","6","3","3","3","5","5","5","5","1","3","2","6","3","2","5","5","5","5","3","3","5","4","3","4","6","3","6","3","6","6","5","6","5","4","5","3","5","6","5","790996128928768002","徐","283","Female","[""坏她"",""好我"",""好她"",""坏我""]","[""弱她"",""强我"",""强她"",""弱我""]","","","","","","","","no","","","","","","","","","SRET","EW_formal","","key","f","16.665811965812164","960","536","朋友","无知","Negative","ability","","","","","","","","","","",""
"608","","f","psychophysics","91","347440","0.0-7.0-3.0-0.77","5","4","4","3","2","4","2","3","4","4","5","1","-2","-1","0","-1","1","1","1","4","4","5","5","5","3","3","4","4","3","4","6","4","6","4","5","6","6","7","5","5","6","3","3","3","5","5","5","5","1","3","2","6","3","2","5","5","5","5","3","3","5","4","3","4","6","3","6","3","6","6","5","6","5","4","5","3","5","6","5","790996128928768002","徐","283","Female","[""坏她"",""好我"",""好她"",""坏我""]","[""弱她"",""强我"",""强她"",""弱我""]","","","","","","","","no","","","","","","","","","SRET","EW_formal","","key","f","16.667708333333696","960","536","朋友","窝囊","Negative","ability","","","","","","","","","","",""
"940","","j","psychophysics","92","349382","0.0-7.0-3.0-0.78","5","4","4","3","2","4","2","3","4","4","5","1","-2","-1","0","-1","1","1","1","4","4","5","5","5","3","3","4","4","3","4","6","4","6","4","5","6","6","7","5","5","6","3","3","3","5","5","5","5","1","3","2","6","3","2","5","5","5","5","3","3","5","4","3","4","6","3","6","3","6","6","5","6","5","4","5","3","5","6","5","790996128928768002","徐","283","Female","[""坏她"",""好我"",""好她"",""坏我""]","[""弱她"",""强我"",""强她"",""弱我""]","","","","","","","","yes","","","","","","","","","SRET","EW_formal","","key","j","16.66521739130435","960","536","自己","诚信","Positive","morality","","","","","","","","","","",""
"975","","f","psychophysics","93","351359","0.0-7.0-3.0-0.79","5","4","4","3","2","4","2","3","4","4","5","1","-2","-1","0","-1","1","1","1","4","4","5","5","5","3","3","4","4","3","4","6","4","6","4","5","6","6","7","5","5","6","3","3","3","5","5","5","5","1","3","2","6","3","2","5","5","5","5","3","3","5","4","3","4","6","3","6","3","6","6","5","6","5","4","5","3","5","6","5","790996128928768002","徐","283","Female","[""坏她"",""好我"",""好她"",""坏我""]","[""弱她"",""强我"",""强她"",""弱我""]","","","","","","","","no","","","","","","","","","SRET","EW_formal","","key","f","16.666949152542472","960","536","自己","罪恶","Negative","morality","","","","","","","","","","",""
"518","","j","psychophysics","94","352878","0.0-7.0-3.0-0.80","5","4","4","3","2","4","2","3","4","4","5","1","-2","-1","0","-1","1","1","1","4","4","5","5","5","3","3","4","4","3","4","6","4","6","4","5","6","6","7","5","5","6","3","3","3","5","5","5","5","1","3","2","6","3","2","5","5","5","5","3","3","5","4","3","4","6","3","6","3","6","6","5","6","5","4","5","3","5","6","5","790996128928768002","徐","283","Female","[""坏她"",""好我"",""好她"",""坏我""]","[""弱她"",""强我"",""强她"",""弱我""]","","","","","","","","yes","","","","","","","","","SRET","EW_formal","","key","j","16.665555555555816","960","536","朋友","文明","Positive","morality","","","","","","","","","","",""
"689","","j","psychophysics","95","354567","0.0-7.0-3.0-0.81","5","4","4","3","2","4","2","3","4","4","5","1","-2","-1","0","-1","1","1","1","4","4","5","5","5","3","3","4","4","3","4","6","4","6","4","5","6","6","7","5","5","6","3","3","3","5","5","5","5","1","3","2","6","3","2","5","5","5","5","3","3","5","4","3","4","6","3","6","3","6","6","5","6","5","4","5","3","5","6","5","790996128928768002","徐","283","Female","[""坏她"",""好我"",""好她"",""坏我""]","[""弱她"",""强我"",""强她"",""弱我""]","","","","","","","","yes","","","","","","","","","SRET","EW_formal","","key","j","16.665","960","536","朋友","干练","Positive","ability","","","","","","","","","","",""
"549","","f","psychophysics","96","356118","0.0-7.0-3.0-0.82","5","4","4","3","2","4","2","3","4","4","5","1","-2","-1","0","-1","1","1","1","4","4","5","5","5","3","3","4","4","3","4","6","4","6","4","5","6","6","7","5","5","6","3","3","3","5","5","5","5","1","3","2","6","3","2","5","5","5","5","3","3","5","4","3","4","6","3","6","3","6","6","5","6","5","4","5","3","5","6","5","790996128928768002","徐","283","Female","[""坏她"",""好我"",""好她"",""坏我""]","[""弱她"",""强我"",""强她"",""弱我""]","","","","","","","","no","","","","","","","","","SRET","EW_formal","","key","f","16.664130434782354","960","536","朋友","虚假","Negative","morality","","","","","","","","","","",""
"543","","j","psychophysics","97","357662","0.0-7.0-3.0-0.83","5","4","4","3","2","4","2","3","4","4","5","1","-2","-1","0","-1","1","1","1","4","4","5","5","5","3","3","4","4","3","4","6","4","6","4","5","6","6","7","5","5","6","3","3","3","5","5","5","5","1","3","2","6","3","2","5","5","5","5","3","3","5","4","3","4","6","3","6","3","6","6","5","6","5","4","5","3","5","6","5","790996128928768002","徐","283","Female","[""坏她"",""好我"",""好她"",""坏我""]","[""弱她"",""强我"",""强她"",""弱我""]","","","","","","","","yes","","","","","","","","","SRET","EW_formal","","key","j","16.665217391304473","960","536","自己","新手","Negative","ability","","","","","","","","","","",""
"776","","j","psychophysics","98","359440","0.0-7.0-3.0-0.84","5","4","4","3","2","4","2","3","4","4","5","1","-2","-1","0","-1","1","1","1","4","4","5","5","5","3","3","4","4","3","4","6","4","6","4","5","6","6","7","5","5","6","3","3","3","5","5","5","5","1","3","2","6","3","2","5","5","5","5","3","3","5","4","3","4","6","3","6","3","6","6","5","6","5","4","5","3","5","6","5","790996128928768002","徐","283","Female","[""坏她"",""好我"",""好她"",""坏我""]","[""弱她"",""强我"",""强她"",""弱我""]","","","","","","","","yes","","","","","","","","","SRET","EW_formal","","key","j","16.666037735848835","960","536","自己","主见","Positive","ability","","","","","","","","","","",""
"966","","f","psychophysics","99","361407","0.0-7.0-3.0-0.85","5","4","4","3","2","4","2","3","4","4","5","1","-2","-1","0","-1","1","1","1","4","4","5","5","5","3","3","4","4","3","4","6","4","6","4","5","6","6","7","5","5","6","3","3","3","5","5","5","5","1","3","2","6","3","2","5","5","5","5","3","3","5","4","3","4","6","3","6","3","6","6","5","6","5","4","5","3","5","6","5","790996128928768002","徐","283","Female","[""坏她"",""好我"",""好她"",""坏我""]","[""弱她"",""强我"",""强她"",""弱我""]","","","","","","","","no","","","","","","","","","SRET","EW_formal","","key","f","16.664957264957167","960","536","朋友","低俗","Negative","morality","","","","","","","","","","",""
"821","","j","psychophysics","100","363231","0.0-7.0-3.0-0.86","5","4","4","3","2","4","2","3","4","4","5","1","-2","-1","0","-1","1","1","1","4","4","5","5","5","3","3","4","4","3","4","6","4","6","4","5","6","6","7","5","5","6","3","3","3","5","5","5","5","1","3","2","6","3","2","5","5","5","5","3","3","5","4","3","4","6","3","6","3","6","6","5","6","5","4","5","3","5","6","5","790996128928768002","徐","283","Female","[""坏她"",""好我"",""好她"",""坏我""]","[""弱她"",""强我"",""强她"",""弱我""]","","","","","","","","yes","","","","","","","","","SRET","EW_formal","","key","j","16.664814814814708","960","536","朋友","素养","Positive","morality","","","","","","","","","","",""
"894","","j","psychophysics","101","365127","0.0-7.0-3.0-0.87","5","4","4","3","2","4","2","3","4","4","5","1","-2","-1","0","-1","1","1","1","4","4","5","5","5","3","3","4","4","3","4","6","4","6","4","5","6","6","7","5","5","6","3","3","3","5","5","5","5","1","3","2","6","3","2","5","5","5","5","3","3","5","4","3","4","6","3","6","3","6","6","5","6","5","4","5","3","5","6","5","790996128928768002","徐","283","Female","[""坏她"",""好我"",""好她"",""坏我""]","[""弱她"",""强我"",""强她"",""弱我""]","","","","","","","","yes","","","","","","","","","SRET","EW_formal","","key","j","16.665486725663303","960","536","自己","缓慢","Negative","ability","","","","","","","","","","",""
"44416","
    <p><div style='color:white;font-size:35px; line-height:20px;'>计算任务</div></p><br>
    <p><div style='color:red;font-size:25px; line-height:20px;'>接下来，您将看到一些四则运算题，<b>请从键盘选择 0-9 进行反应。</b></div></p>
    <p><div style='color:red;font-size:25px; line-height:20px;'>请尽可能快地进行计算，计算的速度和正确率将影响报酬的发放。</div></p>
    <p><div class='footer' style='color:white;font-size:25px; line-height:20px;'>如果对本实验还有不清楚之处，请立即向实验员咨询。</p><p style='color:white;font-size:25px; line-height:20px;'>如果您明白了规则：</p><p style='color:white;font-size:22px; line-height:20px;'>请按 继续 进入练习</p>
    </div>
    ","0","html-button-response","102","409543","0.0-7.0-4.0","5","4","4","3","2","4","2","3","4","4","5","1","-2","-1","0","-1","1","1","1","4","4","5","5","5","3","3","4","4","3","4","6","4","6","4","5","6","6","7","5","5","6","3","3","3","5","5","5","5","1","3","2","6","3","2","5","5","5","5","3","3","5","4","3","4","6","3","6","3","6","6","5","6","5","4","5","3","5","6","5","790996128928768002","徐","283","Female","[""坏她"",""好我"",""好她"",""坏我""]","[""弱她"",""强我"",""强她"",""弱我""]","","","","","","","","","","","","","","","","","SRET_math","math_instructions","Wed Jan 10 2024 15:59:13 GMT+0800 (中国标准时间)","","","","","","","","","","","","","","","","","","","",""
"2285","","0","psychophysics","103","411830","0.0-7.0-5.0-0.0","5","4","4","3","2","4","2","3","4","4","5","1","-2","-1","0","-1","1","1","1","4","4","5","5","5","3","3","4","4","3","4","6","4","6","4","5","6","6","7","5","5","6","3","3","3","5","5","5","5","1","3","2","6","3","2","5","5","5","5","3","3","5","4","3","4","6","3","6","3","6","6","5","6","5","4","5","3","5","6","5","790996128928768002","徐","283","Female","[""坏她"",""好我"",""好她"",""坏我""]","[""弱她"",""强我"",""强她"",""弱我""]","","","","","","","","0","","","","","","","","","SRET","SRET_math_calculate","","key","0","16.665693430656596","960","536","","","","","6*0= ?","0","1","","","","","","","",""
"2343","","5","psychophysics","104","414175","0.0-7.0-5.0-0.1","5","4","4","3","2","4","2","3","4","4","5","1","-2","-1","0","-1","1","1","1","4","4","5","5","5","3","3","4","4","3","4","6","4","6","4","5","6","6","7","5","5","6","3","3","3","5","5","5","5","1","3","2","6","3","2","5","5","5","5","3","3","5","4","3","4","6","3","6","3","6","6","5","6","5","4","5","3","5","6","5","790996128928768002","徐","283","Female","[""坏她"",""好我"",""好她"",""坏我""]","[""弱她"",""强我"",""强她"",""弱我""]","","","","","","","","5","","","","","","","","","SRET","SRET_math_calculate","","key","5","16.666428571428487","960","536","","","","","17-12= ? ","5","1","","","","","","","",""
"2042","","0","psychophysics","105","416217","0.0-7.0-5.0-0.2","5","4","4","3","2","4","2","3","4","4","5","1","-2","-1","0","-1","1","1","1","4","4","5","5","5","3","3","4","4","3","4","6","4","6","4","5","6","6","7","5","5","6","3","3","3","5","5","5","5","1","3","2","6","3","2","5","5","5","5","3","3","5","4","3","4","6","3","6","3","6","6","5","6","5","4","5","3","5","6","5","790996128928768002","徐","283","Female","[""坏她"",""好我"",""好她"",""坏我""]","[""弱她"",""强我"",""强她"",""弱我""]","","","","","","","","0","","","","","","","","","SRET","SRET_math_calculate","","key","0","16.665289256198346","960","536","","","","","32-32= ?","0","1","","","","","","","",""
"2179","","6","psychophysics","106","418398","0.0-7.0-5.0-0.3","5","4","4","3","2","4","2","3","4","4","5","1","-2","-1","0","-1","1","1","1","4","4","5","5","5","3","3","4","4","3","4","6","4","6","4","5","6","6","7","5","5","6","3","3","3","5","5","5","5","1","3","2","6","3","2","5","5","5","5","3","3","5","4","3","4","6","3","6","3","6","6","5","6","5","4","5","3","5","6","5","790996128928768002","徐","283","Female","[""坏她"",""好我"",""好她"",""坏我""]","[""弱她"",""强我"",""强她"",""弱我""]","","","","","","","","6","","","","","","","","","SRET","SRET_math_calculate","","key","6","16.666153846153666","960","536","","","","","3+3= ?","6","1","","","","","","","",""
"3984","","9","psychophysics","107","422383","0.0-7.0-5.0-0.4","5","4","4","3","2","4","2","3","4","4","5","1","-2","-1","0","-1","1","1","1","4","4","5","5","5","3","3","4","4","3","4","6","4","6","4","5","6","6","7","5","5","6","3","3","3","5","5","5","5","1","3","2","6","3","2","5","5","5","5","3","3","5","4","3","4","6","3","6","3","6","6","5","6","5","4","5","3","5","6","5","790996128928768002","徐","283","Female","[""坏她"",""好我"",""好她"",""坏我""]","[""弱她"",""强我"",""强她"",""弱我""]","","","","","","","","9","","","","","","","","","SRET","SRET_math_calculate","","key","9","16.665546218487247","960","536","","","","","21/3= ? ","7","0","","","","","","","",""
"2134","","8","psychophysics","108","424518","0.0-7.0-5.0-0.5","5","4","4","3","2","4","2","3","4","4","5","1","-2","-1","0","-1","1","1","1","4","4","5","5","5","3","3","4","4","3","4","6","4","6","4","5","6","6","7","5","5","6","3","3","3","5","5","5","5","1","3","2","6","3","2","5","5","5","5","3","3","5","4","3","4","6","3","6","3","6","6","5","6","5","4","5","3","5","6","5","790996128928768002","徐","283","Female","[""坏她"",""好我"",""好她"",""坏我""]","[""弱她"",""强我"",""强她"",""弱我""]","","","","","","","","8","","","","","","","","","SRET","SRET_math_calculate","","key","8","16.66562500000009","960","536","","","","","6+2= ?","8","1","","","","","","","",""
"2159","","9","psychophysics","109","426678","0.0-7.0-5.0-0.6","5","4","4","3","2","4","2","3","4","4","5","1","-2","-1","0","-1","1","1","1","4","4","5","5","5","3","3","4","4","3","4","6","4","6","4","5","6","6","7","5","5","6","3","3","3","5","5","5","5","1","3","2","6","3","2","5","5","5","5","3","3","5","4","3","4","6","3","6","3","6","6","5","6","5","4","5","3","5","6","5","790996128928768002","徐","283","Female","[""坏她"",""好我"",""好她"",""坏我""]","[""弱她"",""强我"",""强她"",""弱我""]","","","","","","","","9","","","","","","","","","SRET","SRET_math_calculate","","key","9","16.66562500000009","960","536","","","","","1*9= ?","9","1","","","","","","","",""
"2911","","2","psychophysics","110","429590","0.0-7.0-5.0-0.7","5","4","4","3","2","4","2","3","4","4","5","1","-2","-1","0","-1","1","1","1","4","4","5","5","5","3","3","4","4","3","4","6","4","6","4","5","6","6","7","5","5","6","3","3","3","5","5","5","5","1","3","2","6","3","2","5","5","5","5","3","3","5","4","3","4","6","3","6","3","6","6","5","6","5","4","5","3","5","6","5","790996128928768002","徐","283","Female","[""坏她"",""好我"",""好她"",""坏我""]","[""弱她"",""强我"",""强她"",""弱我""]","","","","","","","","2","","","","","","","","","SRET","SRET_math_calculate","","key","2","16.666666666666668","960","536","","","","","5-3= ?","2","1","","","","","","","",""
"2808","","3","psychophysics","111","432399","0.0-7.0-5.0-0.8","5","4","4","3","2","4","2","3","4","4","5","1","-2","-1","0","-1","1","1","1","4","4","5","5","5","3","3","4","4","3","4","6","4","6","4","5","6","6","7","5","5","6","3","3","3","5","5","5","5","1","3","2","6","3","2","5","5","5","5","3","3","5","4","3","4","6","3","6","3","6","6","5","6","5","4","5","3","5","6","5","790996128928768002","徐","283","Female","[""坏她"",""好我"",""好她"",""坏我""]","[""弱她"",""强我"",""强她"",""弱我""]","","","","","","","","3","","","","","","","","","SRET","SRET_math_calculate","","key","3","16.665868263473122","960","536","","","","","21/7=  ?","3","1","","","","","","","",""
"2014","","3","psychophysics","112","434414","0.0-7.0-5.0-0.9","5","4","4","3","2","4","2","3","4","4","5","1","-2","-1","0","-1","1","1","1","4","4","5","5","5","3","3","4","4","3","4","6","4","6","4","5","6","6","7","5","5","6","3","3","3","5","5","5","5","1","3","2","6","3","2","5","5","5","5","3","3","5","4","3","4","6","3","6","3","6","6","5","6","5","4","5","3","5","6","5","790996128928768002","徐","283","Female","[""坏她"",""好我"",""好她"",""坏我""]","[""弱她"",""强我"",""强她"",""弱我""]","","","","","","","","3","","","","","","","","","SRET","SRET_math_calculate","","key","3","16.664999999999903","960","536","","","","","9/3= ?","3","1","","","","","","","",""
"2335","","9","psychophysics","113","436750","0.0-7.0-5.0-0.10","5","4","4","3","2","4","2","3","4","4","5","1","-2","-1","0","-1","1","1","1","4","4","5","5","5","3","3","4","4","3","4","6","4","6","4","5","6","6","7","5","5","6","3","3","3","5","5","5","5","1","3","2","6","3","2","5","5","5","5","3","3","5","4","3","4","6","3","6","3","6","6","5","6","5","4","5","3","5","6","5","790996128928768002","徐","283","Female","[""坏她"",""好我"",""好她"",""坏我""]","[""弱她"",""强我"",""强她"",""弱我""]","","","","","","","","9","","","","","","","","","SRET","SRET_math_calculate","","key","9","16.666906474820227","960","536","","","","","5+4= ?","9","1","","","","","","","",""
"2022","","8","psychophysics","114","438775","0.0-7.0-5.0-0.11","5","4","4","3","2","4","2","3","4","4","5","1","-2","-1","0","-1","1","1","1","4","4","5","5","5","3","3","4","4","3","4","6","4","6","4","5","6","6","7","5","5","6","3","3","3","5","5","5","5","1","3","2","6","3","2","5","5","5","5","3","3","5","4","3","4","6","3","6","3","6","6","5","6","5","4","5","3","5","6","5","790996128928768002","徐","283","Female","[""坏她"",""好我"",""好她"",""坏我""]","[""弱她"",""强我"",""强她"",""弱我""]","","","","","","","","8","","","","","","","","","SRET","SRET_math_calculate","","key","8","16.666942148760427","960","536","","","","","9-1= ?","8","1","","","","","","","",""
"1699","","0","psychophysics","115","440478","0.0-7.0-5.0-0.12","5","4","4","3","2","4","2","3","4","4","5","1","-2","-1","0","-1","1","1","1","4","4","5","5","5","3","3","4","4","3","4","6","4","6","4","5","6","6","7","5","5","6","3","3","3","5","5","5","5","1","3","2","6","3","2","5","5","5","5","3","3","5","4","3","4","6","3","6","3","6","6","5","6","5","4","5","3","5","6","5","790996128928768002","徐","283","Female","[""坏她"",""好我"",""好她"",""坏我""]","[""弱她"",""强我"",""强她"",""弱我""]","","","","","","","","0","","","","","","","","","SRET","SRET_math_calculate","","key","0","16.666336633663253","960","536","","","","","1-1= ?","0","1","","","","","","","",""
"2168","","7","psychophysics","116","442647","0.0-7.0-5.0-0.13","5","4","4","3","2","4","2","3","4","4","5","1","-2","-1","0","-1","1","1","1","4","4","5","5","5","3","3","4","4","3","4","6","4","6","4","5","6","6","7","5","5","6","3","3","3","5","5","5","5","1","3","2","6","3","2","5","5","5","5","3","3","5","4","3","4","6","3","6","3","6","6","5","6","5","4","5","3","5","6","5","790996128928768002","徐","283","Female","[""坏她"",""好我"",""好她"",""坏我""]","[""弱她"",""强我"",""强她"",""弱我""]","","","","","","","","7","","","","","","","","","SRET","SRET_math_calculate","","key","7","16.666666666666668","960","536","","","","","7*1=  ?","7","1","","","","","","","",""
"2015","","7","psychophysics","117","444662","0.0-7.0-5.0-0.14","5","4","4","3","2","4","2","3","4","4","5","1","-2","-1","0","-1","1","1","1","4","4","5","5","5","3","3","4","4","3","4","6","4","6","4","5","6","6","7","5","5","6","3","3","3","5","5","5","5","1","3","2","6","3","2","5","5","5","5","3","3","5","4","3","4","6","3","6","3","6","6","5","6","5","4","5","3","5","6","5","790996128928768002","徐","283","Female","[""坏她"",""好我"",""好她"",""坏我""]","[""弱她"",""强我"",""强她"",""弱我""]","","","","","","","","7","","","","","","","","","SRET","SRET_math_calculate","","key","7","16.665000000000386","960","536","","","","","8-1= ?","7","1","","","","","","","",""
"4951","","9","psychophysics","118","449614","0.0-7.0-5.0-0.15","5","4","4","3","2","4","2","3","4","4","5","1","-2","-1","0","-1","1","1","1","4","4","5","5","5","3","3","4","4","3","4","6","4","6","4","5","6","6","7","5","5","6","3","3","3","5","5","5","5","1","3","2","6","3","2","5","5","5","5","3","3","5","4","3","4","6","3","6","3","6","6","5","6","5","4","5","3","5","6","5","790996128928768002","徐","283","Female","[""坏她"",""好我"",""好她"",""坏我""]","[""弱她"",""强我"",""强她"",""弱我""]","","","","","","","","9","","","","","","","","","SRET","SRET_math_calculate","","key","9","16.665202702702583","960","536","","","","","32-23= ?","9","1","","","","","","","",""
"1991","","8","psychophysics","119","451606","0.0-7.0-5.0-0.16","5","4","4","3","2","4","2","3","4","4","5","1","-2","-1","0","-1","1","1","1","4","4","5","5","5","3","3","4","4","3","4","6","4","6","4","5","6","6","7","5","5","6","3","3","3","5","5","5","5","1","3","2","6","3","2","5","5","5","5","3","3","5","4","3","4","6","3","6","3","6","6","5","6","5","4","5","3","5","6","5","790996128928768002","徐","283","Female","[""坏她"",""好我"",""好她"",""坏我""]","[""弱她"",""强我"",""强她"",""弱我""]","","","","","","","","8","","","","","","","","","SRET","SRET_math_calculate","","key","8","16.668067226890756","960","536","","","","","1+7= ?","8","1","","","","","","","",""
"2040","","9","psychophysics","120","453647","0.0-7.0-5.0-0.17","5","4","4","3","2","4","2","3","4","4","5","1","-2","-1","0","-1","1","1","1","4","4","5","5","5","3","3","4","4","3","4","6","4","6","4","5","6","6","7","5","5","6","3","3","3","5","5","5","5","1","3","2","6","3","2","5","5","5","5","3","3","5","4","3","4","6","3","6","3","6","6","5","6","5","4","5","3","5","6","5","790996128928768002","徐","283","Female","[""坏她"",""好我"",""好她"",""坏我""]","[""弱她"",""强我"",""强她"",""弱我""]","","","","","","","","9","","","","","","","","","SRET","SRET_math_calculate","","key","9","16.666942148760427","960","536","","","","","4+5= ?","9","1","","","","","","","",""
"2254","","3","psychophysics","121","455902","0.0-7.0-5.0-0.18","5","4","4","3","2","4","2","3","4","4","5","1","-2","-1","0","-1","1","1","1","4","4","5","5","5","3","3","4","4","3","4","6","4","6","4","5","6","6","7","5","5","6","3","3","3","5","5","5","5","1","3","2","6","3","2","5","5","5","5","3","3","5","4","3","4","6","3","6","3","6","6","5","6","5","4","5","3","5","6","5","790996128928768002","徐","283","Female","[""坏她"",""好我"",""好她"",""坏我""]","[""弱她"",""强我"",""强她"",""弱我""]","","","","","","","","3","","","","","","","","","SRET","SRET_math_calculate","","key","3","16.66444444444453","960","536","","","","","12/4= ?","3","1","","","","","","","",""
"3368","","8","psychophysics","122","459271","0.0-7.0-5.0-0.19","5","4","4","3","2","4","2","3","4","4","5","1","-2","-1","0","-1","1","1","1","4","4","5","5","5","3","3","4","4","3","4","6","4","6","4","5","6","6","7","5","5","6","3","3","3","5","5","5","5","1","3","2","6","3","2","5","5","5","5","3","3","5","4","3","4","6","3","6","3","6","6","5","6","5","4","5","3","5","6","5","790996128928768002","徐","283","Female","[""坏她"",""好我"",""好她"",""坏我""]","[""弱她"",""强我"",""强她"",""弱我""]","","","","","","","","8","","","","","","","","","SRET","SRET_math_calculate","","key","8","16.665174129353293","960","536","","","","","13-5= ?","8","1","","","","","","","",""
"2534","","3","psychophysics","123","461806","0.0-7.0-5.0-0.20","5","4","4","3","2","4","2","3","4","4","5","1","-2","-1","0","-1","1","1","1","4","4","5","5","5","3","3","4","4","3","4","6","4","6","4","5","6","6","7","5","5","6","3","3","3","5","5","5","5","1","3","2","6","3","2","5","5","5","5","3","3","5","4","3","4","6","3","6","3","6","6","5","6","5","4","5","3","5","6","5","790996128928768002","徐","283","Female","[""坏她"",""好我"",""好她"",""坏我""]","[""弱她"",""强我"",""强她"",""弱我""]","","","","","","","","3","","","","","","","","","SRET","SRET_math_calculate","","key","3","16.664900662251423","960","536","","","","","11-8= ?","3","1","","","","","","","",""
"2146","","7","psychophysics","124","463953","0.0-7.0-5.0-0.21","5","4","4","3","2","4","2","3","4","4","5","1","-2","-1","0","-1","1","1","1","4","4","5","5","5","3","3","4","4","3","4","6","4","6","4","5","6","6","7","5","5","6","3","3","3","5","5","5","5","1","3","2","6","3","2","5","5","5","5","3","3","5","4","3","4","6","3","6","3","6","6","5","6","5","4","5","3","5","6","5","790996128928768002","徐","283","Female","[""坏她"",""好我"",""好她"",""坏我""]","[""弱她"",""强我"",""强她"",""弱我""]","","","","","","","","7","","","","","","","","","SRET","SRET_math_calculate","","key","7","16.66796875","960","536","","","","","9-2= ?","7","1","","","","","","","",""
"1796","","0","psychophysics","125","465750","0.0-7.0-5.0-0.22","5","4","4","3","2","4","2","3","4","4","5","1","-2","-1","0","-1","1","1","1","4","4","5","5","5","3","3","4","4","3","4","6","4","6","4","5","6","6","7","5","5","6","3","3","3","5","5","5","5","1","3","2","6","3","2","5","5","5","5","3","3","5","4","3","4","6","3","6","3","6","6","5","6","5","4","5","3","5","6","5","790996128928768002","徐","283","Female","[""坏她"",""好我"",""好她"",""坏我""]","[""弱她"",""强我"",""强她"",""弱我""]","","","","","","","","0","","","","","","","","","SRET","SRET_math_calculate","","key","0","16.666355140186806","960","536","","","","","22-22= ?","0","1","","","","","","","",""
"2054","","8","psychophysics","126","467806","0.0-7.0-5.0-0.23","5","4","4","3","2","4","2","3","4","4","5","1","-2","-1","0","-1","1","1","1","4","4","5","5","5","3","3","4","4","3","4","6","4","6","4","5","6","6","7","5","5","6","3","3","3","5","5","5","5","1","3","2","6","3","2","5","5","5","5","3","3","5","4","3","4","6","3","6","3","6","6","5","6","5","4","5","3","5","6","5","790996128928768002","徐","283","Female","[""坏她"",""好我"",""好她"",""坏我""]","[""弱她"",""强我"",""强她"",""弱我""]","","","","","","","","8","","","","","","","","","SRET","SRET_math_calculate","","key","8","16.6655737704919","960","536","","","","","2+6= ?","8","1","","","","","","","",""
"2335","","2","psychophysics","127","470142","0.0-7.0-5.0-0.24","5","4","4","3","2","4","2","3","4","4","5","1","-2","-1","0","-1","1","1","1","4","4","5","5","5","3","3","4","4","3","4","6","4","6","4","5","6","6","7","5","5","6","3","3","3","5","5","5","5","1","3","2","6","3","2","5","5","5","5","3","3","5","4","3","4","6","3","6","3","6","6","5","6","5","4","5","3","5","6","5","790996128928768002","徐","283","Female","[""坏她"",""好我"",""好她"",""坏我""]","[""弱她"",""强我"",""强她"",""弱我""]","","","","","","","","2","","","","","","","","","SRET","SRET_math_calculate","","key","2","16.665467625899282","960","536","","","","","29-27= ?","2","1","","","","","","","",""
"1839","","0","psychophysics","128","471982","0.0-7.0-5.0-0.25","5","4","4","3","2","4","2","3","4","4","5","1","-2","-1","0","-1","1","1","1","4","4","5","5","5","3","3","4","4","3","4","6","4","6","4","5","6","6","7","5","5","6","3","3","3","5","5","5","5","1","3","2","6","3","2","5","5","5","5","3","3","5","4","3","4","6","3","6","3","6","6","5","6","5","4","5","3","5","6","5","790996128928768002","徐","283","Female","[""坏她"",""好我"",""好她"",""坏我""]","[""弱她"",""强我"",""强她"",""弱我""]","","","","","","","","0","","","","","","","","","SRET","SRET_math_calculate","","key","0","16.66605504587188","960","536","","","","","12-12= ?","0","1","","","","","","","",""
"2223","","4","psychophysics","129","474207","0.0-7.0-5.0-0.26","5","4","4","3","2","4","2","3","4","4","5","1","-2","-1","0","-1","1","1","1","4","4","5","5","5","3","3","4","4","3","4","6","4","6","4","5","6","6","7","5","5","6","3","3","3","5","5","5","5","1","3","2","6","3","2","5","5","5","5","3","3","5","4","3","4","6","3","6","3","6","6","5","6","5","4","5","3","5","6","5","790996128928768002","徐","283","Female","[""坏她"",""好我"",""好她"",""坏我""]","[""弱她"",""强我"",""强她"",""弱我""]","","","","","","","","4","","","","","","","","","SRET","SRET_math_calculate","","key","4","16.66691729323317","960","536","","","","","2+2= ?","4","1","","","","","","","",""
"2012","","4","psychophysics","130","476223","0.0-7.0-5.0-0.27","5","4","4","3","2","4","2","3","4","4","5","1","-2","-1","0","-1","1","1","1","4","4","5","5","5","3","3","4","4","3","4","6","4","6","4","5","6","6","7","5","5","6","3","3","3","5","5","5","5","1","3","2","6","3","2","5","5","5","5","3","3","5","4","3","4","6","3","6","3","6","6","5","6","5","4","5","3","5","6","5","790996128928768002","徐","283","Female","[""坏她"",""好我"",""好她"",""坏我""]","[""弱她"",""强我"",""强她"",""弱我""]","","","","","","","","4","","","","","","","","","SRET","SRET_math_calculate","","key","4","16.665833333333044","960","536","","","","","3+1= ?","4","1","","","","","","","",""
"2767","","2","psychophysics","131","478990","0.0-7.0-5.0-0.28","5","4","4","3","2","4","2","3","4","4","5","1","-2","-1","0","-1","1","1","1","4","4","5","5","5","3","3","4","4","3","4","6","4","6","4","5","6","6","7","5","5","6","3","3","3","5","5","5","5","1","3","2","6","3","2","5","5","5","5","3","3","5","4","3","4","6","3","6","3","6","6","5","6","5","4","5","3","5","6","5","790996128928768002","徐","283","Female","[""坏她"",""好我"",""好她"",""坏我""]","[""弱她"",""强我"",""强她"",""弱我""]","","","","","","","","2","","","","","","","","","SRET","SRET_math_calculate","","key","2","16.667272727272938","960","536","","","","","90/45= ?","2","1","","","","","","","",""
"2319","","9","psychophysics","132","481310","0.0-7.0-5.0-0.29","5","4","4","3","2","4","2","3","4","4","5","1","-2","-1","0","-1","1","1","1","4","4","5","5","5","3","3","4","4","3","4","6","4","6","4","5","6","6","7","5","5","6","3","3","3","5","5","5","5","1","3","2","6","3","2","5","5","5","5","3","3","5","4","3","4","6","3","6","3","6","6","5","6","5","4","5","3","5","6","5","790996128928768002","徐","283","Female","[""坏她"",""好我"",""好她"",""坏我""]","[""弱她"",""强我"",""强她"",""弱我""]","","","","","","","","9","","","","","","","","","SRET","SRET_math_calculate","","key","9","16.665942028985675","960","536","","","","","3+6= ?","9","1","","","","","","","",""
"2463","","5","psychophysics","133","483774","0.0-7.0-5.0-0.30","5","4","4","3","2","4","2","3","4","4","5","1","-2","-1","0","-1","1","1","1","4","4","5","5","5","3","3","4","4","3","4","6","4","6","4","5","6","6","7","5","5","6","3","3","3","5","5","5","5","1","3","2","6","3","2","5","5","5","5","3","3","5","4","3","4","6","3","6","3","6","6","5","6","5","4","5","3","5","6","5","790996128928768002","徐","283","Female","[""坏她"",""好我"",""好她"",""坏我""]","[""弱她"",""强我"",""强她"",""弱我""]","","","","","","","","5","","","","","","","","","SRET","SRET_math_calculate","","key","5","16.665306122449298","960","536","","","","","5+1= ?","6","0","","","","","","","",""
"2588","","1","psychophysics","134","486363","0.0-7.0-5.0-0.31","5","4","4","3","2","4","2","3","4","4","5","1","-2","-1","0","-1","1","1","1","4","4","5","5","5","3","3","4","4","3","4","6","4","6","4","5","6","6","7","5","5","6","3","3","3","5","5","5","5","1","3","2","6","3","2","5","5","5","5","3","3","5","4","3","4","6","3","6","3","6","6","5","6","5","4","5","3","5","6","5","790996128928768002","徐","283","Female","[""坏她"",""好我"",""好她"",""坏我""]","[""弱她"",""强我"",""强她"",""弱我""]","","","","","","","","1","","","","","","","","","SRET","SRET_math_calculate","","key","1","16.664935064935214","960","536","","","","","4/4= ?","1","1","","","","","","","",""
"2112","","7","psychophysics","135","488478","0.0-7.0-5.0-0.32","5","4","4","3","2","4","2","3","4","4","5","1","-2","-1","0","-1","1","1","1","4","4","5","5","5","3","3","4","4","3","4","6","4","6","4","5","6","6","7","5","5","6","3","3","3","5","5","5","5","1","3","2","6","3","2","5","5","5","5","3","3","5","4","3","4","6","3","6","3","6","6","5","6","5","4","5","3","5","6","5","790996128928768002","徐","283","Female","[""坏她"",""好我"",""好她"",""坏我""]","[""弱她"",""强我"",""强她"",""弱我""]","","","","","","","","7","","","","","","","","","SRET","SRET_math_calculate","","key","7","16.667460317460133","960","536","","","","","6+1= ?","7","1","","","","","","","",""
"2503","","8","psychophysics","136","490983","0.0-7.0-5.0-0.33","5","4","4","3","2","4","2","3","4","4","5","1","-2","-1","0","-1","1","1","1","4","4","5","5","5","3","3","4","4","3","4","6","4","6","4","5","6","6","7","5","5","6","3","3","3","5","5","5","5","1","3","2","6","3","2","5","5","5","5","3","3","5","4","3","4","6","3","6","3","6","6","5","6","5","4","5","3","5","6","5","790996128928768002","徐","283","Female","[""坏她"",""好我"",""好她"",""坏我""]","[""弱她"",""强我"",""强她"",""弱我""]","","","","","","","","8","","","","","","","","","SRET","SRET_math_calculate","","key","8","16.665333333333255","960","536","","","","","8*1= ?","8","1","","","","","","","",""
"2230","","1","psychophysics","137","493214","0.0-7.0-5.0-0.34","5","4","4","3","2","4","2","3","4","4","5","1","-2","-1","0","-1","1","1","1","4","4","5","5","5","3","3","4","4","3","4","6","4","6","4","5","6","6","7","5","5","6","3","3","3","5","5","5","5","1","3","2","6","3","2","5","5","5","5","3","3","5","4","3","4","6","3","6","3","6","6","5","6","5","4","5","3","5","6","5","790996128928768002","徐","283","Female","[""坏她"",""好我"",""好她"",""坏我""]","[""弱她"",""强我"",""强她"",""弱我""]","","","","","","","","1","","","","","","","","","SRET","SRET_math_calculate","","key","1","16.665909090908826","960","536","","","","","30-29= ?","1","1","","","","","","","",""
"2167","","9","psychophysics","138","495382","0.0-7.0-5.0-0.35","5","4","4","3","2","4","2","3","4","4","5","1","-2","-1","0","-1","1","1","1","4","4","5","5","5","3","3","4","4","3","4","6","4","6","4","5","6","6","7","5","5","6","3","3","3","5","5","5","5","1","3","2","6","3","2","5","5","5","5","3","3","5","4","3","4","6","3","6","3","6","6","5","6","5","4","5","3","5","6","5","790996128928768002","徐","283","Female","[""坏她"",""好我"",""好她"",""坏我""]","[""弱她"",""强我"",""强她"",""弱我""]","","","","","","","","9","","","","","","","","","SRET","SRET_math_calculate","","key","9","16.664615384615562","960","536","","","","","1+8= ?","9","1","","","","","","","",""
"2992","","7","psychophysics","139","498375","0.0-7.0-5.0-0.36","5","4","4","3","2","4","2","3","4","4","5","1","-2","-1","0","-1","1","1","1","4","4","5","5","5","3","3","4","4","3","4","6","4","6","4","5","6","6","7","5","5","6","3","3","3","5","5","5","5","1","3","2","6","3","2","5","5","5","5","3","3","5","4","3","4","6","3","6","3","6","6","5","6","5","4","5","3","5","6","5","790996128928768002","徐","283","Female","[""坏她"",""好我"",""好她"",""坏我""]","[""弱她"",""强我"",""强她"",""弱我""]","","","","","","","","7","","","","","","","","","SRET","SRET_math_calculate","","key","7","16.66629213483133","960","536","","","","","49/7 = ?","7","1","","","","","","","",""
"1974","","8","psychophysics","140","500351","0.0-7.0-5.0-0.37","5","4","4","3","2","4","2","3","4","4","5","1","-2","-1","0","-1","1","1","1","4","4","5","5","5","3","3","4","4","3","4","6","4","6","4","5","6","6","7","5","5","6","3","3","3","5","5","5","5","1","3","2","6","3","2","5","5","5","5","3","3","5","4","3","4","6","3","6","3","6","6","5","6","5","4","5","3","5","6","5","790996128928768002","徐","283","Female","[""坏她"",""好我"",""好她"",""坏我""]","[""弱她"",""强我"",""强她"",""弱我""]","","","","","","","","8","","","","","","","","","SRET","SRET_math_calculate","","key","8","16.666101694915056","960","536","","","","","1*8= ?","8","1","","","","","","","",""
"2351","","3","psychophysics","141","502702","0.0-7.0-5.0-0.38","5","4","4","3","2","4","2","3","4","4","5","1","-2","-1","0","-1","1","1","1","4","4","5","5","5","3","3","4","4","3","4","6","4","6","4","5","6","6","7","5","5","6","3","3","3","5","5","5","5","1","3","2","6","3","2","5","5","5","5","3","3","5","4","3","4","6","3","6","3","6","6","5","6","5","4","5","3","5","6","5","790996128928768002","徐","283","Female","[""坏她"",""好我"",""好她"",""坏我""]","[""弱她"",""强我"",""强她"",""弱我""]","","","","","","","","3","","","","","","","","","SRET","SRET_math_calculate","","key","3","16.66571428571437","960","536","","","","","3*1= ?","3","1","","","","","","","",""
"2071","","8","psychophysics","142","504775","0.0-7.0-5.0-0.39","5","4","4","3","2","4","2","3","4","4","5","1","-2","-1","0","-1","1","1","1","4","4","5","5","5","3","3","4","4","3","4","6","4","6","4","5","6","6","7","5","5","6","3","3","3","5","5","5","5","1","3","2","6","3","2","5","5","5","5","3","3","5","4","3","4","6","3","6","3","6","6","5","6","5","4","5","3","5","6","5","790996128928768002","徐","283","Female","[""坏她"",""好我"",""好她"",""坏我""]","[""弱她"",""强我"",""强她"",""弱我""]","","","","","","","","8","","","","","","","","","SRET","SRET_math_calculate","","key","8","16.665040650406883","960","536","","","","","7+1= ?","8","1","","","","","","","",""
