"rt","stimulus","response","trial_type","trial_index","time_elapsed","internal_node_id","swb_1","swb_2","swb_3","swb_4","swb_5","LOT_1","LOT_2","LOT_3","LOT_4","LOT_5","LOT_6","IPC_1","IPC_2","IPC_3","IPC_4","IPC_5","IPC_6","IPC_7","IPC_8","MorIden_1","MorIden_2","MorIden_3","MorIden_4","MorIden_5","MorIden_6","MorIden_7","MorIden_8","MorIden_9","MorIden_10","moralSeImag_1","moralSeImag_2","moralSeImag_3","moralSeImag_4","moralSeImag_5","moralSeImag_6","moralSeImag_7","moralSeImag_8","moralSeImag_9","sde_1","sde_2","sde_3","sde_4","sde_5","sde_6","sde_7","sde_8","sde_9","sde_10","trap2","sde_11","sde_12","sde_13","sde_14","sde_15","sde_16","sde_17","sde_18","sde_19","sde_20","IM_1","IM_2","IM_3","IM_4","IM_5","IM_6","IM_7","IM_8","IM_9","IM_10","IM_11","IM_12","IM_13","IM_14","IM_15","IM_16","IM_17","IM_18","IM_19","IM_20","subj_idx","friend_name","ParticipantID","Sex","Word","Word2","value","success","timeout","failed_images","failed_audio","failed_video","user_agent","responses","item_order","radio_event_ids","radio_event_times","key_event_times","mouse_event_times","straightlining","zigzagging","honeypot","view_history","response_type","key_press","avg_frame_time","center_x","center_y","correct_response","correct","identity","Image","word","condition","task_id","screen_id","time_stamp","person","valence","domain","math","status","duration","question_order","trap2_item"
"1365","
   <p><div style='color:white; font-size: 25px'>您好，欢迎参加本次实验。</div></p>
   <p><div style='color:white; font-size: 25px'>为充分保障您的权利，请确保您已经知晓并同意《参与实验同意书》以及《数据公开知情同意书》。</div></p>
   <p><div style='color:white; font-size: 25px'>如果您未见过上述内容，请咨询实验员。</div></p>
   <p style='color:white; font-size: 25px'>如果您选择继续实验，则表示您已经清楚两份知情同意书的内容并同意。</p>
   <p><div style = ""color: pink;font-size:30px;"">请确保您记得day0的实验编号，您将在本次实验输入该编号，若您忘记，请咨询实验员后作答。</div></p>
   <p><div style = ""color:lightblue;font-size:25px;"">请您尽可能认真地作答，我们将依据您在各问卷和按键任务中的作答质量发放报酬。</div></p>
   <p> <div style = ""color: green""><按空格键至下页></div> </p>
   "," ","html-keyboard-response","0","1366","0.0-0.0","6","7","7","5","6","5","4","5","5","5","4","1","-1","2","1","0","2","2","1","5","4","5","5","4","5","5","5","4","5","7","8","6","8","6","7","7","7","8","6","6","2","7","6","5","7","2","6","6","1","7","6","6","3","7","5","7","1","3","7","2","5","1","1","1","7","6","5","7","7","7","5","3","2","2","7","7","6","6","5","759010897925771266","李","313","Male","[""好我"",""坏我"",""坏他"",""好他""]","[""强我"",""弱我"",""弱他"",""强他""]","","","","","","","","","","","","","","","","","","","","","","","","","","","","","","","","","","","","","","",""
"","","","call-function","1","1367","0.0-1.0-0.0","6","7","7","5","6","5","4","5","5","5","4","1","-1","2","1","0","2","2","1","5","4","5","5","4","5","5","5","4","5","7","8","6","8","6","7","7","7","8","6","6","2","7","6","5","7","2","6","6","1","7","6","6","3","7","5","7","1","3","7","2","5","1","1","1","7","6","5","7","7","7","5","3","2","2","7","7","6","6","5","759010897925771266","李","313","Male","[""好我"",""坏我"",""坏他"",""好他""]","[""强我"",""弱我"",""弱他"",""强他""]","","","","","","","","","","","","","","","","","","","","","","","","","","","","","","","","","","","","","","",""
"16145","","[{""name"":""Sex"",""value"":""0""},{""name"":""friend_name"",""value"":""李""},{""name"":""ParticipantID"",""value"":""313""}]","survey-html-form","2","17512","0.0-1.0-1.0","6","7","7","5","6","5","4","5","5","5","4","1","-1","2","1","0","2","2","1","5","4","5","5","4","5","5","5","4","5","7","8","6","8","6","7","7","7","8","6","6","2","7","6","5","7","2","6","6","1","7","6","6","3","7","5","7","1","3","7","2","5","1","1","1","7","6","5","7","7","7","5","3","2","2","7","7","6","6","5","759010897925771266","李","313","Male","[""好我"",""坏我"",""坏他"",""好他""]","[""强我"",""弱我"",""弱他"",""强他""]","","","","","","","","","","","","","","","","","","","","","","","","","","","","","","","","","","","","","","",""
"","","","preload","3","18075","0.0-2.0","6","7","7","5","6","5","4","5","5","5","4","1","-1","2","1","0","2","2","1","5","4","5","5","4","5","5","5","4","5","7","8","6","8","6","7","7","7","8","6","6","2","7","6","5","7","2","6","6","1","7","6","6","3","7","5","7","1","3","7","2","5","1","1","1","7","6","5","7","7","7","5","3","2","2","7","7","6","6","5","759010897925771266","李","313","Male","[""好我"",""坏我"",""坏他"",""好他""]","[""强我"",""弱我"",""弱他"",""强他""]","","true","false","[]","[]","[]","","","","","","","","","","","","","","","","","","","","","","","","","","","","","","","","",""
"","","","fullscreen","4","19285","0.0-3.0","6","7","7","5","6","5","4","5","5","5","4","1","-1","2","1","0","2","2","1","5","4","5","5","4","5","5","5","4","5","7","8","6","8","6","7","7","7","8","6","6","2","7","6","5","7","2","6","6","1","7","6","6","3","7","5","7","1","3","7","2","5","1","1","1","7","6","5","7","7","7","5","3","2","2","7","7","6","6","5","759010897925771266","李","313","Male","[""好我"",""坏我"",""坏他"",""好他""]","[""强我"",""弱我"",""弱他"",""强他""]","","true","","","","","{}","","","","","","","","","","","","","","","","","","","","","","","","","","","","","","","",""
"11594.799999982119","","{""Q01"":""6"",""Q02"":""7"",""Q03"":""7"",""Q04"":""5"",""Q05"":""6""}","survey-template","5","30881","0.0-4.0","6","7","7","5","6","5","4","5","5","5","4","1","-1","2","1","0","2","2","1","5","4","5","5","4","5","5","5","4","5","7","8","6","8","6","7","7","7","8","6","6","2","7","6","5","7","2","6","6","1","7","6","6","3","7","5","7","1","3","7","2","5","1","1","1","7","6","5","7","7","7","5","3","2","2","7","7","6","6","5","759010897925771266","李","313","Male","[""好我"",""坏我"",""坏他"",""好他""]","[""强我"",""弱我"",""弱他"",""强他""]","","","","","","","","{""Q01"":""6"",""Q02"":""7"",""Q03"":""7"",""Q04"":""5"",""Q05"":""6""}","[0,1,2,3,4]","[""Q01"",""Q02"",""Q03"",""Q04"",""Q05""]","[2130.5999999940395,2986.199999988079,3601.2999999821186,6913.199999988079,7977.399999976158]","[]","[737.3999999761581,2130.5999999940395,2986.199999988079,3601.2999999821186,6913.199999988079,7977.399999976158,8515,11593.699999988079]","0.4","0.5","0","","","","","","","","","","","","","","","","","","","","","","",""
"69532.09999999404","","{""Q01"":""5"",""Q02"":""4"",""Q03"":""5"",""Q04"":""5"",""Q05"":""5"",""Q06"":""4""}","survey-template","6","100417","0.0-5.0","6","7","7","5","6","5","4","5","5","5","4","1","-1","2","1","0","2","2","1","5","4","5","5","4","5","5","5","4","5","7","8","6","8","6","7","7","7","8","6","6","2","7","6","5","7","2","6","6","1","7","6","6","3","7","5","7","1","3","7","2","5","1","1","1","7","6","5","7","7","7","5","3","2","2","7","7","6","6","5","759010897925771266","李","313","Male","[""好我"",""坏我"",""坏他"",""好他""]","[""强我"",""弱我"",""弱他"",""强他""]","","","","","","","","{""Q01"":""5"",""Q02"":""4"",""Q03"":""5"",""Q04"":""5"",""Q05"":""5"",""Q06"":""4""}","[0,1,2,3,4,5]","[""Q01"",""Q02"",""Q03"",""Q03"",""Q04"",""Q05"",""Q06""]","[2531.699999988079,5235.4000000059605,6659.4000000059605,6931.299999982119,8947.199999988079,9907.299999982119,13035.299999982119]","[]","[699.1999999880791,2531.699999988079,5235.4000000059605,5963.299999982119,6659.4000000059605,6931.299999982119,8947.199999988079,9907.299999982119,10699.40000000596,12523.299999982119,13035.299999982119,13620,15595.199999988079,20451.19999998808,21843.19999998808,23611.29999998212,25299.40000000596,26187.69999998808,27035.59999999404,40699.40000000596,42724.09999999404,47659.5,49019.29999998212,49883.59999999404,50996.09999999404,54523.40000000596,57747.79999998212,59179.19999998808,60787.5,63043,69531.5]","0.3333333333333333","0.2","0","","","","","","","","","","","","","","","","","","","","","","",""
"29494.19999998808","","{""Q01"":""1"",""Q02"":""-1"",""Q03"":""2"",""Q04"":""1"",""Q05"":""0"",""Q06"":""2"",""Q07"":""2"",""Q08"":""1""}","survey-template","7","129913","0.0-6.0","6","7","7","5","6","5","4","5","5","5","4","1","-1","2","1","0","2","2","1","5","4","5","5","4","5","5","5","4","5","7","8","6","8","6","7","7","7","8","6","6","2","7","6","5","7","2","6","6","1","7","6","6","3","7","5","7","1","3","7","2","5","1","1","1","7","6","5","7","7","7","5","3","2","2","7","7","6","6","5","759010897925771266","李","313","Male","[""好我"",""坏我"",""坏他"",""好他""]","[""强我"",""弱我"",""弱他"",""强他""]","","","","","","","","{""Q01"":""1"",""Q02"":""-1"",""Q03"":""2"",""Q04"":""1"",""Q05"":""0"",""Q06"":""2"",""Q07"":""2"",""Q08"":""1""}","[0,1,2,3,4,5,6,7]","[""Q01"",""Q02"",""Q03"",""Q04"",""Q05"",""Q06"",""Q07"",""Q08"",""Q05""]","[1836.800000011921,3757.5999999940395,5580.9000000059605,7669.0999999940395,9516.59999999404,11844.800000011921,21972.69999998808,22740.59999999404,25788.5]","[]","[708.9000000059605,1836.800000011921,3757.5999999940395,5580.9000000059605,7669.0999999940395,9516.59999999404,9932.699999988079,11844.800000011921,12892.59999999404,21972.69999998808,22740.59999999404,23364.90000000596,25788.5,26156.90000000596,29493.19999998808]","0.375","0.42857142857142855","0","","","","","","","","","","","","","","","","","","","","","","",""
"43724","","","instructions","8","173640","0.0-7.0","6","7","7","5","6","5","4","5","5","5","4","1","-1","2","1","0","2","2","1","5","4","5","5","4","5","5","5","4","5","7","8","6","8","6","7","7","7","8","6","6","2","7","6","5","7","2","6","6","1","7","6","6","3","7","5","7","1","3","7","2","5","1","1","1","7","6","5","7","7","7","5","3","2","2","7","7","6","6","5","759010897925771266","李","313","Male","[""好我"",""坏我"",""坏他"",""好他""]","[""强我"",""弱我"",""弱他"",""强他""]","","","","","","","","","","","","","","","","","[{""page_index"":0,""viewing_time"":43724}]","","","","","","","","","","","","","","","","","","","","","",""
"66225","","","instructions","9","239865","0.0-8.0-1.0-0.0","6","7","7","5","6","5","4","5","5","5","4","1","-1","2","1","0","2","2","1","5","4","5","5","4","5","5","5","4","5","7","8","6","8","6","7","7","7","8","6","6","2","7","6","5","7","2","6","6","1","7","6","6","3","7","5","7","1","3","7","2","5","1","1","1","7","6","5","7","7","7","5","3","2","2","7","7","6","6","5","759010897925771266","李","313","Male","[""好我"",""坏我"",""坏他"",""好他""]","[""强我"",""弱我"",""弱他"",""强他""]","","","","","","","","","","","","","","","","","[{""page_index"":0,""viewing_time"":1975},{""page_index"":1,""viewing_time"":62736},{""page_index"":2,""viewing_time"":879},{""page_index"":3,""viewing_time"":634}]","","","","","","","","","","","","","","","","","","","","","",""
"798","","j","psychophysics","10","241666","0.0-8.0-1.0-1.0-0.0-0.0","6","7","7","5","6","5","4","5","5","5","4","1","-1","2","1","0","2","2","1","5","4","5","5","4","5","5","5","4","5","7","8","6","8","6","7","7","7","8","6","6","2","7","6","5","7","2","6","6","1","7","6","6","3","7","5","7","1","3","7","2","5","1","1","1","7","6","5","7","7","7","5","3","2","2","7","7","6","6","5","759010897925771266","李","313","Male","[""好我"",""坏我"",""坏他"",""好他""]","[""强我"",""弱我"",""弱他"",""强他""]","","","","","","","","match","","","","","","","","","","key","j","16.662616822429854","768","428","j","true","match","img/diamond.png","强我","强我","prac_ALT2_ability","practice_ability","","","","","","","","",""
"null","<span style='color:GreenYellow; font-size: 70px;'>正确! </span>","null","html-keyboard-response","11","242168","0.0-8.0-1.0-1.0-0.0-1.0","6","7","7","5","6","5","4","5","5","5","4","1","-1","2","1","0","2","2","1","5","4","5","5","4","5","5","5","4","5","7","8","6","8","6","7","7","7","8","6","6","2","7","6","5","7","2","6","6","1","7","6","6","3","7","5","7","1","3","7","2","5","1","1","1","7","6","5","7","7","7","5","3","2","2","7","7","6","6","5","759010897925771266","李","313","Male","[""好我"",""坏我"",""坏他"",""好他""]","[""强我"",""弱我"",""弱他"",""强他""]","","","","","","","","","","","","","","","","","","","","","","","","","","","","","","feedback_test","","","","","","","","",""
"930","","f","psychophysics","12","244100","0.0-8.0-1.0-1.0-0.0-0.1","6","7","7","5","6","5","4","5","5","5","4","1","-1","2","1","0","2","2","1","5","4","5","5","4","5","5","5","4","5","7","8","6","8","6","7","7","7","8","6","6","2","7","6","5","7","2","6","6","1","7","6","6","3","7","5","7","1","3","7","2","5","1","1","1","7","6","5","7","7","7","5","3","2","2","7","7","6","6","5","759010897925771266","李","313","Male","[""好我"",""坏我"",""坏他"",""好他""]","[""强我"",""弱我"",""弱他"",""强他""]","","","","","","","","nonmatch","","","","","","","","","","key","f","16.662608695652274","768","428","f","true","nonmatch","img/circle.png","弱他","强他","prac_ALT2_ability","practice_ability","","","","","","","","",""
"null","<span style='color:GreenYellow; font-size: 70px;'>正确! </span>","null","html-keyboard-response","13","244601","0.0-8.0-1.0-1.0-0.0-1.1","6","7","7","5","6","5","4","5","5","5","4","1","-1","2","1","0","2","2","1","5","4","5","5","4","5","5","5","4","5","7","8","6","8","6","7","7","7","8","6","6","2","7","6","5","7","2","6","6","1","7","6","6","3","7","5","7","1","3","7","2","5","1","1","1","7","6","5","7","7","7","5","3","2","2","7","7","6","6","5","759010897925771266","李","313","Male","[""好我"",""坏我"",""坏他"",""好他""]","[""强我"",""弱我"",""弱他"",""强他""]","","","","","","","","","","","","","","","","","","","","","","","","","","","","","","feedback_test","","","","","","","","",""
"713","","f","psychophysics","14","246316","0.0-8.0-1.0-1.0-0.0-0.2","6","7","7","5","6","5","4","5","5","5","4","1","-1","2","1","0","2","2","1","5","4","5","5","4","5","5","5","4","5","7","8","6","8","6","7","7","7","8","6","6","2","7","6","5","7","2","6","6","1","7","6","6","3","7","5","7","1","3","7","2","5","1","1","1","7","6","5","7","7","7","5","3","2","2","7","7","6","6","5","759010897925771266","李","313","Male","[""好我"",""坏我"",""坏他"",""好他""]","[""强我"",""弱我"",""弱他"",""强他""]","","","","","","","","nonmatch","","","","","","","","","","key","f","16.660784313725433","768","428","f","true","nonmatch","img/square.png","强他","弱他","prac_ALT2_ability","practice_ability","","","","","","","","",""
"null","<span style='color:GreenYellow; font-size: 70px;'>正确! </span>","null","html-keyboard-response","15","246817","0.0-8.0-1.0-1.0-0.0-1.2","6","7","7","5","6","5","4","5","5","5","4","1","-1","2","1","0","2","2","1","5","4","5","5","4","5","5","5","4","5","7","8","6","8","6","7","7","7","8","6","6","2","7","6","5","7","2","6","6","1","7","6","6","3","7","5","7","1","3","7","2","5","1","1","1","7","6","5","7","7","7","5","3","2","2","7","7","6","6","5","759010897925771266","李","313","Male","[""好我"",""坏我"",""坏他"",""好他""]","[""强我"",""弱我"",""弱他"",""强他""]","","","","","","","","","","","","","","","","","","","","","","","","","","","","","","feedback_test","","","","","","","","",""
"1083","","f","psychophysics","16","248901","0.0-8.0-1.0-1.0-0.0-0.3","6","7","7","5","6","5","4","5","5","5","4","1","-1","2","1","0","2","2","1","5","4","5","5","4","5","5","5","4","5","7","8","6","8","6","7","7","7","8","6","6","2","7","6","5","7","2","6","6","1","7","6","6","3","7","5","7","1","3","7","2","5","1","1","1","7","6","5","7","7","7","5","3","2","2","7","7","6","6","5","759010897925771266","李","313","Male","[""好我"",""坏我"",""坏他"",""好他""]","[""强我"",""弱我"",""弱他"",""强他""]","","","","","","","","nonmatch","","","","","","","","","","key","f","16.66290322580631","768","428","j","false","match","img/hexagon.png","弱我","弱我","prac_ALT2_ability","practice_ability","","","","","","","","",""
"null","<span style='color:red; font-size: 70px;'>错误! </span>","null","html-keyboard-response","17","249402","0.0-8.0-1.0-1.0-0.0-1.3","6","7","7","5","6","5","4","5","5","5","4","1","-1","2","1","0","2","2","1","5","4","5","5","4","5","5","5","4","5","7","8","6","8","6","7","7","7","8","6","6","2","7","6","5","7","2","6","6","1","7","6","6","3","7","5","7","1","3","7","2","5","1","1","1","7","6","5","7","7","7","5","3","2","2","7","7","6","6","5","759010897925771266","李","313","Male","[""好我"",""坏我"",""坏他"",""好他""]","[""强我"",""弱我"",""弱他"",""强他""]","","","","","","","","","","","","","","","","","","","","","","","","","","","","","","feedback_test","","","","","","","","",""
"903","","f","psychophysics","18","251307","0.0-8.0-1.0-1.0-0.0-0.4","6","7","7","5","6","5","4","5","5","5","4","1","-1","2","1","0","2","2","1","5","4","5","5","4","5","5","5","4","5","7","8","6","8","6","7","7","7","8","6","6","2","7","6","5","7","2","6","6","1","7","6","6","3","7","5","7","1","3","7","2","5","1","1","1","7","6","5","7","7","7","5","3","2","2","7","7","6","6","5","759010897925771266","李","313","Male","[""好我"",""坏我"",""坏他"",""好他""]","[""强我"",""弱我"",""弱他"",""强他""]","","","","","","","","nonmatch","","","","","","","","","","key","f","16.66140350877188","768","428","f","true","nonmatch","img/diamond.png","弱我","强我","prac_ALT2_ability","practice_ability","","","","","","","","",""
"null","<span style='color:GreenYellow; font-size: 70px;'>正确! </span>","null","html-keyboard-response","19","251807","0.0-8.0-1.0-1.0-0.0-1.4","6","7","7","5","6","5","4","5","5","5","4","1","-1","2","1","0","2","2","1","5","4","5","5","4","5","5","5","4","5","7","8","6","8","6","7","7","7","8","6","6","2","7","6","5","7","2","6","6","1","7","6","6","3","7","5","7","1","3","7","2","5","1","1","1","7","6","5","7","7","7","5","3","2","2","7","7","6","6","5","759010897925771266","李","313","Male","[""好我"",""坏我"",""坏他"",""好他""]","[""强我"",""弱我"",""弱他"",""强他""]","","","","","","","","","","","","","","","","","","","","","","","","","","","","","","feedback_test","","","","","","","","",""
"976","","j","psychophysics","20","253785","0.0-8.0-1.0-1.0-0.0-0.5","6","7","7","5","6","5","4","5","5","5","4","1","-1","2","1","0","2","2","1","5","4","5","5","4","5","5","5","4","5","7","8","6","8","6","7","7","7","8","6","6","2","7","6","5","7","2","6","6","1","7","6","6","3","7","5","7","1","3","7","2","5","1","1","1","7","6","5","7","7","7","5","3","2","2","7","7","6","6","5","759010897925771266","李","313","Male","[""好我"",""坏我"",""坏他"",""好他""]","[""强我"",""弱我"",""弱他"",""强他""]","","","","","","","","match","","","","","","","","","","key","j","16.659829059828912","768","428","f","false","nonmatch","img/square.png","弱我","弱他","prac_ALT2_ability","practice_ability","","","","","","","","",""
"null","<span style='color:red; font-size: 70px;'>错误! </span>","null","html-keyboard-response","21","254286","0.0-8.0-1.0-1.0-0.0-1.5","6","7","7","5","6","5","4","5","5","5","4","1","-1","2","1","0","2","2","1","5","4","5","5","4","5","5","5","4","5","7","8","6","8","6","7","7","7","8","6","6","2","7","6","5","7","2","6","6","1","7","6","6","3","7","5","7","1","3","7","2","5","1","1","1","7","6","5","7","7","7","5","3","2","2","7","7","6","6","5","759010897925771266","李","313","Male","[""好我"",""坏我"",""坏他"",""好他""]","[""强我"",""弱我"",""弱他"",""强他""]","","","","","","","","","","","","","","","","","","","","","","","","","","","","","","feedback_test","","","","","","","","",""
"1017","","f","psychophysics","22","256303","0.0-8.0-1.0-1.0-0.0-0.6","6","7","7","5","6","5","4","5","5","5","4","1","-1","2","1","0","2","2","1","5","4","5","5","4","5","5","5","4","5","7","8","6","8","6","7","7","7","8","6","6","2","7","6","5","7","2","6","6","1","7","6","6","3","7","5","7","1","3","7","2","5","1","1","1","7","6","5","7","7","7","5","3","2","2","7","7","6","6","5","759010897925771266","李","313","Male","[""好我"",""坏我"",""坏他"",""好他""]","[""强我"",""弱我"",""弱他"",""强他""]","","","","","","","","nonmatch","","","","","","","","","","key","f","16.659999999999854","768","428","f","true","nonmatch","img/square.png","强我","弱他","prac_ALT2_ability","practice_ability","","","","","","","","",""
"null","<span style='color:GreenYellow; font-size: 70px;'>正确! </span>","null","html-keyboard-response","23","256805","0.0-8.0-1.0-1.0-0.0-1.6","6","7","7","5","6","5","4","5","5","5","4","1","-1","2","1","0","2","2","1","5","4","5","5","4","5","5","5","4","5","7","8","6","8","6","7","7","7","8","6","6","2","7","6","5","7","2","6","6","1","7","6","6","3","7","5","7","1","3","7","2","5","1","1","1","7","6","5","7","7","7","5","3","2","2","7","7","6","6","5","759010897925771266","李","313","Male","[""好我"",""坏我"",""坏他"",""好他""]","[""强我"",""弱我"",""弱他"",""强他""]","","","","","","","","","","","","","","","","","","","","","","","","","","","","","","feedback_test","","","","","","","","",""
"748","","j","psychophysics","24","258554","0.0-8.0-1.0-1.0-0.0-0.7","6","7","7","5","6","5","4","5","5","5","4","1","-1","2","1","0","2","2","1","5","4","5","5","4","5","5","5","4","5","7","8","6","8","6","7","7","7","8","6","6","2","7","6","5","7","2","6","6","1","7","6","6","3","7","5","7","1","3","7","2","5","1","1","1","7","6","5","7","7","7","5","3","2","2","7","7","6","6","5","759010897925771266","李","313","Male","[""好我"",""坏我"",""坏他"",""好他""]","[""强我"",""弱我"",""弱他"",""强他""]","","","","","","","","match","","","","","","","","","","key","j","16.662499999999945","768","428","j","true","match","img/circle.png","强他","强他","prac_ALT2_ability","practice_ability","","","","","","","","",""
"null","<span style='color:GreenYellow; font-size: 70px;'>正确! </span>","null","html-keyboard-response","25","259056","0.0-8.0-1.0-1.0-0.0-1.7","6","7","7","5","6","5","4","5","5","5","4","1","-1","2","1","0","2","2","1","5","4","5","5","4","5","5","5","4","5","7","8","6","8","6","7","7","7","8","6","6","2","7","6","5","7","2","6","6","1","7","6","6","3","7","5","7","1","3","7","2","5","1","1","1","7","6","5","7","7","7","5","3","2","2","7","7","6","6","5","759010897925771266","李","313","Male","[""好我"",""坏我"",""坏他"",""好他""]","[""强我"",""弱我"",""弱他"",""强他""]","","","","","","","","","","","","","","","","","","","","","","","","","","","","","","feedback_test","","","","","","","","",""
"940","","f","psychophysics","26","260998","0.0-8.0-1.0-1.0-0.0-0.8","6","7","7","5","6","5","4","5","5","5","4","1","-1","2","1","0","2","2","1","5","4","5","5","4","5","5","5","4","5","7","8","6","8","6","7","7","7","8","6","6","2","7","6","5","7","2","6","6","1","7","6","6","3","7","5","7","1","3","7","2","5","1","1","1","7","6","5","7","7","7","5","3","2","2","7","7","6","6","5","759010897925771266","李","313","Male","[""好我"",""坏我"",""坏他"",""好他""]","[""强我"",""弱我"",""弱他"",""强他""]","","","","","","","","nonmatch","","","","","","","","","","key","f","16.660869565217393","768","428","f","true","nonmatch","img/circle.png","弱我","强他","prac_ALT2_ability","practice_ability","","","","","","","","",""
"null","<span style='color:GreenYellow; font-size: 70px;'>正确! </span>","null","html-keyboard-response","27","261499","0.0-8.0-1.0-1.0-0.0-1.8","6","7","7","5","6","5","4","5","5","5","4","1","-1","2","1","0","2","2","1","5","4","5","5","4","5","5","5","4","5","7","8","6","8","6","7","7","7","8","6","6","2","7","6","5","7","2","6","6","1","7","6","6","3","7","5","7","1","3","7","2","5","1","1","1","7","6","5","7","7","7","5","3","2","2","7","7","6","6","5","759010897925771266","李","313","Male","[""好我"",""坏我"",""坏他"",""好他""]","[""强我"",""弱我"",""弱他"",""强他""]","","","","","","","","","","","","","","","","","","","","","","","","","","","","","","feedback_test","","","","","","","","",""
"798","","j","psychophysics","28","263297","0.0-8.0-1.0-1.0-0.0-0.9","6","7","7","5","6","5","4","5","5","5","4","1","-1","2","1","0","2","2","1","5","4","5","5","4","5","5","5","4","5","7","8","6","8","6","7","7","7","8","6","6","2","7","6","5","7","2","6","6","1","7","6","6","3","7","5","7","1","3","7","2","5","1","1","1","7","6","5","7","7","7","5","3","2","2","7","7","6","6","5","759010897925771266","李","313","Male","[""好我"",""坏我"",""坏他"",""好他""]","[""强我"",""弱我"",""弱他"",""强他""]","","","","","","","","match","","","","","","","","","","key","j","16.661682242990544","768","428","j","true","match","img/diamond.png","强我","强我","prac_ALT2_ability","practice_ability","","","","","","","","",""
"null","<span style='color:GreenYellow; font-size: 70px;'>正确! </span>","null","html-keyboard-response","29","263798","0.0-8.0-1.0-1.0-0.0-1.9","6","7","7","5","6","5","4","5","5","5","4","1","-1","2","1","0","2","2","1","5","4","5","5","4","5","5","5","4","5","7","8","6","8","6","7","7","7","8","6","6","2","7","6","5","7","2","6","6","1","7","6","6","3","7","5","7","1","3","7","2","5","1","1","1","7","6","5","7","7","7","5","3","2","2","7","7","6","6","5","759010897925771266","李","313","Male","[""好我"",""坏我"",""坏他"",""好他""]","[""强我"",""弱我"",""弱他"",""强他""]","","","","","","","","","","","","","","","","","","","","","","","","","","","","","","feedback_test","","","","","","","","",""
"686","","j","psychophysics","30","265484","0.0-8.0-1.0-1.0-0.0-0.10","6","7","7","5","6","5","4","5","5","5","4","1","-1","2","1","0","2","2","1","5","4","5","5","4","5","5","5","4","5","7","8","6","8","6","7","7","7","8","6","6","2","7","6","5","7","2","6","6","1","7","6","6","3","7","5","7","1","3","7","2","5","1","1","1","7","6","5","7","7","7","5","3","2","2","7","7","6","6","5","759010897925771266","李","313","Male","[""好我"",""坏我"",""坏他"",""好他""]","[""强我"",""弱我"",""弱他"",""强他""]","","","","","","","","match","","","","","","","","","","key","j","16.662376237623416","768","428","j","true","match","img/diamond.png","强我","强我","prac_ALT2_ability","practice_ability","","","","","","","","",""
"null","<span style='color:GreenYellow; font-size: 70px;'>正确! </span>","null","html-keyboard-response","31","265986","0.0-8.0-1.0-1.0-0.0-1.10","6","7","7","5","6","5","4","5","5","5","4","1","-1","2","1","0","2","2","1","5","4","5","5","4","5","5","5","4","5","7","8","6","8","6","7","7","7","8","6","6","2","7","6","5","7","2","6","6","1","7","6","6","3","7","5","7","1","3","7","2","5","1","1","1","7","6","5","7","7","7","5","3","2","2","7","7","6","6","5","759010897925771266","李","313","Male","[""好我"",""坏我"",""坏他"",""好他""]","[""强我"",""弱我"",""弱他"",""强他""]","","","","","","","","","","","","","","","","","","","","","","","","","","","","","","feedback_test","","","","","","","","",""
"913","","f","psychophysics","32","267901","0.0-8.0-1.0-1.0-0.0-0.11","6","7","7","5","6","5","4","5","5","5","4","1","-1","2","1","0","2","2","1","5","4","5","5","4","5","5","5","4","5","7","8","6","8","6","7","7","7","8","6","6","2","7","6","5","7","2","6","6","1","7","6","6","3","7","5","7","1","3","7","2","5","1","1","1","7","6","5","7","7","7","5","3","2","2","7","7","6","6","5","759010897925771266","李","313","Male","[""好我"",""坏我"",""坏他"",""好他""]","[""强我"",""弱我"",""弱他"",""强他""]","","","","","","","","nonmatch","","","","","","","","","","key","f","16.660526315789372","768","428","f","true","nonmatch","img/diamond.png","弱他","强我","prac_ALT2_ability","practice_ability","","","","","","","","",""
"null","<span style='color:GreenYellow; font-size: 70px;'>正确! </span>","null","html-keyboard-response","33","268402","0.0-8.0-1.0-1.0-0.0-1.11","6","7","7","5","6","5","4","5","5","5","4","1","-1","2","1","0","2","2","1","5","4","5","5","4","5","5","5","4","5","7","8","6","8","6","7","7","7","8","6","6","2","7","6","5","7","2","6","6","1","7","6","6","3","7","5","7","1","3","7","2","5","1","1","1","7","6","5","7","7","7","5","3","2","2","7","7","6","6","5","759010897925771266","李","313","Male","[""好我"",""坏我"",""坏他"",""好他""]","[""强我"",""弱我"",""弱他"",""强他""]","","","","","","","","","","","","","","","","","","","","","","","","","","","","","","feedback_test","","","","","","","","",""
"1016","","j","psychophysics","34","270419","0.0-8.0-1.0-1.0-0.0-0.12","6","7","7","5","6","5","4","5","5","5","4","1","-1","2","1","0","2","2","1","5","4","5","5","4","5","5","5","4","5","7","8","6","8","6","7","7","7","8","6","6","2","7","6","5","7","2","6","6","1","7","6","6","3","7","5","7","1","3","7","2","5","1","1","1","7","6","5","7","7","7","5","3","2","2","7","7","6","6","5","759010897925771266","李","313","Male","[""好我"",""坏我"",""坏他"",""好他""]","[""强我"",""弱我"",""弱他"",""强他""]","","","","","","","","match","","","","","","","","","","key","j","16.66166666666686","768","428","j","true","match","img/circle.png","强他","强他","prac_ALT2_ability","practice_ability","","","","","","","","",""
"null","<span style='color:GreenYellow; font-size: 70px;'>正确! </span>","null","html-keyboard-response","35","270921","0.0-8.0-1.0-1.0-0.0-1.12","6","7","7","5","6","5","4","5","5","5","4","1","-1","2","1","0","2","2","1","5","4","5","5","4","5","5","5","4","5","7","8","6","8","6","7","7","7","8","6","6","2","7","6","5","7","2","6","6","1","7","6","6","3","7","5","7","1","3","7","2","5","1","1","1","7","6","5","7","7","7","5","3","2","2","7","7","6","6","5","759010897925771266","李","313","Male","[""好我"",""坏我"",""坏他"",""好他""]","[""强我"",""弱我"",""弱他"",""强他""]","","","","","","","","","","","","","","","","","","","","","","","","","","","","","","feedback_test","","","","","","","","",""
"859","","j","psychophysics","36","272782","0.0-8.0-1.0-1.0-0.0-0.13","6","7","7","5","6","5","4","5","5","5","4","1","-1","2","1","0","2","2","1","5","4","5","5","4","5","5","5","4","5","7","8","6","8","6","7","7","7","8","6","6","2","7","6","5","7","2","6","6","1","7","6","6","3","7","5","7","1","3","7","2","5","1","1","1","7","6","5","7","7","7","5","3","2","2","7","7","6","6","5","759010897925771266","李","313","Male","[""好我"",""坏我"",""坏他"",""好他""]","[""强我"",""弱我"",""弱他"",""强他""]","","","","","","","","match","","","","","","","","","","key","j","16.661261261261473","768","428","j","true","match","img/square.png","弱他","弱他","prac_ALT2_ability","practice_ability","","","","","","","","",""
"null","<span style='color:GreenYellow; font-size: 70px;'>正确! </span>","null","html-keyboard-response","37","273283","0.0-8.0-1.0-1.0-0.0-1.13","6","7","7","5","6","5","4","5","5","5","4","1","-1","2","1","0","2","2","1","5","4","5","5","4","5","5","5","4","5","7","8","6","8","6","7","7","7","8","6","6","2","7","6","5","7","2","6","6","1","7","6","6","3","7","5","7","1","3","7","2","5","1","1","1","7","6","5","7","7","7","5","3","2","2","7","7","6","6","5","759010897925771266","李","313","Male","[""好我"",""坏我"",""坏他"",""好他""]","[""强我"",""弱我"",""弱他"",""强他""]","","","","","","","","","","","","","","","","","","","","","","","","","","","","","","feedback_test","","","","","","","","",""
"931","","f","psychophysics","38","275215","0.0-8.0-1.0-1.0-0.0-0.14","6","7","7","5","6","5","4","5","5","5","4","1","-1","2","1","0","2","2","1","5","4","5","5","4","5","5","5","4","5","7","8","6","8","6","7","7","7","8","6","6","2","7","6","5","7","2","6","6","1","7","6","6","3","7","5","7","1","3","7","2","5","1","1","1","7","6","5","7","7","7","5","3","2","2","7","7","6","6","5","759010897925771266","李","313","Male","[""好我"",""坏我"",""坏他"",""好他""]","[""强我"",""弱我"",""弱他"",""强他""]","","","","","","","","nonmatch","","","","","","","","","","key","f","16.659999999999695","768","428","f","true","nonmatch","img/hexagon.png","强他","弱我","prac_ALT2_ability","practice_ability","","","","","","","","",""
"null","<span style='color:GreenYellow; font-size: 70px;'>正确! </span>","null","html-keyboard-response","39","275716","0.0-8.0-1.0-1.0-0.0-1.14","6","7","7","5","6","5","4","5","5","5","4","1","-1","2","1","0","2","2","1","5","4","5","5","4","5","5","5","4","5","7","8","6","8","6","7","7","7","8","6","6","2","7","6","5","7","2","6","6","1","7","6","6","3","7","5","7","1","3","7","2","5","1","1","1","7","6","5","7","7","7","5","3","2","2","7","7","6","6","5","759010897925771266","李","313","Male","[""好我"",""坏我"",""坏他"",""好他""]","[""强我"",""弱我"",""弱他"",""强他""]","","","","","","","","","","","","","","","","","","","","","","","","","","","","","","feedback_test","","","","","","","","",""
"733","","j","psychophysics","40","277450","0.0-8.0-1.0-1.0-0.0-0.15","6","7","7","5","6","5","4","5","5","5","4","1","-1","2","1","0","2","2","1","5","4","5","5","4","5","5","5","4","5","7","8","6","8","6","7","7","7","8","6","6","2","7","6","5","7","2","6","6","1","7","6","6","3","7","5","7","1","3","7","2","5","1","1","1","7","6","5","7","7","7","5","3","2","2","7","7","6","6","5","759010897925771266","李","313","Male","[""好我"",""坏我"",""坏他"",""好他""]","[""强我"",""弱我"",""弱他"",""强他""]","","","","","","","","match","","","","","","","","","","key","j","16.660194174757283","768","428","f","false","nonmatch","img/diamond.png","强他","强我","prac_ALT2_ability","practice_ability","","","","","","","","",""
"null","<span style='color:red; font-size: 70px;'>错误! </span>","null","html-keyboard-response","41","277951","0.0-8.0-1.0-1.0-0.0-1.15","6","7","7","5","6","5","4","5","5","5","4","1","-1","2","1","0","2","2","1","5","4","5","5","4","5","5","5","4","5","7","8","6","8","6","7","7","7","8","6","6","2","7","6","5","7","2","6","6","1","7","6","6","3","7","5","7","1","3","7","2","5","1","1","1","7","6","5","7","7","7","5","3","2","2","7","7","6","6","5","759010897925771266","李","313","Male","[""好我"",""坏我"",""坏他"",""好他""]","[""强我"",""弱我"",""弱他"",""强他""]","","","","","","","","","","","","","","","","","","","","","","","","","","","","","","feedback_test","","","","","","","","",""
"855","","j","psychophysics","42","279808","0.0-8.0-1.0-1.0-0.0-0.16","6","7","7","5","6","5","4","5","5","5","4","1","-1","2","1","0","2","2","1","5","4","5","5","4","5","5","5","4","5","7","8","6","8","6","7","7","7","8","6","6","2","7","6","5","7","2","6","6","1","7","6","6","3","7","5","7","1","3","7","2","5","1","1","1","7","6","5","7","7","7","5","3","2","2","7","7","6","6","5","759010897925771266","李","313","Male","[""好我"",""坏我"",""坏他"",""好他""]","[""强我"",""弱我"",""弱他"",""强他""]","","","","","","","","match","","","","","","","","","","key","j","16.660909090909197","768","428","j","true","match","img/square.png","弱他","弱他","prac_ALT2_ability","practice_ability","","","","","","","","",""
"null","<span style='color:GreenYellow; font-size: 70px;'>正确! </span>","null","html-keyboard-response","43","280310","0.0-8.0-1.0-1.0-0.0-1.16","6","7","7","5","6","5","4","5","5","5","4","1","-1","2","1","0","2","2","1","5","4","5","5","4","5","5","5","4","5","7","8","6","8","6","7","7","7","8","6","6","2","7","6","5","7","2","6","6","1","7","6","6","3","7","5","7","1","3","7","2","5","1","1","1","7","6","5","7","7","7","5","3","2","2","7","7","6","6","5","759010897925771266","李","313","Male","[""好我"",""坏我"",""坏他"",""好他""]","[""强我"",""弱我"",""弱他"",""强他""]","","","","","","","","","","","","","","","","","","","","","","","","","","","","","","feedback_test","","","","","","","","",""
"732","","j","psychophysics","44","282043","0.0-8.0-1.0-1.0-0.0-0.17","6","7","7","5","6","5","4","5","5","5","4","1","-1","2","1","0","2","2","1","5","4","5","5","4","5","5","5","4","5","7","8","6","8","6","7","7","7","8","6","6","2","7","6","5","7","2","6","6","1","7","6","6","3","7","5","7","1","3","7","2","5","1","1","1","7","6","5","7","7","7","5","3","2","2","7","7","6","6","5","759010897925771266","李","313","Male","[""好我"",""坏我"",""坏他"",""好他""]","[""强我"",""弱我"",""弱他"",""强他""]","","","","","","","","match","","","","","","","","","","key","j","16.661165048543463","768","428","f","false","nonmatch","img/circle.png","强我","强他","prac_ALT2_ability","practice_ability","","","","","","","","",""
"null","<span style='color:red; font-size: 70px;'>错误! </span>","null","html-keyboard-response","45","282544","0.0-8.0-1.0-1.0-0.0-1.17","6","7","7","5","6","5","4","5","5","5","4","1","-1","2","1","0","2","2","1","5","4","5","5","4","5","5","5","4","5","7","8","6","8","6","7","7","7","8","6","6","2","7","6","5","7","2","6","6","1","7","6","6","3","7","5","7","1","3","7","2","5","1","1","1","7","6","5","7","7","7","5","3","2","2","7","7","6","6","5","759010897925771266","李","313","Male","[""好我"",""坏我"",""坏他"",""好他""]","[""强我"",""弱我"",""弱他"",""强他""]","","","","","","","","","","","","","","","","","","","","","","","","","","","","","","feedback_test","","","","","","","","",""
"719","","j","psychophysics","46","284263","0.0-8.0-1.0-1.0-0.0-0.18","6","7","7","5","6","5","4","5","5","5","4","1","-1","2","1","0","2","2","1","5","4","5","5","4","5","5","5","4","5","7","8","6","8","6","7","7","7","8","6","6","2","7","6","5","7","2","6","6","1","7","6","6","3","7","5","7","1","3","7","2","5","1","1","1","7","6","5","7","7","7","5","3","2","2","7","7","6","6","5","759010897925771266","李","313","Male","[""好我"",""坏我"",""坏他"",""好他""]","[""强我"",""弱我"",""弱他"",""强他""]","","","","","","","","match","","","","","","","","","","key","j","16.662745098038986","768","428","j","true","match","img/circle.png","强他","强他","prac_ALT2_ability","practice_ability","","","","","","","","",""
"null","<span style='color:GreenYellow; font-size: 70px;'>正确! </span>","null","html-keyboard-response","47","284764","0.0-8.0-1.0-1.0-0.0-1.18","6","7","7","5","6","5","4","5","5","5","4","1","-1","2","1","0","2","2","1","5","4","5","5","4","5","5","5","4","5","7","8","6","8","6","7","7","7","8","6","6","2","7","6","5","7","2","6","6","1","7","6","6","3","7","5","7","1","3","7","2","5","1","1","1","7","6","5","7","7","7","5","3","2","2","7","7","6","6","5","759010897925771266","李","313","Male","[""好我"",""坏我"",""坏他"",""好他""]","[""强我"",""弱我"",""弱他"",""强他""]","","","","","","","","","","","","","","","","","","","","","","","","","","","","","","feedback_test","","","","","","","","",""
"934","","j","psychophysics","48","286699","0.0-8.0-1.0-1.0-0.0-0.19","6","7","7","5","6","5","4","5","5","5","4","1","-1","2","1","0","2","2","1","5","4","5","5","4","5","5","5","4","5","7","8","6","8","6","7","7","7","8","6","6","2","7","6","5","7","2","6","6","1","7","6","6","3","7","5","7","1","3","7","2","5","1","1","1","7","6","5","7","7","7","5","3","2","2","7","7","6","6","5","759010897925771266","李","313","Male","[""好我"",""坏我"",""坏他"",""好他""]","[""强我"",""弱我"",""弱他"",""强他""]","","","","","","","","match","","","","","","","","","","key","j","16.662608695652274","768","428","f","false","nonmatch","img/hexagon.png","弱他","弱我","prac_ALT2_ability","practice_ability","","","","","","","","",""
"null","<span style='color:red; font-size: 70px;'>错误! </span>","null","html-keyboard-response","49","287200","0.0-8.0-1.0-1.0-0.0-1.19","6","7","7","5","6","5","4","5","5","5","4","1","-1","2","1","0","2","2","1","5","4","5","5","4","5","5","5","4","5","7","8","6","8","6","7","7","7","8","6","6","2","7","6","5","7","2","6","6","1","7","6","6","3","7","5","7","1","3","7","2","5","1","1","1","7","6","5","7","7","7","5","3","2","2","7","7","6","6","5","759010897925771266","李","313","Male","[""好我"",""坏我"",""坏他"",""好他""]","[""强我"",""弱我"",""弱他"",""强他""]","","","","","","","","","","","","","","","","","","","","","","","","","","","","","","feedback_test","","","","","","","","",""
"895","","f","psychophysics","50","289097","0.0-8.0-1.0-1.0-0.0-0.20","6","7","7","5","6","5","4","5","5","5","4","1","-1","2","1","0","2","2","1","5","4","5","5","4","5","5","5","4","5","7","8","6","8","6","7","7","7","8","6","6","2","7","6","5","7","2","6","6","1","7","6","6","3","7","5","7","1","3","7","2","5","1","1","1","7","6","5","7","7","7","5","3","2","2","7","7","6","6","5","759010897925771266","李","313","Male","[""好我"",""坏我"",""坏他"",""好他""]","[""强我"",""弱我"",""弱他"",""强他""]","","","","","","","","nonmatch","","","","","","","","","","key","f","16.660176991150237","768","428","f","true","nonmatch","img/hexagon.png","强我","弱我","prac_ALT2_ability","practice_ability","","","","","","","","",""
"null","<span style='color:GreenYellow; font-size: 70px;'>正确! </span>","null","html-keyboard-response","51","289598","0.0-8.0-1.0-1.0-0.0-1.20","6","7","7","5","6","5","4","5","5","5","4","1","-1","2","1","0","2","2","1","5","4","5","5","4","5","5","5","4","5","7","8","6","8","6","7","7","7","8","6","6","2","7","6","5","7","2","6","6","1","7","6","6","3","7","5","7","1","3","7","2","5","1","1","1","7","6","5","7","7","7","5","3","2","2","7","7","6","6","5","759010897925771266","李","313","Male","[""好我"",""坏我"",""坏他"",""好他""]","[""强我"",""弱我"",""弱他"",""强他""]","","","","","","","","","","","","","","","","","","","","","","","","","","","","","","feedback_test","","","","","","","","",""
"895","","j","psychophysics","52","291495","0.0-8.0-1.0-1.0-0.0-0.21","6","7","7","5","6","5","4","5","5","5","4","1","-1","2","1","0","2","2","1","5","4","5","5","4","5","5","5","4","5","7","8","6","8","6","7","7","7","8","6","6","2","7","6","5","7","2","6","6","1","7","6","6","3","7","5","7","1","3","7","2","5","1","1","1","7","6","5","7","7","7","5","3","2","2","7","7","6","6","5","759010897925771266","李","313","Male","[""好我"",""坏我"",""坏他"",""好他""]","[""强我"",""弱我"",""弱他"",""强他""]","","","","","","","","match","","","","","","","","","","key","j","16.66106194690276","768","428","j","true","match","img/hexagon.png","弱我","弱我","prac_ALT2_ability","practice_ability","","","","","","","","",""
"null","<span style='color:GreenYellow; font-size: 70px;'>正确! </span>","null","html-keyboard-response","53","291996","0.0-8.0-1.0-1.0-0.0-1.21","6","7","7","5","6","5","4","5","5","5","4","1","-1","2","1","0","2","2","1","5","4","5","5","4","5","5","5","4","5","7","8","6","8","6","7","7","7","8","6","6","2","7","6","5","7","2","6","6","1","7","6","6","3","7","5","7","1","3","7","2","5","1","1","1","7","6","5","7","7","7","5","3","2","2","7","7","6","6","5","759010897925771266","李","313","Male","[""好我"",""坏我"",""坏他"",""好他""]","[""强我"",""弱我"",""弱他"",""强他""]","","","","","","","","","","","","","","","","","","","","","","","","","","","","","","feedback_test","","","","","","","","",""
"731","","j","psychophysics","54","293729","0.0-8.0-1.0-1.0-0.0-0.22","6","7","7","5","6","5","4","5","5","5","4","1","-1","2","1","0","2","2","1","5","4","5","5","4","5","5","5","4","5","7","8","6","8","6","7","7","7","8","6","6","2","7","6","5","7","2","6","6","1","7","6","6","3","7","5","7","1","3","7","2","5","1","1","1","7","6","5","7","7","7","5","3","2","2","7","7","6","6","5","759010897925771266","李","313","Male","[""好我"",""坏我"",""坏他"",""好他""]","[""强我"",""弱我"",""弱他"",""强他""]","","","","","","","","match","","","","","","","","","","key","j","16.660194174757283","768","428","j","true","match","img/hexagon.png","弱我","弱我","prac_ALT2_ability","practice_ability","","","","","","","","",""
"null","<span style='color:GreenYellow; font-size: 70px;'>正确! </span>","null","html-keyboard-response","55","294230","0.0-8.0-1.0-1.0-0.0-1.22","6","7","7","5","6","5","4","5","5","5","4","1","-1","2","1","0","2","2","1","5","4","5","5","4","5","5","5","4","5","7","8","6","8","6","7","7","7","8","6","6","2","7","6","5","7","2","6","6","1","7","6","6","3","7","5","7","1","3","7","2","5","1","1","1","7","6","5","7","7","7","5","3","2","2","7","7","6","6","5","759010897925771266","李","313","Male","[""好我"",""坏我"",""坏他"",""好他""]","[""强我"",""弱我"",""弱他"",""强他""]","","","","","","","","","","","","","","","","","","","","","","","","","","","","","","feedback_test","","","","","","","","",""
"863","","j","psychophysics","56","296095","0.0-8.0-1.0-1.0-0.0-0.23","6","7","7","5","6","5","4","5","5","5","4","1","-1","2","1","0","2","2","1","5","4","5","5","4","5","5","5","4","5","7","8","6","8","6","7","7","7","8","6","6","2","7","6","5","7","2","6","6","1","7","6","6","3","7","5","7","1","3","7","2","5","1","1","1","7","6","5","7","7","7","5","3","2","2","7","7","6","6","5","759010897925771266","李","313","Male","[""好我"",""坏我"",""坏他"",""好他""]","[""强我"",""弱我"",""弱他"",""强他""]","","","","","","","","match","","","","","","","","","","key","j","16.660360360360254","768","428","j","true","match","img/square.png","弱他","弱他","prac_ALT2_ability","practice_ability","","","","","","","","",""
"null","<span style='color:GreenYellow; font-size: 70px;'>正确! </span>","null","html-keyboard-response","57","296595","0.0-8.0-1.0-1.0-0.0-1.23","6","7","7","5","6","5","4","5","5","5","4","1","-1","2","1","0","2","2","1","5","4","5","5","4","5","5","5","4","5","7","8","6","8","6","7","7","7","8","6","6","2","7","6","5","7","2","6","6","1","7","6","6","3","7","5","7","1","3","7","2","5","1","1","1","7","6","5","7","7","7","5","3","2","2","7","7","6","6","5","759010897925771266","李","313","Male","[""好我"",""坏我"",""坏他"",""好他""]","[""强我"",""弱我"",""弱他"",""强他""]","","","","","","","","","","","","","","","","","","","","","","","","","","","","","","feedback_test","","","","","","","","",""
"779","","j","psychophysics","58","298375","0.0-8.0-1.0-1.0-0.0-0.24","6","7","7","5","6","5","4","5","5","5","4","1","-1","2","1","0","2","2","1","5","4","5","5","4","5","5","5","4","5","7","8","6","8","6","7","7","7","8","6","6","2","7","6","5","7","2","6","6","1","7","6","6","3","7","5","7","1","3","7","2","5","1","1","1","7","6","5","7","7","7","5","3","2","2","7","7","6","6","5","759010897925771266","李","313","Male","[""好我"",""坏我"",""坏他"",""好他""]","[""强我"",""弱我"",""弱他"",""强他""]","","","","","","","","match","","","","","","","","","","key","j","16.660377358490567","768","428","j","true","match","img/hexagon.png","弱我","弱我","prac_ALT2_ability","practice_ability","","","","","","","","",""
"null","<span style='color:GreenYellow; font-size: 70px;'>正确! </span>","null","html-keyboard-response","59","298877","0.0-8.0-1.0-1.0-0.0-1.24","6","7","7","5","6","5","4","5","5","5","4","1","-1","2","1","0","2","2","1","5","4","5","5","4","5","5","5","4","5","7","8","6","8","6","7","7","7","8","6","6","2","7","6","5","7","2","6","6","1","7","6","6","3","7","5","7","1","3","7","2","5","1","1","1","7","6","5","7","7","7","5","3","2","2","7","7","6","6","5","759010897925771266","李","313","Male","[""好我"",""坏我"",""坏他"",""好他""]","[""强我"",""弱我"",""弱他"",""强他""]","","","","","","","","","","","","","","","","","","","","","","","","","","","","","","feedback_test","","","","","","","","",""
"868","","f","psychophysics","60","300747","0.0-8.0-1.0-1.0-0.0-0.25","6","7","7","5","6","5","4","5","5","5","4","1","-1","2","1","0","2","2","1","5","4","5","5","4","5","5","5","4","5","7","8","6","8","6","7","7","7","8","6","6","2","7","6","5","7","2","6","6","1","7","6","6","3","7","5","7","1","3","7","2","5","1","1","1","7","6","5","7","7","7","5","3","2","2","7","7","6","6","5","759010897925771266","李","313","Male","[""好我"",""坏我"",""坏他"",""好他""]","[""强我"",""弱我"",""弱他"",""强他""]","","","","","","","","nonmatch","","","","","","","","","","key","f","16.659459459459566","768","428","f","true","nonmatch","img/hexagon.png","强他","弱我","prac_ALT2_ability","practice_ability","","","","","","","","",""
"null","<span style='color:GreenYellow; font-size: 70px;'>正确! </span>","null","html-keyboard-response","61","301249","0.0-8.0-1.0-1.0-0.0-1.25","6","7","7","5","6","5","4","5","5","5","4","1","-1","2","1","0","2","2","1","5","4","5","5","4","5","5","5","4","5","7","8","6","8","6","7","7","7","8","6","6","2","7","6","5","7","2","6","6","1","7","6","6","3","7","5","7","1","3","7","2","5","1","1","1","7","6","5","7","7","7","5","3","2","2","7","7","6","6","5","759010897925771266","李","313","Male","[""好我"",""坏我"",""坏他"",""好他""]","[""强我"",""弱我"",""弱他"",""强他""]","","","","","","","","","","","","","","","","","","","","","","","","","","","","","","feedback_test","","","","","","","","",""
"942","","f","psychophysics","62","303193","0.0-8.0-1.0-1.0-0.0-0.26","6","7","7","5","6","5","4","5","5","5","4","1","-1","2","1","0","2","2","1","5","4","5","5","4","5","5","5","4","5","7","8","6","8","6","7","7","7","8","6","6","2","7","6","5","7","2","6","6","1","7","6","6","3","7","5","7","1","3","7","2","5","1","1","1","7","6","5","7","7","7","5","3","2","2","7","7","6","6","5","759010897925771266","李","313","Male","[""好我"",""坏我"",""坏他"",""好他""]","[""强我"",""弱我"",""弱他"",""强他""]","","","","","","","","nonmatch","","","","","","","","","","key","f","16.660344827586506","768","428","f","true","nonmatch","img/hexagon.png","强我","弱我","prac_ALT2_ability","practice_ability","","","","","","","","",""
"null","<span style='color:GreenYellow; font-size: 70px;'>正确! </span>","null","html-keyboard-response","63","303693","0.0-8.0-1.0-1.0-0.0-1.26","6","7","7","5","6","5","4","5","5","5","4","1","-1","2","1","0","2","2","1","5","4","5","5","4","5","5","5","4","5","7","8","6","8","6","7","7","7","8","6","6","2","7","6","5","7","2","6","6","1","7","6","6","3","7","5","7","1","3","7","2","5","1","1","1","7","6","5","7","7","7","5","3","2","2","7","7","6","6","5","759010897925771266","李","313","Male","[""好我"",""坏我"",""坏他"",""好他""]","[""强我"",""弱我"",""弱他"",""强他""]","","","","","","","","","","","","","","","","","","","","","","","","","","","","","","feedback_test","","","","","","","","",""
"848","","j","psychophysics","64","305543","0.0-8.0-1.0-1.0-0.0-0.27","6","7","7","5","6","5","4","5","5","5","4","1","-1","2","1","0","2","2","1","5","4","5","5","4","5","5","5","4","5","7","8","6","8","6","7","7","7","8","6","6","2","7","6","5","7","2","6","6","1","7","6","6","3","7","5","7","1","3","7","2","5","1","1","1","7","6","5","7","7","7","5","3","2","2","7","7","6","6","5","759010897925771266","李","313","Male","[""好我"",""坏我"",""坏他"",""好他""]","[""强我"",""弱我"",""弱他"",""强他""]","","","","","","","","match","","","","","","","","","","key","j","16.660909090909197","768","428","j","true","match","img/square.png","弱他","弱他","prac_ALT2_ability","practice_ability","","","","","","","","",""
"null","<span style='color:GreenYellow; font-size: 70px;'>正确! </span>","null","html-keyboard-response","65","306045","0.0-8.0-1.0-1.0-0.0-1.27","6","7","7","5","6","5","4","5","5","5","4","1","-1","2","1","0","2","2","1","5","4","5","5","4","5","5","5","4","5","7","8","6","8","6","7","7","7","8","6","6","2","7","6","5","7","2","6","6","1","7","6","6","3","7","5","7","1","3","7","2","5","1","1","1","7","6","5","7","7","7","5","3","2","2","7","7","6","6","5","759010897925771266","李","313","Male","[""好我"",""坏我"",""坏他"",""好他""]","[""强我"",""弱我"",""弱他"",""强他""]","","","","","","","","","","","","","","","","","","","","","","","","","","","","","","feedback_test","","","","","","","","",""
"806","","j","psychophysics","66","307858","0.0-8.0-1.0-1.0-0.0-0.28","6","7","7","5","6","5","4","5","5","5","4","1","-1","2","1","0","2","2","1","5","4","5","5","4","5","5","5","4","5","7","8","6","8","6","7","7","7","8","6","6","2","7","6","5","7","2","6","6","1","7","6","6","3","7","5","7","1","3","7","2","5","1","1","1","7","6","5","7","7","7","5","3","2","2","7","7","6","6","5","759010897925771266","李","313","Male","[""好我"",""坏我"",""坏他"",""好他""]","[""强我"",""弱我"",""弱他"",""强他""]","","","","","","","","match","","","","","","","","","","key","j","16.661111111110788","768","428","f","false","nonmatch","img/diamond.png","弱我","强我","prac_ALT2_ability","practice_ability","","","","","","","","",""
"null","<span style='color:red; font-size: 70px;'>错误! </span>","null","html-keyboard-response","67","308359","0.0-8.0-1.0-1.0-0.0-1.28","6","7","7","5","6","5","4","5","5","5","4","1","-1","2","1","0","2","2","1","5","4","5","5","4","5","5","5","4","5","7","8","6","8","6","7","7","7","8","6","6","2","7","6","5","7","2","6","6","1","7","6","6","3","7","5","7","1","3","7","2","5","1","1","1","7","6","5","7","7","7","5","3","2","2","7","7","6","6","5","759010897925771266","李","313","Male","[""好我"",""坏我"",""坏他"",""好他""]","[""强我"",""弱我"",""弱他"",""强他""]","","","","","","","","","","","","","","","","","","","","","","","","","","","","","","feedback_test","","","","","","","","",""
"950","","f","psychophysics","68","310310","0.0-8.0-1.0-1.0-0.0-0.29","6","7","7","5","6","5","4","5","5","5","4","1","-1","2","1","0","2","2","1","5","4","5","5","4","5","5","5","4","5","7","8","6","8","6","7","7","7","8","6","6","2","7","6","5","7","2","6","6","1","7","6","6","3","7","5","7","1","3","7","2","5","1","1","1","7","6","5","7","7","7","5","3","2","2","7","7","6","6","5","759010897925771266","李","313","Male","[""好我"",""坏我"",""坏他"",""好他""]","[""强我"",""弱我"",""弱他"",""强他""]","","","","","","","","nonmatch","","","","","","","","","","key","f","16.662931034482458","768","428","f","true","nonmatch","img/circle.png","弱他","强他","prac_ALT2_ability","practice_ability","","","","","","","","",""
"null","<span style='color:GreenYellow; font-size: 70px;'>正确! </span>","null","html-keyboard-response","69","310812","0.0-8.0-1.0-1.0-0.0-1.29","6","7","7","5","6","5","4","5","5","5","4","1","-1","2","1","0","2","2","1","5","4","5","5","4","5","5","5","4","5","7","8","6","8","6","7","7","7","8","6","6","2","7","6","5","7","2","6","6","1","7","6","6","3","7","5","7","1","3","7","2","5","1","1","1","7","6","5","7","7","7","5","3","2","2","7","7","6","6","5","759010897925771266","李","313","Male","[""好我"",""坏我"",""坏他"",""好他""]","[""强我"",""弱我"",""弱他"",""强他""]","","","","","","","","","","","","","","","","","","","","","","","","","","","","","","feedback_test","","","","","","","","",""
"747","","j","psychophysics","70","312560","0.0-8.0-1.0-1.0-0.0-0.30","6","7","7","5","6","5","4","5","5","5","4","1","-1","2","1","0","2","2","1","5","4","5","5","4","5","5","5","4","5","7","8","6","8","6","7","7","7","8","6","6","2","7","6","5","7","2","6","6","1","7","6","6","3","7","5","7","1","3","7","2","5","1","1","1","7","6","5","7","7","7","5","3","2","2","7","7","6","6","5","759010897925771266","李","313","Male","[""好我"",""坏我"",""坏他"",""好他""]","[""强我"",""弱我"",""弱他"",""强他""]","","","","","","","","match","","","","","","","","","","key","j","16.66153846153835","768","428","f","false","nonmatch","img/hexagon.png","弱他","弱我","prac_ALT2_ability","practice_ability","","","","","","","","",""
"null","<span style='color:red; font-size: 70px;'>错误! </span>","null","html-keyboard-response","71","313061","0.0-8.0-1.0-1.0-0.0-1.30","6","7","7","5","6","5","4","5","5","5","4","1","-1","2","1","0","2","2","1","5","4","5","5","4","5","5","5","4","5","7","8","6","8","6","7","7","7","8","6","6","2","7","6","5","7","2","6","6","1","7","6","6","3","7","5","7","1","3","7","2","5","1","1","1","7","6","5","7","7","7","5","3","2","2","7","7","6","6","5","759010897925771266","李","313","Male","[""好我"",""坏我"",""坏他"",""好他""]","[""强我"",""弱我"",""弱他"",""强他""]","","","","","","","","","","","","","","","","","","","","","","","","","","","","","","feedback_test","","","","","","","","",""
"717","","j","psychophysics","72","314778","0.0-8.0-1.0-1.0-0.0-0.31","6","7","7","5","6","5","4","5","5","5","4","1","-1","2","1","0","2","2","1","5","4","5","5","4","5","5","5","4","5","7","8","6","8","6","7","7","7","8","6","6","2","7","6","5","7","2","6","6","1","7","6","6","3","7","5","7","1","3","7","2","5","1","1","1","7","6","5","7","7","7","5","3","2","2","7","7","6","6","5","759010897925771266","李","313","Male","[""好我"",""坏我"",""坏他"",""好他""]","[""强我"",""弱我"",""弱他"",""强他""]","","","","","","","","match","","","","","","","","","","key","j","16.660784313725717","768","428","f","false","nonmatch","img/diamond.png","强他","强我","prac_ALT2_ability","practice_ability","","","","","","","","",""
"null","<span style='color:red; font-size: 70px;'>错误! </span>","null","html-keyboard-response","73","315279","0.0-8.0-1.0-1.0-0.0-1.31","6","7","7","5","6","5","4","5","5","5","4","1","-1","2","1","0","2","2","1","5","4","5","5","4","5","5","5","4","5","7","8","6","8","6","7","7","7","8","6","6","2","7","6","5","7","2","6","6","1","7","6","6","3","7","5","7","1","3","7","2","5","1","1","1","7","6","5","7","7","7","5","3","2","2","7","7","6","6","5","759010897925771266","李","313","Male","[""好我"",""坏我"",""坏他"",""好他""]","[""强我"",""弱我"",""弱他"",""强他""]","","","","","","","","","","","","","","","","","","","","","","","","","","","","","","feedback_test","","","","","","","","",""
"673","","j","psychophysics","74","316953","0.0-8.0-1.0-1.0-0.0-0.32","6","7","7","5","6","5","4","5","5","5","4","1","-1","2","1","0","2","2","1","5","4","5","5","4","5","5","5","4","5","7","8","6","8","6","7","7","7","8","6","6","2","7","6","5","7","2","6","6","1","7","6","6","3","7","5","7","1","3","7","2","5","1","1","1","7","6","5","7","7","7","5","3","2","2","7","7","6","6","5","759010897925771266","李","313","Male","[""好我"",""坏我"",""坏他"",""好他""]","[""强我"",""弱我"",""弱他"",""强他""]","","","","","","","","match","","","","","","","","","","key","j","16.661999999999534","768","428","j","true","match","img/circle.png","强他","强他","prac_ALT2_ability","practice_ability","","","","","","","","",""
"null","<span style='color:GreenYellow; font-size: 70px;'>正确! </span>","null","html-keyboard-response","75","317454","0.0-8.0-1.0-1.0-0.0-1.32","6","7","7","5","6","5","4","5","5","5","4","1","-1","2","1","0","2","2","1","5","4","5","5","4","5","5","5","4","5","7","8","6","8","6","7","7","7","8","6","6","2","7","6","5","7","2","6","6","1","7","6","6","3","7","5","7","1","3","7","2","5","1","1","1","7","6","5","7","7","7","5","3","2","2","7","7","6","6","5","759010897925771266","李","313","Male","[""好我"",""坏我"",""坏他"",""好他""]","[""强我"",""弱我"",""弱他"",""强他""]","","","","","","","","","","","","","","","","","","","","","","","","","","","","","","feedback_test","","","","","","","","",""
"795","","f","psychophysics","76","319250","0.0-8.0-1.0-1.0-0.0-0.33","6","7","7","5","6","5","4","5","5","5","4","1","-1","2","1","0","2","2","1","5","4","5","5","4","5","5","5","4","5","7","8","6","8","6","7","7","7","8","6","6","2","7","6","5","7","2","6","6","1","7","6","6","3","7","5","7","1","3","7","2","5","1","1","1","7","6","5","7","7","7","5","3","2","2","7","7","6","6","5","759010897925771266","李","313","Male","[""好我"",""坏我"",""坏他"",""好他""]","[""强我"",""弱我"",""弱他"",""强他""]","","","","","","","","nonmatch","","","","","","","","","","key","f","16.662616822430124","768","428","f","true","nonmatch","img/square.png","强我","弱他","prac_ALT2_ability","practice_ability","","","","","","","","",""
"null","<span style='color:GreenYellow; font-size: 70px;'>正确! </span>","null","html-keyboard-response","77","319751","0.0-8.0-1.0-1.0-0.0-1.33","6","7","7","5","6","5","4","5","5","5","4","1","-1","2","1","0","2","2","1","5","4","5","5","4","5","5","5","4","5","7","8","6","8","6","7","7","7","8","6","6","2","7","6","5","7","2","6","6","1","7","6","6","3","7","5","7","1","3","7","2","5","1","1","1","7","6","5","7","7","7","5","3","2","2","7","7","6","6","5","759010897925771266","李","313","Male","[""好我"",""坏我"",""坏他"",""好他""]","[""强我"",""弱我"",""弱他"",""强他""]","","","","","","","","","","","","","","","","","","","","","","","","","","","","","","feedback_test","","","","","","","","",""
"1073","","j","psychophysics","78","321826","0.0-8.0-1.0-1.0-0.0-0.34","6","7","7","5","6","5","4","5","5","5","4","1","-1","2","1","0","2","2","1","5","4","5","5","4","5","5","5","4","5","7","8","6","8","6","7","7","7","8","6","6","2","7","6","5","7","2","6","6","1","7","6","6","3","7","5","7","1","3","7","2","5","1","1","1","7","6","5","7","7","7","5","3","2","2","7","7","6","6","5","759010897925771266","李","313","Male","[""好我"",""坏我"",""坏他"",""好他""]","[""强我"",""弱我"",""弱他"",""强他""]","","","","","","","","match","","","","","","","","","","key","j","16.660162601626112","768","428","f","false","nonmatch","img/circle.png","强我","强他","prac_ALT2_ability","practice_ability","","","","","","","","",""
"null","<span style='color:red; font-size: 70px;'>错误! </span>","null","html-keyboard-response","79","322327","0.0-8.0-1.0-1.0-0.0-1.34","6","7","7","5","6","5","4","5","5","5","4","1","-1","2","1","0","2","2","1","5","4","5","5","4","5","5","5","4","5","7","8","6","8","6","7","7","7","8","6","6","2","7","6","5","7","2","6","6","1","7","6","6","3","7","5","7","1","3","7","2","5","1","1","1","7","6","5","7","7","7","5","3","2","2","7","7","6","6","5","759010897925771266","李","313","Male","[""好我"",""坏我"",""坏他"",""好他""]","[""强我"",""弱我"",""弱他"",""强他""]","","","","","","","","","","","","","","","","","","","","","","","","","","","","","","feedback_test","","","","","","","","",""
"750","","j","psychophysics","80","324077","0.0-8.0-1.0-1.0-0.0-0.35","6","7","7","5","6","5","4","5","5","5","4","1","-1","2","1","0","2","2","1","5","4","5","5","4","5","5","5","4","5","7","8","6","8","6","7","7","7","8","6","6","2","7","6","5","7","2","6","6","1","7","6","6","3","7","5","7","1","3","7","2","5","1","1","1","7","6","5","7","7","7","5","3","2","2","7","7","6","6","5","759010897925771266","李","313","Male","[""好我"",""坏我"",""坏他"",""好他""]","[""强我"",""弱我"",""弱他"",""强他""]","","","","","","","","match","","","","","","","","","","key","j","16.65961538461516","768","428","j","true","match","img/hexagon.png","弱我","弱我","prac_ALT2_ability","practice_ability","","","","","","","","",""
"null","<span style='color:GreenYellow; font-size: 70px;'>正确! </span>","null","html-keyboard-response","81","324579","0.0-8.0-1.0-1.0-0.0-1.35","6","7","7","5","6","5","4","5","5","5","4","1","-1","2","1","0","2","2","1","5","4","5","5","4","5","5","5","4","5","7","8","6","8","6","7","7","7","8","6","6","2","7","6","5","7","2","6","6","1","7","6","6","3","7","5","7","1","3","7","2","5","1","1","1","7","6","5","7","7","7","5","3","2","2","7","7","6","6","5","759010897925771266","李","313","Male","[""好我"",""坏我"",""坏他"",""好他""]","[""强我"",""弱我"",""弱他"",""强他""]","","","","","","","","","","","","","","","","","","","","","","","","","","","","","","feedback_test","","","","","","","","",""
"716","","j","psychophysics","82","326295","0.0-8.0-1.0-1.0-0.0-0.36","6","7","7","5","6","5","4","5","5","5","4","1","-1","2","1","0","2","2","1","5","4","5","5","4","5","5","5","4","5","7","8","6","8","6","7","7","7","8","6","6","2","7","6","5","7","2","6","6","1","7","6","6","3","7","5","7","1","3","7","2","5","1","1","1","7","6","5","7","7","7","5","3","2","2","7","7","6","6","5","759010897925771266","李","313","Male","[""好我"",""坏我"",""坏他"",""好他""]","[""强我"",""弱我"",""弱他"",""强他""]","","","","","","","","match","","","","","","","","","","key","j","16.66176470588235","768","428","j","true","match","img/circle.png","强他","强他","prac_ALT2_ability","practice_ability","","","","","","","","",""
"null","<span style='color:GreenYellow; font-size: 70px;'>正确! </span>","null","html-keyboard-response","83","326797","0.0-8.0-1.0-1.0-0.0-1.36","6","7","7","5","6","5","4","5","5","5","4","1","-1","2","1","0","2","2","1","5","4","5","5","4","5","5","5","4","5","7","8","6","8","6","7","7","7","8","6","6","2","7","6","5","7","2","6","6","1","7","6","6","3","7","5","7","1","3","7","2","5","1","1","1","7","6","5","7","7","7","5","3","2","2","7","7","6","6","5","759010897925771266","李","313","Male","[""好我"",""坏我"",""坏他"",""好他""]","[""强我"",""弱我"",""弱他"",""强他""]","","","","","","","","","","","","","","","","","","","","","","","","","","","","","","feedback_test","","","","","","","","",""
"818","","j","psychophysics","84","328617","0.0-8.0-1.0-1.0-0.0-0.37","6","7","7","5","6","5","4","5","5","5","4","1","-1","2","1","0","2","2","1","5","4","5","5","4","5","5","5","4","5","7","8","6","8","6","7","7","7","8","6","6","2","7","6","5","7","2","6","6","1","7","6","6","3","7","5","7","1","3","7","2","5","1","1","1","7","6","5","7","7","7","5","3","2","2","7","7","6","6","5","759010897925771266","李","313","Male","[""好我"",""坏我"",""坏他"",""好他""]","[""强我"",""弱我"",""弱他"",""强他""]","","","","","","","","match","","","","","","","","","","key","j","16.661111111111328","768","428","j","true","match","img/circle.png","强他","强他","prac_ALT2_ability","practice_ability","","","","","","","","",""
"null","<span style='color:GreenYellow; font-size: 70px;'>正确! </span>","null","html-keyboard-response","85","329118","0.0-8.0-1.0-1.0-0.0-1.37","6","7","7","5","6","5","4","5","5","5","4","1","-1","2","1","0","2","2","1","5","4","5","5","4","5","5","5","4","5","7","8","6","8","6","7","7","7","8","6","6","2","7","6","5","7","2","6","6","1","7","6","6","3","7","5","7","1","3","7","2","5","1","1","1","7","6","5","7","7","7","5","3","2","2","7","7","6","6","5","759010897925771266","李","313","Male","[""好我"",""坏我"",""坏他"",""好他""]","[""强我"",""弱我"",""弱他"",""强他""]","","","","","","","","","","","","","","","","","","","","","","","","","","","","","","feedback_test","","","","","","","","",""
"1140","","j","psychophysics","86","331258","0.0-8.0-1.0-1.0-0.0-0.38","6","7","7","5","6","5","4","5","5","5","4","1","-1","2","1","0","2","2","1","5","4","5","5","4","5","5","5","4","5","7","8","6","8","6","7","7","7","8","6","6","2","7","6","5","7","2","6","6","1","7","6","6","3","7","5","7","1","3","7","2","5","1","1","1","7","6","5","7","7","7","5","3","2","2","7","7","6","6","5","759010897925771266","李","313","Male","[""好我"",""坏我"",""坏他"",""好他""]","[""强我"",""弱我"",""弱他"",""强他""]","","","","","","","","match","","","","","","","","","","key","j","16.662204724409264","768","428","j","true","match","img/diamond.png","强我","强我","prac_ALT2_ability","practice_ability","","","","","","","","",""
"null","<span style='color:GreenYellow; font-size: 70px;'>正确! </span>","null","html-keyboard-response","87","331760","0.0-8.0-1.0-1.0-0.0-1.38","6","7","7","5","6","5","4","5","5","5","4","1","-1","2","1","0","2","2","1","5","4","5","5","4","5","5","5","4","5","7","8","6","8","6","7","7","7","8","6","6","2","7","6","5","7","2","6","6","1","7","6","6","3","7","5","7","1","3","7","2","5","1","1","1","7","6","5","7","7","7","5","3","2","2","7","7","6","6","5","759010897925771266","李","313","Male","[""好我"",""坏我"",""坏他"",""好他""]","[""强我"",""弱我"",""弱他"",""强他""]","","","","","","","","","","","","","","","","","","","","","","","","","","","","","","feedback_test","","","","","","","","",""
"956","","j","psychophysics","88","333716","0.0-8.0-1.0-1.0-0.0-0.39","6","7","7","5","6","5","4","5","5","5","4","1","-1","2","1","0","2","2","1","5","4","5","5","4","5","5","5","4","5","7","8","6","8","6","7","7","7","8","6","6","2","7","6","5","7","2","6","6","1","7","6","6","3","7","5","7","1","3","7","2","5","1","1","1","7","6","5","7","7","7","5","3","2","2","7","7","6","6","5","759010897925771266","李","313","Male","[""好我"",""坏我"",""坏他"",""好他""]","[""强我"",""弱我"",""弱他"",""强他""]","","","","","","","","match","","","","","","","","","","key","j","16.661206896551825","768","428","j","true","match","img/hexagon.png","弱我","弱我","prac_ALT2_ability","practice_ability","","","","","","","","",""
"null","<span style='color:GreenYellow; font-size: 70px;'>正确! </span>","null","html-keyboard-response","89","334217","0.0-8.0-1.0-1.0-0.0-1.39","6","7","7","5","6","5","4","5","5","5","4","1","-1","2","1","0","2","2","1","5","4","5","5","4","5","5","5","4","5","7","8","6","8","6","7","7","7","8","6","6","2","7","6","5","7","2","6","6","1","7","6","6","3","7","5","7","1","3","7","2","5","1","1","1","7","6","5","7","7","7","5","3","2","2","7","7","6","6","5","759010897925771266","李","313","Male","[""好我"",""坏我"",""坏他"",""好他""]","[""强我"",""弱我"",""弱他"",""强他""]","","","","","","","","","","","","","","","","","","","","","","","","","","","","","","feedback_test","","","","","","","","",""
"1048","","f","psychophysics","90","336266","0.0-8.0-1.0-1.0-0.0-0.40","6","7","7","5","6","5","4","5","5","5","4","1","-1","2","1","0","2","2","1","5","4","5","5","4","5","5","5","4","5","7","8","6","8","6","7","7","7","8","6","6","2","7","6","5","7","2","6","6","1","7","6","6","3","7","5","7","1","3","7","2","5","1","1","1","7","6","5","7","7","7","5","3","2","2","7","7","6","6","5","759010897925771266","李","313","Male","[""好我"",""坏我"",""坏他"",""好他""]","[""强我"",""弱我"",""弱他"",""强他""]","","","","","","","","nonmatch","","","","","","","","","","key","f","16.660655737704726","768","428","f","true","nonmatch","img/square.png","强他","弱他","prac_ALT2_ability","practice_ability","","","","","","","","",""
"null","<span style='color:GreenYellow; font-size: 70px;'>正确! </span>","null","html-keyboard-response","91","336767","0.0-8.0-1.0-1.0-0.0-1.40","6","7","7","5","6","5","4","5","5","5","4","1","-1","2","1","0","2","2","1","5","4","5","5","4","5","5","5","4","5","7","8","6","8","6","7","7","7","8","6","6","2","7","6","5","7","2","6","6","1","7","6","6","3","7","5","7","1","3","7","2","5","1","1","1","7","6","5","7","7","7","5","3","2","2","7","7","6","6","5","759010897925771266","李","313","Male","[""好我"",""坏我"",""坏他"",""好他""]","[""强我"",""弱我"",""弱他"",""强他""]","","","","","","","","","","","","","","","","","","","","","","","","","","","","","","feedback_test","","","","","","","","",""
"923","","f","psychophysics","92","338691","0.0-8.0-1.0-1.0-0.0-0.41","6","7","7","5","6","5","4","5","5","5","4","1","-1","2","1","0","2","2","1","5","4","5","5","4","5","5","5","4","5","7","8","6","8","6","7","7","7","8","6","6","2","7","6","5","7","2","6","6","1","7","6","6","3","7","5","7","1","3","7","2","5","1","1","1","7","6","5","7","7","7","5","3","2","2","7","7","6","6","5","759010897925771266","李","313","Male","[""好我"",""坏我"",""坏他"",""好他""]","[""强我"",""弱我"",""弱他"",""强他""]","","","","","","","","nonmatch","","","","","","","","","","key","f","16.661403508771624","768","428","f","true","nonmatch","img/square.png","弱我","弱他","prac_ALT2_ability","practice_ability","","","","","","","","",""
"null","<span style='color:GreenYellow; font-size: 70px;'>正确! </span>","null","html-keyboard-response","93","339192","0.0-8.0-1.0-1.0-0.0-1.41","6","7","7","5","6","5","4","5","5","5","4","1","-1","2","1","0","2","2","1","5","4","5","5","4","5","5","5","4","5","7","8","6","8","6","7","7","7","8","6","6","2","7","6","5","7","2","6","6","1","7","6","6","3","7","5","7","1","3","7","2","5","1","1","1","7","6","5","7","7","7","5","3","2","2","7","7","6","6","5","759010897925771266","李","313","Male","[""好我"",""坏我"",""坏他"",""好他""]","[""强我"",""弱我"",""弱他"",""强他""]","","","","","","","","","","","","","","","","","","","","","","","","","","","","","","feedback_test","","","","","","","","",""
"913","","j","psychophysics","94","341105","0.0-8.0-1.0-1.0-0.0-0.42","6","7","7","5","6","5","4","5","5","5","4","1","-1","2","1","0","2","2","1","5","4","5","5","4","5","5","5","4","5","7","8","6","8","6","7","7","7","8","6","6","2","7","6","5","7","2","6","6","1","7","6","6","3","7","5","7","1","3","7","2","5","1","1","1","7","6","5","7","7","7","5","3","2","2","7","7","6","6","5","759010897925771266","李","313","Male","[""好我"",""坏我"",""坏他"",""好他""]","[""强我"",""弱我"",""弱他"",""强他""]","","","","","","","","match","","","","","","","","","","key","j","16.662831858407287","768","428","f","false","nonmatch","img/circle.png","弱我","强他","prac_ALT2_ability","practice_ability","","","","","","","","",""
"null","<span style='color:red; font-size: 70px;'>错误! </span>","null","html-keyboard-response","95","341606","0.0-8.0-1.0-1.0-0.0-1.42","6","7","7","5","6","5","4","5","5","5","4","1","-1","2","1","0","2","2","1","5","4","5","5","4","5","5","5","4","5","7","8","6","8","6","7","7","7","8","6","6","2","7","6","5","7","2","6","6","1","7","6","6","3","7","5","7","1","3","7","2","5","1","1","1","7","6","5","7","7","7","5","3","2","2","7","7","6","6","5","759010897925771266","李","313","Male","[""好我"",""坏我"",""坏他"",""好他""]","[""强我"",""弱我"",""弱他"",""强他""]","","","","","","","","","","","","","","","","","","","","","","","","","","","","","","feedback_test","","","","","","","","",""
"921","","j","psychophysics","96","343528","0.0-8.0-1.0-1.0-0.0-0.43","6","7","7","5","6","5","4","5","5","5","4","1","-1","2","1","0","2","2","1","5","4","5","5","4","5","5","5","4","5","7","8","6","8","6","7","7","7","8","6","6","2","7","6","5","7","2","6","6","1","7","6","6","3","7","5","7","1","3","7","2","5","1","1","1","7","6","5","7","7","7","5","3","2","2","7","7","6","6","5","759010897925771266","李","313","Male","[""好我"",""坏我"",""坏他"",""好他""]","[""强我"",""弱我"",""弱他"",""强他""]","","","","","","","","match","","","","","","","","","","key","j","16.661403508772135","768","428","j","true","match","img/diamond.png","强我","强我","prac_ALT2_ability","practice_ability","","","","","","","","",""
"null","<span style='color:GreenYellow; font-size: 70px;'>正确! </span>","null","html-keyboard-response","97","344029","0.0-8.0-1.0-1.0-0.0-1.43","6","7","7","5","6","5","4","5","5","5","4","1","-1","2","1","0","2","2","1","5","4","5","5","4","5","5","5","4","5","7","8","6","8","6","7","7","7","8","6","6","2","7","6","5","7","2","6","6","1","7","6","6","3","7","5","7","1","3","7","2","5","1","1","1","7","6","5","7","7","7","5","3","2","2","7","7","6","6","5","759010897925771266","李","313","Male","[""好我"",""坏我"",""坏他"",""好他""]","[""强我"",""弱我"",""弱他"",""强他""]","","","","","","","","","","","","","","","","","","","","","","","","","","","","","","feedback_test","","","","","","","","",""
"933","","f","psychophysics","98","345963","0.0-8.0-1.0-1.0-0.0-0.44","6","7","7","5","6","5","4","5","5","5","4","1","-1","2","1","0","2","2","1","5","4","5","5","4","5","5","5","4","5","7","8","6","8","6","7","7","7","8","6","6","2","7","6","5","7","2","6","6","1","7","6","6","3","7","5","7","1","3","7","2","5","1","1","1","7","6","5","7","7","7","5","3","2","2","7","7","6","6","5","759010897925771266","李","313","Male","[""好我"",""坏我"",""坏他"",""好他""]","[""强我"",""弱我"",""弱他"",""强他""]","","","","","","","","nonmatch","","","","","","","","","","key","f","16.660000000000203","768","428","j","false","match","img/square.png","弱他","弱他","prac_ALT2_ability","practice_ability","","","","","","","","",""
"null","<span style='color:red; font-size: 70px;'>错误! </span>","null","html-keyboard-response","99","346464","0.0-8.0-1.0-1.0-0.0-1.44","6","7","7","5","6","5","4","5","5","5","4","1","-1","2","1","0","2","2","1","5","4","5","5","4","5","5","5","4","5","7","8","6","8","6","7","7","7","8","6","6","2","7","6","5","7","2","6","6","1","7","6","6","3","7","5","7","1","3","7","2","5","1","1","1","7","6","5","7","7","7","5","3","2","2","7","7","6","6","5","759010897925771266","李","313","Male","[""好我"",""坏我"",""坏他"",""好他""]","[""强我"",""弱我"",""弱他"",""强他""]","","","","","","","","","","","","","","","","","","","","","","","","","","","","","","feedback_test","","","","","","","","",""
"949","","f","psychophysics","100","348416","0.0-8.0-1.0-1.0-0.0-0.45","6","7","7","5","6","5","4","5","5","5","4","1","-1","2","1","0","2","2","1","5","4","5","5","4","5","5","5","4","5","7","8","6","8","6","7","7","7","8","6","6","2","7","6","5","7","2","6","6","1","7","6","6","3","7","5","7","1","3","7","2","5","1","1","1","7","6","5","7","7","7","5","3","2","2","7","7","6","6","5","759010897925771266","李","313","Male","[""好我"",""坏我"",""坏他"",""好他""]","[""强我"",""弱我"",""弱他"",""强他""]","","","","","","","","nonmatch","","","","","","","","","","key","f","16.661206896551825","768","428","f","true","nonmatch","img/diamond.png","弱他","强我","prac_ALT2_ability","practice_ability","","","","","","","","",""
"null","<span style='color:GreenYellow; font-size: 70px;'>正确! </span>","null","html-keyboard-response","101","348917","0.0-8.0-1.0-1.0-0.0-1.45","6","7","7","5","6","5","4","5","5","5","4","1","-1","2","1","0","2","2","1","5","4","5","5","4","5","5","5","4","5","7","8","6","8","6","7","7","7","8","6","6","2","7","6","5","7","2","6","6","1","7","6","6","3","7","5","7","1","3","7","2","5","1","1","1","7","6","5","7","7","7","5","3","2","2","7","7","6","6","5","759010897925771266","李","313","Male","[""好我"",""坏我"",""坏他"",""好他""]","[""强我"",""弱我"",""弱他"",""强他""]","","","","","","","","","","","","","","","","","","","","","","","","","","","","","","feedback_test","","","","","","","","",""
"873","","j","psychophysics","102","350791","0.0-8.0-1.0-1.0-0.0-0.46","6","7","7","5","6","5","4","5","5","5","4","1","-1","2","1","0","2","2","1","5","4","5","5","4","5","5","5","4","5","7","8","6","8","6","7","7","7","8","6","6","2","7","6","5","7","2","6","6","1","7","6","6","3","7","5","7","1","3","7","2","5","1","1","1","7","6","5","7","7","7","5","3","2","2","7","7","6","6","5","759010897925771266","李","313","Male","[""好我"",""坏我"",""坏他"",""好他""]","[""强我"",""弱我"",""弱他"",""强他""]","","","","","","","","match","","","","","","","","","","key","j","16.662499999999586","768","428","j","true","match","img/square.png","弱他","弱他","prac_ALT2_ability","practice_ability","","","","","","","","",""
"null","<span style='color:GreenYellow; font-size: 70px;'>正确! </span>","null","html-keyboard-response","103","351293","0.0-8.0-1.0-1.0-0.0-1.46","6","7","7","5","6","5","4","5","5","5","4","1","-1","2","1","0","2","2","1","5","4","5","5","4","5","5","5","4","5","7","8","6","8","6","7","7","7","8","6","6","2","7","6","5","7","2","6","6","1","7","6","6","3","7","5","7","1","3","7","2","5","1","1","1","7","6","5","7","7","7","5","3","2","2","7","7","6","6","5","759010897925771266","李","313","Male","[""好我"",""坏我"",""坏他"",""好他""]","[""强我"",""弱我"",""弱他"",""强他""]","","","","","","","","","","","","","","","","","","","","","","","","","","","","","","feedback_test","","","","","","","","",""
"910","","j","psychophysics","104","353205","0.0-8.0-1.0-1.0-0.0-0.47","6","7","7","5","6","5","4","5","5","5","4","1","-1","2","1","0","2","2","1","5","4","5","5","4","5","5","5","4","5","7","8","6","8","6","7","7","7","8","6","6","2","7","6","5","7","2","6","6","1","7","6","6","3","7","5","7","1","3","7","2","5","1","1","1","7","6","5","7","7","7","5","3","2","2","7","7","6","6","5","759010897925771266","李","313","Male","[""好我"",""坏我"",""坏他"",""好他""]","[""强我"",""弱我"",""弱他"",""强他""]","","","","","","","","match","","","","","","","","","","key","j","16.661403508771624","768","428","j","true","match","img/diamond.png","强我","强我","prac_ALT2_ability","practice_ability","","","","","","","","",""
"null","<span style='color:GreenYellow; font-size: 70px;'>正确! </span>","null","html-keyboard-response","105","353706","0.0-8.0-1.0-1.0-0.0-1.47","6","7","7","5","6","5","4","5","5","5","4","1","-1","2","1","0","2","2","1","5","4","5","5","4","5","5","5","4","5","7","8","6","8","6","7","7","7","8","6","6","2","7","6","5","7","2","6","6","1","7","6","6","3","7","5","7","1","3","7","2","5","1","1","1","7","6","5","7","7","7","5","3","2","2","7","7","6","6","5","759010897925771266","李","313","Male","[""好我"",""坏我"",""坏他"",""好他""]","[""强我"",""弱我"",""弱他"",""强他""]","","","","","","","","","","","","","","","","","","","","","","","","","","","","","","feedback_test","","","","","","","","",""
"11723","<style>.context{color:white; font-size: 35px; line-height:40px}</style>                          <div><p class='context'>您正确回答了77% 的试次。</p><p class='context'>您的平均反应时为867毫秒。</p><p class='context'>恭喜您完成练习。按空格键进入正式实验。</p><p class='footer' style='color:white;font-size: 35px; line-height:40px;'>请在进入正式实验实验之前将您的<span style='color: lightgreen;'>食指</span>放在电脑键盘的相应键位上进行按键。</p>"," ","html-keyboard-response","106","365430","0.0-8.0-1.0-2.0","6","7","7","5","6","5","4","5","5","5","4","1","-1","2","1","0","2","2","1","5","4","5","5","4","5","5","5","4","5","7","8","6","8","6","7","7","7","8","6","6","2","7","6","5","7","2","6","6","1","7","6","6","3","7","5","7","1","3","7","2","5","1","1","1","7","6","5","7","7","7","5","3","2","2","7","7","6","6","5","759010897925771266","李","313","Male","[""好我"",""坏我"",""坏他"",""好他""]","[""强我"",""弱我"",""弱他"",""强他""]","","","","","","","","","","","","","","","","","","","","","","","","","","","","","","","","","","","","","","",""
"690","
  <p style='color: white; font-size: 22px'>请您将手指放在按键上，准备进入正式的匹配任务。</p>
  <p> <div style = ""color: green""><按空格键进入下一阶段的匹配任务></div></p>
  "," ","html-keyboard-response","107","366123","0.0-8.0-1.0-3.0","6","7","7","5","6","5","4","5","5","5","4","1","-1","2","1","0","2","2","1","5","4","5","5","4","5","5","5","4","5","7","8","6","8","6","7","7","7","8","6","6","2","7","6","5","7","2","6","6","1","7","6","6","3","7","5","7","1","3","7","2","5","1","1","1","7","6","5","7","7","7","5","3","2","2","7","7","6","6","5","759010897925771266","李","313","Male","[""好我"",""坏我"",""坏他"",""好他""]","[""强我"",""弱我"",""弱他"",""强他""]","","","","","","","","","","","","","","","","","","","","","","","","","","","","","","","","","","","","","","",""
"771","","f","psychophysics","108","367896","0.0-8.0-1.0-4.0-0.0-0.0","6","7","7","5","6","5","4","5","5","5","4","1","-1","2","1","0","2","2","1","5","4","5","5","4","5","5","5","4","5","7","8","6","8","6","7","7","7","8","6","6","2","7","6","5","7","2","6","6","1","7","6","6","3","7","5","7","1","3","7","2","5","1","1","1","7","6","5","7","7","7","5","3","2","2","7","7","6","6","5","759010897925771266","李","313","Male","[""好我"",""坏我"",""坏他"",""好他""]","[""强我"",""弱我"",""弱他"",""强他""]","","","","","","","","nonmatch","","","","","","","","","","key","f","16.66190476190476","768","428","j","false","match","img/diamond.png","强我","强我","ALT2","ability","","","","","","","","",""
"null","<span style='color:red; font-size: 70px;'>错误! </span>","null","html-keyboard-response","109","368397","0.0-8.0-1.0-4.0-0.0-1.0","6","7","7","5","6","5","4","5","5","5","4","1","-1","2","1","0","2","2","1","5","4","5","5","4","5","5","5","4","5","7","8","6","8","6","7","7","7","8","6","6","2","7","6","5","7","2","6","6","1","7","6","6","3","7","5","7","1","3","7","2","5","1","1","1","7","6","5","7","7","7","5","3","2","2","7","7","6","6","5","759010897925771266","李","313","Male","[""好我"",""坏我"",""坏他"",""好他""]","[""强我"",""弱我"",""弱他"",""强他""]","","","","","","","","","","","","","","","","","","","","","","","","","","","","","","feedback_test","","","","","","","","",""
"947","","f","psychophysics","110","370345","0.0-8.0-1.0-4.0-0.0-0.1","6","7","7","5","6","5","4","5","5","5","4","1","-1","2","1","0","2","2","1","5","4","5","5","4","5","5","5","4","5","7","8","6","8","6","7","7","7","8","6","6","2","7","6","5","7","2","6","6","1","7","6","6","3","7","5","7","1","3","7","2","5","1","1","1","7","6","5","7","7","7","5","3","2","2","7","7","6","6","5","759010897925771266","李","313","Male","[""好我"",""坏我"",""坏他"",""好他""]","[""强我"",""弱我"",""弱他"",""强他""]","","","","","","","","nonmatch","","","","","","","","","","key","f","16.66173913043458","768","428","f","true","nonmatch","img/circle.png","弱我","强他","ALT2","ability","","","","","","","","",""
"null","<span style='color:GreenYellow; font-size: 70px;'>正确! </span>","null","html-keyboard-response","111","370846","0.0-8.0-1.0-4.0-0.0-1.1","6","7","7","5","6","5","4","5","5","5","4","1","-1","2","1","0","2","2","1","5","4","5","5","4","5","5","5","4","5","7","8","6","8","6","7","7","7","8","6","6","2","7","6","5","7","2","6","6","1","7","6","6","3","7","5","7","1","3","7","2","5","1","1","1","7","6","5","7","7","7","5","3","2","2","7","7","6","6","5","759010897925771266","李","313","Male","[""好我"",""坏我"",""坏他"",""好他""]","[""强我"",""弱我"",""弱他"",""强他""]","","","","","","","","","","","","","","","","","","","","","","","","","","","","","","feedback_test","","","","","","","","",""
"983","","j","psychophysics","112","372830","0.0-8.0-1.0-4.0-0.0-0.2","6","7","7","5","6","5","4","5","5","5","4","1","-1","2","1","0","2","2","1","5","4","5","5","4","5","5","5","4","5","7","8","6","8","6","7","7","7","8","6","6","2","7","6","5","7","2","6","6","1","7","6","6","3","7","5","7","1","3","7","2","5","1","1","1","7","6","5","7","7","7","5","3","2","2","7","7","6","6","5","759010897925771266","李","313","Male","[""好我"",""坏我"",""坏他"",""好他""]","[""强我"",""弱我"",""弱他"",""强他""]","","","","","","","","match","","","","","","","","","","key","j","16.661016949152543","768","428","j","true","match","img/hexagon.png","弱我","弱我","ALT2","ability","","","","","","","","",""
"null","<span style='color:GreenYellow; font-size: 70px;'>正确! </span>","null","html-keyboard-response","113","373331","0.0-8.0-1.0-4.0-0.0-1.2","6","7","7","5","6","5","4","5","5","5","4","1","-1","2","1","0","2","2","1","5","4","5","5","4","5","5","5","4","5","7","8","6","8","6","7","7","7","8","6","6","2","7","6","5","7","2","6","6","1","7","6","6","3","7","5","7","1","3","7","2","5","1","1","1","7","6","5","7","7","7","5","3","2","2","7","7","6","6","5","759010897925771266","李","313","Male","[""好我"",""坏我"",""坏他"",""好他""]","[""强我"",""弱我"",""弱他"",""强他""]","","","","","","","","","","","","","","","","","","","","","","","","","","","","","","feedback_test","","","","","","","","",""
"767","","j","psychophysics","114","375099","0.0-8.0-1.0-4.0-0.0-0.3","6","7","7","5","6","5","4","5","5","5","4","1","-1","2","1","0","2","2","1","5","4","5","5","4","5","5","5","4","5","7","8","6","8","6","7","7","7","8","6","6","2","7","6","5","7","2","6","6","1","7","6","6","3","7","5","7","1","3","7","2","5","1","1","1","7","6","5","7","7","7","5","3","2","2","7","7","6","6","5","759010897925771266","李","313","Male","[""好我"",""坏我"",""坏他"",""好他""]","[""强我"",""弱我"",""弱他"",""强他""]","","","","","","","","match","","","","","","","","","","key","j","16.66285714285692","768","428","j","true","match","img/hexagon.png","弱我","弱我","ALT2","ability","","","","","","","","",""
"null","<span style='color:GreenYellow; font-size: 70px;'>正确! </span>","null","html-keyboard-response","115","375601","0.0-8.0-1.0-4.0-0.0-1.3","6","7","7","5","6","5","4","5","5","5","4","1","-1","2","1","0","2","2","1","5","4","5","5","4","5","5","5","4","5","7","8","6","8","6","7","7","7","8","6","6","2","7","6","5","7","2","6","6","1","7","6","6","3","7","5","7","1","3","7","2","5","1","1","1","7","6","5","7","7","7","5","3","2","2","7","7","6","6","5","759010897925771266","李","313","Male","[""好我"",""坏我"",""坏他"",""好他""]","[""强我"",""弱我"",""弱他"",""强他""]","","","","","","","","","","","","","","","","","","","","","","","","","","","","","","feedback_test","","","","","","","","",""
"881","","f","psychophysics","116","377482","0.0-8.0-1.0-4.0-0.0-0.4","6","7","7","5","6","5","4","5","5","5","4","1","-1","2","1","0","2","2","1","5","4","5","5","4","5","5","5","4","5","7","8","6","8","6","7","7","7","8","6","6","2","7","6","5","7","2","6","6","1","7","6","6","3","7","5","7","1","3","7","2","5","1","1","1","7","6","5","7","7","7","5","3","2","2","7","7","6","6","5","759010897925771266","李","313","Male","[""好我"",""坏我"",""坏他"",""好他""]","[""强我"",""弱我"",""弱他"",""强他""]","","","","","","","","nonmatch","","","","","","","","","","key","f","16.661607142856933","768","428","f","true","nonmatch","img/hexagon.png","弱他","弱我","ALT2","ability","","","","","","","","",""
"null","<span style='color:GreenYellow; font-size: 70px;'>正确! </span>","null","html-keyboard-response","117","377984","0.0-8.0-1.0-4.0-0.0-1.4","6","7","7","5","6","5","4","5","5","5","4","1","-1","2","1","0","2","2","1","5","4","5","5","4","5","5","5","4","5","7","8","6","8","6","7","7","7","8","6","6","2","7","6","5","7","2","6","6","1","7","6","6","3","7","5","7","1","3","7","2","5","1","1","1","7","6","5","7","7","7","5","3","2","2","7","7","6","6","5","759010897925771266","李","313","Male","[""好我"",""坏我"",""坏他"",""好他""]","[""强我"",""弱我"",""弱他"",""强他""]","","","","","","","","","","","","","","","","","","","","","","","","","","","","","","feedback_test","","","","","","","","",""
"1001","","f","psychophysics","118","379986","0.0-8.0-1.0-4.0-0.0-0.5","6","7","7","5","6","5","4","5","5","5","4","1","-1","2","1","0","2","2","1","5","4","5","5","4","5","5","5","4","5","7","8","6","8","6","7","7","7","8","6","6","2","7","6","5","7","2","6","6","1","7","6","6","3","7","5","7","1","3","7","2","5","1","1","1","7","6","5","7","7","7","5","3","2","2","7","7","6","6","5","759010897925771266","李","313","Male","[""好我"",""坏我"",""坏他"",""好他""]","[""强我"",""弱我"",""弱他"",""强他""]","","","","","","","","nonmatch","","","","","","","","","","key","f","16.659663865546218","768","428","f","true","nonmatch","img/diamond.png","弱他","强我","ALT2","ability","","","","","","","","",""
"null","<span style='color:GreenYellow; font-size: 70px;'>正确! </span>","null","html-keyboard-response","119","380486","0.0-8.0-1.0-4.0-0.0-1.5","6","7","7","5","6","5","4","5","5","5","4","1","-1","2","1","0","2","2","1","5","4","5","5","4","5","5","5","4","5","7","8","6","8","6","7","7","7","8","6","6","2","7","6","5","7","2","6","6","1","7","6","6","3","7","5","7","1","3","7","2","5","1","1","1","7","6","5","7","7","7","5","3","2","2","7","7","6","6","5","759010897925771266","李","313","Male","[""好我"",""坏我"",""坏他"",""好他""]","[""强我"",""弱我"",""弱他"",""强他""]","","","","","","","","","","","","","","","","","","","","","","","","","","","","","","feedback_test","","","","","","","","",""
"903","","f","psychophysics","120","382390","0.0-8.0-1.0-4.0-0.0-0.6","6","7","7","5","6","5","4","5","5","5","4","1","-1","2","1","0","2","2","1","5","4","5","5","4","5","5","5","4","5","7","8","6","8","6","7","7","7","8","6","6","2","7","6","5","7","2","6","6","1","7","6","6","3","7","5","7","1","3","7","2","5","1","1","1","7","6","5","7","7","7","5","3","2","2","7","7","6","6","5","759010897925771266","李","313","Male","[""好我"",""坏我"",""坏他"",""好他""]","[""强我"",""弱我"",""弱他"",""强他""]","","","","","","","","nonmatch","","","","","","","","","","key","f","16.661946902654766","768","428","f","true","nonmatch","img/diamond.png","弱我","强我","ALT2","ability","","","","","","","","",""
"null","<span style='color:GreenYellow; font-size: 70px;'>正确! </span>","null","html-keyboard-response","121","382891","0.0-8.0-1.0-4.0-0.0-1.6","6","7","7","5","6","5","4","5","5","5","4","1","-1","2","1","0","2","2","1","5","4","5","5","4","5","5","5","4","5","7","8","6","8","6","7","7","7","8","6","6","2","7","6","5","7","2","6","6","1","7","6","6","3","7","5","7","1","3","7","2","5","1","1","1","7","6","5","7","7","7","5","3","2","2","7","7","6","6","5","759010897925771266","李","313","Male","[""好我"",""坏我"",""坏他"",""好他""]","[""强我"",""弱我"",""弱他"",""强他""]","","","","","","","","","","","","","","","","","","","","","","","","","","","","","","feedback_test","","","","","","","","",""
"752","","j","psychophysics","122","384644","0.0-8.0-1.0-4.0-0.0-0.7","6","7","7","5","6","5","4","5","5","5","4","1","-1","2","1","0","2","2","1","5","4","5","5","4","5","5","5","4","5","7","8","6","8","6","7","7","7","8","6","6","2","7","6","5","7","2","6","6","1","7","6","6","3","7","5","7","1","3","7","2","5","1","1","1","7","6","5","7","7","7","5","3","2","2","7","7","6","6","5","759010897925771266","李","313","Male","[""好我"",""坏我"",""坏他"",""好他""]","[""强我"",""弱我"",""弱他"",""强他""]","","","","","","","","match","","","","","","","","","","key","j","16.662500000000225","768","428","j","true","match","img/hexagon.png","弱我","弱我","ALT2","ability","","","","","","","","",""
"null","<span style='color:GreenYellow; font-size: 70px;'>正确! </span>","null","html-keyboard-response","123","385145","0.0-8.0-1.0-4.0-0.0-1.7","6","7","7","5","6","5","4","5","5","5","4","1","-1","2","1","0","2","2","1","5","4","5","5","4","5","5","5","4","5","7","8","6","8","6","7","7","7","8","6","6","2","7","6","5","7","2","6","6","1","7","6","6","3","7","5","7","1","3","7","2","5","1","1","1","7","6","5","7","7","7","5","3","2","2","7","7","6","6","5","759010897925771266","李","313","Male","[""好我"",""坏我"",""坏他"",""好他""]","[""强我"",""弱我"",""弱他"",""强他""]","","","","","","","","","","","","","","","","","","","","","","","","","","","","","","feedback_test","","","","","","","","",""
"821","","f","psychophysics","124","386968","0.0-8.0-1.0-4.0-0.0-0.8","6","7","7","5","6","5","4","5","5","5","4","1","-1","2","1","0","2","2","1","5","4","5","5","4","5","5","5","4","5","7","8","6","8","6","7","7","7","8","6","6","2","7","6","5","7","2","6","6","1","7","6","6","3","7","5","7","1","3","7","2","5","1","1","1","7","6","5","7","7","7","5","3","2","2","7","7","6","6","5","759010897925771266","李","313","Male","[""好我"",""坏我"",""坏他"",""好他""]","[""强我"",""弱我"",""弱他"",""强他""]","","","","","","","","nonmatch","","","","","","","","","","key","f","16.662037037037038","768","428","f","true","nonmatch","img/hexagon.png","强我","弱我","ALT2","ability","","","","","","","","",""
"null","<span style='color:GreenYellow; font-size: 70px;'>正确! </span>","null","html-keyboard-response","125","387469","0.0-8.0-1.0-4.0-0.0-1.8","6","7","7","5","6","5","4","5","5","5","4","1","-1","2","1","0","2","2","1","5","4","5","5","4","5","5","5","4","5","7","8","6","8","6","7","7","7","8","6","6","2","7","6","5","7","2","6","6","1","7","6","6","3","7","5","7","1","3","7","2","5","1","1","1","7","6","5","7","7","7","5","3","2","2","7","7","6","6","5","759010897925771266","李","313","Male","[""好我"",""坏我"",""坏他"",""好他""]","[""强我"",""弱我"",""弱他"",""强他""]","","","","","","","","","","","","","","","","","","","","","","","","","","","","","","feedback_test","","","","","","","","",""
"922","","j","psychophysics","126","389392","0.0-8.0-1.0-4.0-0.0-0.9","6","7","7","5","6","5","4","5","5","5","4","1","-1","2","1","0","2","2","1","5","4","5","5","4","5","5","5","4","5","7","8","6","8","6","7","7","7","8","6","6","2","7","6","5","7","2","6","6","1","7","6","6","3","7","5","7","1","3","7","2","5","1","1","1","7","6","5","7","7","7","5","3","2","2","7","7","6","6","5","759010897925771266","李","313","Male","[""好我"",""坏我"",""坏他"",""好他""]","[""强我"",""弱我"",""弱他"",""强他""]","","","","","","","","match","","","","","","","","","","key","j","16.660869565217393","768","428","j","true","match","img/circle.png","强他","强他","ALT2","ability","","","","","","","","",""
"null","<span style='color:GreenYellow; font-size: 70px;'>正确! </span>","null","html-keyboard-response","127","389894","0.0-8.0-1.0-4.0-0.0-1.9","6","7","7","5","6","5","4","5","5","5","4","1","-1","2","1","0","2","2","1","5","4","5","5","4","5","5","5","4","5","7","8","6","8","6","7","7","7","8","6","6","2","7","6","5","7","2","6","6","1","7","6","6","3","7","5","7","1","3","7","2","5","1","1","1","7","6","5","7","7","7","5","3","2","2","7","7","6","6","5","759010897925771266","李","313","Male","[""好我"",""坏我"",""坏他"",""好他""]","[""强我"",""弱我"",""弱他"",""强他""]","","","","","","","","","","","","","","","","","","","","","","","","","","","","","","feedback_test","","","","","","","","",""
"816","","f","psychophysics","128","391711","0.0-8.0-1.0-4.0-0.0-0.10","6","7","7","5","6","5","4","5","5","5","4","1","-1","2","1","0","2","2","1","5","4","5","5","4","5","5","5","4","5","7","8","6","8","6","7","7","7","8","6","6","2","7","6","5","7","2","6","6","1","7","6","6","3","7","5","7","1","3","7","2","5","1","1","1","7","6","5","7","7","7","5","3","2","2","7","7","6","6","5","759010897925771266","李","313","Male","[""好我"",""坏我"",""坏他"",""好他""]","[""强我"",""弱我"",""弱他"",""强他""]","","","","","","","","nonmatch","","","","","","","","","","key","f","16.659259259258828","768","428","f","true","nonmatch","img/circle.png","强我","强他","ALT2","ability","","","","","","","","",""
"null","<span style='color:GreenYellow; font-size: 70px;'>正确! </span>","null","html-keyboard-response","129","392212","0.0-8.0-1.0-4.0-0.0-1.10","6","7","7","5","6","5","4","5","5","5","4","1","-1","2","1","0","2","2","1","5","4","5","5","4","5","5","5","4","5","7","8","6","8","6","7","7","7","8","6","6","2","7","6","5","7","2","6","6","1","7","6","6","3","7","5","7","1","3","7","2","5","1","1","1","7","6","5","7","7","7","5","3","2","2","7","7","6","6","5","759010897925771266","李","313","Male","[""好我"",""坏我"",""坏他"",""好他""]","[""强我"",""弱我"",""弱他"",""强他""]","","","","","","","","","","","","","","","","","","","","","","","","","","","","","","feedback_test","","","","","","","","",""
"739","","j","psychophysics","130","393952","0.0-8.0-1.0-4.0-0.0-0.11","6","7","7","5","6","5","4","5","5","5","4","1","-1","2","1","0","2","2","1","5","4","5","5","4","5","5","5","4","5","7","8","6","8","6","7","7","7","8","6","6","2","7","6","5","7","2","6","6","1","7","6","6","3","7","5","7","1","3","7","2","5","1","1","1","7","6","5","7","7","7","5","3","2","2","7","7","6","6","5","759010897925771266","李","313","Male","[""好我"",""坏我"",""坏他"",""好他""]","[""强我"",""弱我"",""弱他"",""强他""]","","","","","","","","match","","","","","","","","","","key","j","16.661165048543463","768","428","j","true","match","img/diamond.png","强我","强我","ALT2","ability","","","","","","","","",""
"null","<span style='color:GreenYellow; font-size: 70px;'>正确! </span>","null","html-keyboard-response","131","394453","0.0-8.0-1.0-4.0-0.0-1.11","6","7","7","5","6","5","4","5","5","5","4","1","-1","2","1","0","2","2","1","5","4","5","5","4","5","5","5","4","5","7","8","6","8","6","7","7","7","8","6","6","2","7","6","5","7","2","6","6","1","7","6","6","3","7","5","7","1","3","7","2","5","1","1","1","7","6","5","7","7","7","5","3","2","2","7","7","6","6","5","759010897925771266","李","313","Male","[""好我"",""坏我"",""坏他"",""好他""]","[""强我"",""弱我"",""弱他"",""强他""]","","","","","","","","","","","","","","","","","","","","","","","","","","","","","","feedback_test","","","","","","","","",""
"970","","f","psychophysics","132","396424","0.0-8.0-1.0-4.0-0.0-0.12","6","7","7","5","6","5","4","5","5","5","4","1","-1","2","1","0","2","2","1","5","4","5","5","4","5","5","5","4","5","7","8","6","8","6","7","7","7","8","6","6","2","7","6","5","7","2","6","6","1","7","6","6","3","7","5","7","1","3","7","2","5","1","1","1","7","6","5","7","7","7","5","3","2","2","7","7","6","6","5","759010897925771266","李","313","Male","[""好我"",""坏我"",""坏他"",""好他""]","[""强我"",""弱我"",""弱他"",""强他""]","","","","","","","","nonmatch","","","","","","","","","","key","f","16.66186440677996","768","428","f","true","nonmatch","img/square.png","强他","弱他","ALT2","ability","","","","","","","","",""
"null","<span style='color:GreenYellow; font-size: 70px;'>正确! </span>","null","html-keyboard-response","133","396925","0.0-8.0-1.0-4.0-0.0-1.12","6","7","7","5","6","5","4","5","5","5","4","1","-1","2","1","0","2","2","1","5","4","5","5","4","5","5","5","4","5","7","8","6","8","6","7","7","7","8","6","6","2","7","6","5","7","2","6","6","1","7","6","6","3","7","5","7","1","3","7","2","5","1","1","1","7","6","5","7","7","7","5","3","2","2","7","7","6","6","5","759010897925771266","李","313","Male","[""好我"",""坏我"",""坏他"",""好他""]","[""强我"",""弱我"",""弱他"",""强他""]","","","","","","","","","","","","","","","","","","","","","","","","","","","","","","feedback_test","","","","","","","","",""
"905","","j","psychophysics","134","398843","0.0-8.0-1.0-4.0-0.0-0.13","6","7","7","5","6","5","4","5","5","5","4","1","-1","2","1","0","2","2","1","5","4","5","5","4","5","5","5","4","5","7","8","6","8","6","7","7","7","8","6","6","2","7","6","5","7","2","6","6","1","7","6","6","3","7","5","7","1","3","7","2","5","1","1","1","7","6","5","7","7","7","5","3","2","2","7","7","6","6","5","759010897925771266","李","313","Male","[""好我"",""坏我"",""坏他"",""好他""]","[""强我"",""弱我"",""弱他"",""强他""]","","","","","","","","match","","","","","","","","","","key","j","16.661403508772135","768","428","j","true","match","img/circle.png","强他","强他","ALT2","ability","","","","","","","","",""
"null","<span style='color:GreenYellow; font-size: 70px;'>正确! </span>","null","html-keyboard-response","135","399345","0.0-8.0-1.0-4.0-0.0-1.13","6","7","7","5","6","5","4","5","5","5","4","1","-1","2","1","0","2","2","1","5","4","5","5","4","5","5","5","4","5","7","8","6","8","6","7","7","7","8","6","6","2","7","6","5","7","2","6","6","1","7","6","6","3","7","5","7","1","3","7","2","5","1","1","1","7","6","5","7","7","7","5","3","2","2","7","7","6","6","5","759010897925771266","李","313","Male","[""好我"",""坏我"",""坏他"",""好他""]","[""强我"",""弱我"",""弱他"",""强他""]","","","","","","","","","","","","","","","","","","","","","","","","","","","","","","feedback_test","","","","","","","","",""
"935","","j","psychophysics","136","401282","0.0-8.0-1.0-4.0-0.0-0.14","6","7","7","5","6","5","4","5","5","5","4","1","-1","2","1","0","2","2","1","5","4","5","5","4","5","5","5","4","5","7","8","6","8","6","7","7","7","8","6","6","2","7","6","5","7","2","6","6","1","7","6","6","3","7","5","7","1","3","7","2","5","1","1","1","7","6","5","7","7","7","5","3","2","2","7","7","6","6","5","759010897925771266","李","313","Male","[""好我"",""坏我"",""坏他"",""好他""]","[""强我"",""弱我"",""弱他"",""强他""]","","","","","","","","match","","","","","","","","","","key","j","16.660869565217393","768","428","f","false","nonmatch","img/square.png","弱我","弱他","ALT2","ability","","","","","","","","",""
"null","<span style='color:red; font-size: 70px;'>错误! </span>","null","html-keyboard-response","137","401783","0.0-8.0-1.0-4.0-0.0-1.14","6","7","7","5","6","5","4","5","5","5","4","1","-1","2","1","0","2","2","1","5","4","5","5","4","5","5","5","4","5","7","8","6","8","6","7","7","7","8","6","6","2","7","6","5","7","2","6","6","1","7","6","6","3","7","5","7","1","3","7","2","5","1","1","1","7","6","5","7","7","7","5","3","2","2","7","7","6","6","5","759010897925771266","李","313","Male","[""好我"",""坏我"",""坏他"",""好他""]","[""强我"",""弱我"",""弱他"",""强他""]","","","","","","","","","","","","","","","","","","","","","","","","","","","","","","feedback_test","","","","","","","","",""
