"rt","stimulus","response","trial_type","trial_index","time_elapsed","internal_node_id","swb_1","swb_2","swb_3","swb_4","swb_5","LOT_1","LOT_2","LOT_3","LOT_4","LOT_5","LOT_6","IPC_1","IPC_2","IPC_3","IPC_4","IPC_5","IPC_6","IPC_7","IPC_8","MorIden_1","MorIden_2","MorIden_3","MorIden_4","MorIden_5","MorIden_6","MorIden_7","MorIden_8","MorIden_9","MorIden_10","moralSeImag_1","moralSeImag_2","moralSeImag_3","moralSeImag_4","moralSeImag_5","moralSeImag_6","moralSeImag_7","moralSeImag_8","moralSeImag_9","sde_1","sde_2","sde_3","sde_4","sde_5","sde_6","sde_7","sde_8","sde_9","sde_10","trap2","sde_11","sde_12","sde_13","sde_14","sde_15","sde_16","sde_17","sde_18","sde_19","sde_20","IM_1","IM_2","IM_3","IM_4","IM_5","IM_6","IM_7","IM_8","IM_9","IM_10","IM_11","IM_12","IM_13","IM_14","IM_15","IM_16","IM_17","IM_18","IM_19","IM_20","subj_idx","friend_name","ParticipantID","Sex","Word","Word2","value","success","timeout","failed_images","failed_audio","failed_video","user_agent","responses","item_order","radio_event_ids","radio_event_times","key_event_times","mouse_event_times","straightlining","zigzagging","honeypot","view_history","response_type","key_press","avg_frame_time","center_x","center_y","correct_response","correct","identity","Image","word","condition","task_id","screen_id","time_stamp","person","valence","domain","math","status","duration","question_order","trap2_item"
"7309","
   <p><div style='color:white; font-size: 25px'>您好，欢迎参加本次实验。</div></p>
   <p><div style='color:white; font-size: 25px'>为充分保障您的权利，请确保您已经知晓并同意《参与实验同意书》以及《数据公开知情同意书》。</div></p>
   <p><div style='color:white; font-size: 25px'>如果您未见过上述内容，请咨询实验员。</div></p>
   <p style='color:white; font-size: 25px'>如果您选择继续实验，则表示您已经清楚两份知情同意书的内容并同意。</p>
   <p><div style = ""color: pink;font-size:30px;"">请确保您记得day0的实验编号，您将在本次实验输入该编号，若您忘记，请咨询实验员后作答。</div></p>
   <p><div style = ""color:lightblue;font-size:25px;"">请您尽可能认真地作答，我们将依据您在各问卷和按键任务中的作答质量发放报酬。</div></p>
   <p> <div style = ""color: green""><按空格键至下页></div> </p>
   "," ","html-keyboard-response","0","7314","0.0-0.0","5","5","6","4","2","4","2","4","4","4","5","0","-2","1","0","0","1","0","0","4","4","5","4","3","4","4","4","2","3","4","3","4","4","3","5","4","5","4","3","6","5","3","4","2","5","1","5","5","1","4","3","6","3","3","3","5","5","5","3","4","5","2","2","2","5","3","6","6","5","6","5","6","6","2","5","2","5","3","3","796469824262905858","夏","472","Female","[""好她"",""坏她"",""好我"",""坏我""]","[""强她"",""弱她"",""强我"",""弱我""]","","","","","","","","","","","","","","","","","","","","","","","","","","","","","","","","","","","","","","",""
"","","","call-function","1","7317","0.0-1.0-0.0","5","5","6","4","2","4","2","4","4","4","5","0","-2","1","0","0","1","0","0","4","4","5","4","3","4","4","4","2","3","4","3","4","4","3","5","4","5","4","3","6","5","3","4","2","5","1","5","5","1","4","3","6","3","3","3","5","5","5","3","4","5","2","2","2","5","3","6","6","5","6","5","6","6","2","5","2","5","3","3","796469824262905858","夏","472","Female","[""好她"",""坏她"",""好我"",""坏我""]","[""强她"",""弱她"",""强我"",""弱我""]","","","","","","","","","","","","","","","","","","","","","","","","","","","","","","","","","","","","","","",""
"45896","","[{""name"":""Sex"",""value"":""1""},{""name"":""friend_name"",""value"":""夏""},{""name"":""ParticipantID"",""value"":""472""}]","survey-html-form","2","53215","0.0-1.0-1.0","5","5","6","4","2","4","2","4","4","4","5","0","-2","1","0","0","1","0","0","4","4","5","4","3","4","4","4","2","3","4","3","4","4","3","5","4","5","4","3","6","5","3","4","2","5","1","5","5","1","4","3","6","3","3","3","5","5","5","3","4","5","2","2","2","5","3","6","6","5","6","5","6","6","2","5","2","5","3","3","796469824262905858","夏","472","Female","[""好她"",""坏她"",""好我"",""坏我""]","[""强她"",""弱她"",""强我"",""弱我""]","","","","","","","","","","","","","","","","","","","","","","","","","","","","","","","","","","","","","","",""
"","","","preload","3","53576","0.0-2.0","5","5","6","4","2","4","2","4","4","4","5","0","-2","1","0","0","1","0","0","4","4","5","4","3","4","4","4","2","3","4","3","4","4","3","5","4","5","4","3","6","5","3","4","2","5","1","5","5","1","4","3","6","3","3","3","5","5","5","3","4","5","2","2","2","5","3","6","6","5","6","5","6","6","2","5","2","5","3","3","796469824262905858","夏","472","Female","[""好她"",""坏她"",""好我"",""坏我""]","[""强她"",""弱她"",""强我"",""弱我""]","","true","false","[]","[]","[]","","","","","","","","","","","","","","","","","","","","","","","","","","","","","","","","",""
"","","","fullscreen","4","59330","0.0-3.0","5","5","6","4","2","4","2","4","4","4","5","0","-2","1","0","0","1","0","0","4","4","5","4","3","4","4","4","2","3","4","3","4","4","3","5","4","5","4","3","6","5","3","4","2","5","1","5","5","1","4","3","6","3","3","3","5","5","5","3","4","5","2","2","2","5","3","6","6","5","6","5","6","6","2","5","2","5","3","3","796469824262905858","夏","472","Female","[""好她"",""坏她"",""好我"",""坏我""]","[""强她"",""弱她"",""强我"",""弱我""]","","true","","","","","{}","","","","","","","","","","","","","","","","","","","","","","","","","","","","","","","",""
"124824.69999980927","","{""Q01"":""5"",""Q02"":""5"",""Q03"":""6"",""Q04"":""4"",""Q05"":""2""}","survey-template","5","184160","0.0-4.0","5","5","6","4","2","4","2","4","4","4","5","0","-2","1","0","0","1","0","0","4","4","5","4","3","4","4","4","2","3","4","3","4","4","3","5","4","5","4","3","6","5","3","4","2","5","1","5","5","1","4","3","6","3","3","3","5","5","5","3","4","5","2","2","2","5","3","6","6","5","6","5","6","6","2","5","2","5","3","3","796469824262905858","夏","472","Female","[""好她"",""坏她"",""好我"",""坏我""]","[""强她"",""弱她"",""强我"",""弱我""]","","","","","","","","{""Q01"":""5"",""Q02"":""5"",""Q03"":""6"",""Q04"":""4"",""Q05"":""2""}","[0,1,2,3,4]","[""Q01"",""Q02"",""Q03"",""Q04"",""Q05""]","[107950.39999961853,108981.09999990463,110705.7999997139,112452,113822]","[]","[107950.39999961853,108981.09999990463,110705.7999997139,112452,113822,124822.7999997139]","0.4","0.25","0","","","","","","","","","","","","","","","","","","","","","","",""
"18396.099999904633","","{""Q01"":""4"",""Q02"":""2"",""Q03"":""4"",""Q04"":""4"",""Q05"":""4"",""Q06"":""5""}","survey-template","6","202563","0.0-5.0","5","5","6","4","2","4","2","4","4","4","5","0","-2","1","0","0","1","0","0","4","4","5","4","3","4","4","4","2","3","4","3","4","4","3","5","4","5","4","3","6","5","3","4","2","5","1","5","5","1","4","3","6","3","3","3","5","5","5","3","4","5","2","2","2","5","3","6","6","5","6","5","6","6","2","5","2","5","3","3","796469824262905858","夏","472","Female","[""好她"",""坏她"",""好我"",""坏我""]","[""强她"",""弱她"",""强我"",""弱我""]","","","","","","","","{""Q01"":""4"",""Q02"":""2"",""Q03"":""4"",""Q04"":""4"",""Q05"":""4"",""Q06"":""5""}","[0,1,2,3,4,5]","[""Q01"",""Q02"",""Q03"",""Q04"",""Q05"",""Q06""]","[8173.099999904633,9962.599999904633,11016.699999809265,12728.199999809265,13801.89999961853,17300.199999809265]","[]","[8173.099999904633,9962.599999904633,11016.699999809265,12728.199999809265,13801.89999961853,16095.799999713898,17300.199999809265,18394.799999713898]","0.5","0","0","","","","","","","","","","","","","","","","","","","","","","",""
"18270.10000038147","","{""Q01"":""0"",""Q02"":""-2"",""Q03"":""1"",""Q04"":""0"",""Q05"":""0"",""Q06"":""1"",""Q07"":""0"",""Q08"":""0""}","survey-template","7","220841","0.0-6.0","5","5","6","4","2","4","2","4","4","4","5","0","-2","1","0","0","1","0","0","4","4","5","4","3","4","4","4","2","3","4","3","4","4","3","5","4","5","4","3","6","5","3","4","2","5","1","5","5","1","4","3","6","3","3","3","5","5","5","3","4","5","2","2","2","5","3","6","6","5","6","5","6","6","2","5","2","5","3","3","796469824262905858","夏","472","Female","[""好她"",""坏她"",""好我"",""坏我""]","[""强她"",""弱她"",""强我"",""弱我""]","","","","","","","","{""Q01"":""0"",""Q02"":""-2"",""Q03"":""1"",""Q04"":""0"",""Q05"":""0"",""Q06"":""1"",""Q07"":""0"",""Q08"":""0""}","[0,1,2,3,4,5,6,7]","[""Q01"",""Q02"",""Q03"",""Q04"",""Q05"",""Q06"",""Q07"",""Q08""]","[4662.700000286102,6708.900000095367,8580.5,10585.10000038147,11724.900000095367,14910.10000038147,16013.400000095367,17145.60000038147]","[]","[4662.700000286102,6708.900000095367,8580.5,10585.10000038147,11724.900000095367,12899,14910.10000038147,16013.400000095367,17145.60000038147,18267.5]","0.625","0.42857142857142855","0","","","","","","","","","","","","","","","","","","","","","","",""
"15597","","","instructions","8","236443","0.0-7.0","5","5","6","4","2","4","2","4","4","4","5","0","-2","1","0","0","1","0","0","4","4","5","4","3","4","4","4","2","3","4","3","4","4","3","5","4","5","4","3","6","5","3","4","2","5","1","5","5","1","4","3","6","3","3","3","5","5","5","3","4","5","2","2","2","5","3","6","6","5","6","5","6","6","2","5","2","5","3","3","796469824262905858","夏","472","Female","[""好她"",""坏她"",""好我"",""坏我""]","[""强她"",""弱她"",""强我"",""弱我""]","","","","","","","","","","","","","","","","","[{""page_index"":0,""viewing_time"":15596}]","","","","","","","","","","","","","","","","","","","","","",""
"42299","","","instructions","9","278746","0.0-8.0-0.0-0.0","5","5","6","4","2","4","2","4","4","4","5","0","-2","1","0","0","1","0","0","4","4","5","4","3","4","4","4","2","3","4","3","4","4","3","5","4","5","4","3","6","5","3","4","2","5","1","5","5","1","4","3","6","3","3","3","5","5","5","3","4","5","2","2","2","5","3","6","6","5","6","5","6","6","2","5","2","5","3","3","796469824262905858","夏","472","Female","[""好她"",""坏她"",""好我"",""坏我""]","[""强她"",""弱她"",""强我"",""弱我""]","","","","","","","","","","","","","","","","","[{""page_index"":0,""viewing_time"":12001},{""page_index"":1,""viewing_time"":25042},{""page_index"":2,""viewing_time"":3203},{""page_index"":3,""viewing_time"":2054}]","","","","","","","","","","","","","","","","","","","","","",""
"965","","j","psychophysics","10","280717","0.0-8.0-0.0-1.0-0.0-0.0","5","5","6","4","2","4","2","4","4","4","5","0","-2","1","0","0","1","0","0","4","4","5","4","3","4","4","4","2","3","4","3","4","4","3","5","4","5","4","3","6","5","3","4","2","5","1","5","5","1","4","3","6","3","3","3","5","5","5","3","4","5","2","2","2","5","3","6","6","5","6","5","6","6","2","5","2","5","3","3","796469824262905858","夏","472","Female","[""好她"",""坏她"",""好我"",""坏我""]","[""强她"",""弱她"",""强我"",""弱我""]","","","","","","","","nonmatch","","","","","","","","","","key","j","16.664957264957167","640","356","f","false","match","img/trapezoid.png","坏她","坏她","prac_ALT2_moral","practice_moral","","","","","","","","",""
"null","<span style='color:red; font-size: 70px;'>错误! </span>","null","html-keyboard-response","11","281219","0.0-8.0-0.0-1.0-0.0-1.0","5","5","6","4","2","4","2","4","4","4","5","0","-2","1","0","0","1","0","0","4","4","5","4","3","4","4","4","2","3","4","3","4","4","3","5","4","5","4","3","6","5","3","4","2","5","1","5","5","1","4","3","6","3","3","3","5","5","5","3","4","5","2","2","2","5","3","6","6","5","6","5","6","6","2","5","2","5","3","3","796469824262905858","夏","472","Female","[""好她"",""坏她"",""好我"",""坏我""]","[""强她"",""弱她"",""强我"",""弱我""]","","","","","","","","","","","","","","","","","","","","","","","","","","","","","","feedback_test","","","","","","","","",""
"null","","null","psychophysics","12","283425","0.0-8.0-0.0-1.0-0.0-0.1","5","5","6","4","2","4","2","4","4","4","5","0","-2","1","0","0","1","0","0","4","4","5","4","3","4","4","4","2","3","4","3","4","4","3","5","4","5","4","3","6","5","3","4","2","5","1","5","5","1","4","3","6","3","3","3","5","5","5","3","4","5","2","2","2","5","3","6","6","5","6","5","6","6","2","5","2","5","3","3","796469824262905858","夏","472","Female","[""好她"",""坏她"",""好我"",""坏我""]","[""强她"",""弱她"",""强我"",""弱我""]","","","","","","","","null","","","","","","","","","","key","null","16.66412213740458","640","356","f","false","match","img/diamond.png","好她","好她","prac_ALT2_moral","practice_moral","","","","","","","","",""
"null","<span class='add_' style='color:yellow; font-size: 70px;'> 太慢! </span>","null","html-keyboard-response","13","283926","0.0-8.0-0.0-1.0-0.0-1.1","5","5","6","4","2","4","2","4","4","4","5","0","-2","1","0","0","1","0","0","4","4","5","4","3","4","4","4","2","3","4","3","4","4","3","5","4","5","4","3","6","5","3","4","2","5","1","5","5","1","4","3","6","3","3","3","5","5","5","3","4","5","2","2","2","5","3","6","6","5","6","5","6","6","2","5","2","5","3","3","796469824262905858","夏","472","Female","[""好她"",""坏她"",""好我"",""坏我""]","[""强她"",""弱她"",""强我"",""弱我""]","","","","","","","","","","","","","","","","","","","","","","","","","","","","","","feedback_test","","","","","","","","",""
"564","","j","psychophysics","14","285493","0.0-8.0-0.0-1.0-0.0-0.2","5","5","6","4","2","4","2","4","4","4","5","0","-2","1","0","0","1","0","0","4","4","5","4","3","4","4","4","2","3","4","3","4","4","3","5","4","5","4","3","6","5","3","4","2","5","1","5","5","1","4","3","6","3","3","3","5","5","5","3","4","5","2","2","2","5","3","6","6","5","6","5","6","6","2","5","2","5","3","3","796469824262905858","夏","472","Female","[""好她"",""坏她"",""好我"",""坏我""]","[""强她"",""弱她"",""强我"",""弱我""]","","","","","","","","nonmatch","","","","","","","","","","key","j","16.66774193548362","640","356","f","false","match","img/trapezoid.png","坏她","坏她","prac_ALT2_moral","practice_moral","","","","","","","","",""
"null","<span style='color:red; font-size: 70px;'>错误! </span>","null","html-keyboard-response","15","285994","0.0-8.0-0.0-1.0-0.0-1.2","5","5","6","4","2","4","2","4","4","4","5","0","-2","1","0","0","1","0","0","4","4","5","4","3","4","4","4","2","3","4","3","4","4","3","5","4","5","4","3","6","5","3","4","2","5","1","5","5","1","4","3","6","3","3","3","5","5","5","3","4","5","2","2","2","5","3","6","6","5","6","5","6","6","2","5","2","5","3","3","796469824262905858","夏","472","Female","[""好她"",""坏她"",""好我"",""坏我""]","[""强她"",""弱她"",""强我"",""弱我""]","","","","","","","","","","","","","","","","","","","","","","","","","","","","","","feedback_test","","","","","","","","",""
"1013","","f","psychophysics","16","288010","0.0-8.0-0.0-1.0-0.0-0.3","5","5","6","4","2","4","2","4","4","4","5","0","-2","1","0","0","1","0","0","4","4","5","4","3","4","4","4","2","3","4","3","4","4","3","5","4","5","4","3","6","5","3","4","2","5","1","5","5","1","4","3","6","3","3","3","5","5","5","3","4","5","2","2","2","5","3","6","6","5","6","5","6","6","2","5","2","5","3","3","796469824262905858","夏","472","Female","[""好她"",""坏她"",""好我"",""坏我""]","[""强她"",""弱她"",""强我"",""弱我""]","","","","","","","","match","","","","","","","","","","key","f","16.670000000000194","640","356","j","false","nonmatch","img/trapezoid.png","好我","坏她","prac_ALT2_moral","practice_moral","","","","","","","","",""
"null","<span style='color:red; font-size: 70px;'>错误! </span>","null","html-keyboard-response","17","288512","0.0-8.0-0.0-1.0-0.0-1.3","5","5","6","4","2","4","2","4","4","4","5","0","-2","1","0","0","1","0","0","4","4","5","4","3","4","4","4","2","3","4","3","4","4","3","5","4","5","4","3","6","5","3","4","2","5","1","5","5","1","4","3","6","3","3","3","5","5","5","3","4","5","2","2","2","5","3","6","6","5","6","5","6","6","2","5","2","5","3","3","796469824262905858","夏","472","Female","[""好她"",""坏她"",""好我"",""坏我""]","[""强她"",""弱她"",""强我"",""弱我""]","","","","","","","","","","","","","","","","","","","","","","","","","","","","","","feedback_test","","","","","","","","",""
"709","","f","psychophysics","18","290243","0.0-8.0-0.0-1.0-0.0-0.4","5","5","6","4","2","4","2","4","4","4","5","0","-2","1","0","0","1","0","0","4","4","5","4","3","4","4","4","2","3","4","3","4","4","3","5","4","5","4","3","6","5","3","4","2","5","1","5","5","1","4","3","6","3","3","3","5","5","5","3","4","5","2","2","2","5","3","6","6","5","6","5","6","6","2","5","2","5","3","3","796469824262905858","夏","472","Female","[""好她"",""坏她"",""好我"",""坏我""]","[""强她"",""弱她"",""强我"",""弱我""]","","","","","","","","match","","","","","","","","","","key","f","16.66699029126225","640","356","j","false","nonmatch","img/ellipse.png","坏她","坏我","prac_ALT2_moral","practice_moral","","","","","","","","",""
"null","<span style='color:red; font-size: 70px;'>错误! </span>","null","html-keyboard-response","19","290744","0.0-8.0-0.0-1.0-0.0-1.4","5","5","6","4","2","4","2","4","4","4","5","0","-2","1","0","0","1","0","0","4","4","5","4","3","4","4","4","2","3","4","3","4","4","3","5","4","5","4","3","6","5","3","4","2","5","1","5","5","1","4","3","6","3","3","3","5","5","5","3","4","5","2","2","2","5","3","6","6","5","6","5","6","6","2","5","2","5","3","3","796469824262905858","夏","472","Female","[""好她"",""坏她"",""好我"",""坏我""]","[""强她"",""弱她"",""强我"",""弱我""]","","","","","","","","","","","","","","","","","","","","","","","","","","","","","","feedback_test","","","","","","","","",""
"1087","","j","psychophysics","20","292834","0.0-8.0-0.0-1.0-0.0-0.5","5","5","6","4","2","4","2","4","4","4","5","0","-2","1","0","0","1","0","0","4","4","5","4","3","4","4","4","2","3","4","3","4","4","3","5","4","5","4","3","6","5","3","4","2","5","1","5","5","1","4","3","6","3","3","3","5","5","5","3","4","5","2","2","2","5","3","6","6","5","6","5","6","6","2","5","2","5","3","3","796469824262905858","夏","472","Female","[""好她"",""坏她"",""好我"",""坏我""]","[""强她"",""弱她"",""强我"",""弱我""]","","","","","","","","nonmatch","","","","","","","","","","key","j","16.66532258064516","640","356","f","false","match","img/hexagon.png","好我","好我","prac_ALT2_moral","practice_moral","","","","","","","","",""
"null","<span style='color:red; font-size: 70px;'>错误! </span>","null","html-keyboard-response","21","293336","0.0-8.0-0.0-1.0-0.0-1.5","5","5","6","4","2","4","2","4","4","4","5","0","-2","1","0","0","1","0","0","4","4","5","4","3","4","4","4","2","3","4","3","4","4","3","5","4","5","4","3","6","5","3","4","2","5","1","5","5","1","4","3","6","3","3","3","5","5","5","3","4","5","2","2","2","5","3","6","6","5","6","5","6","6","2","5","2","5","3","3","796469824262905858","夏","472","Female","[""好她"",""坏她"",""好我"",""坏我""]","[""强她"",""弱她"",""强我"",""弱我""]","","","","","","","","","","","","","","","","","","","","","","","","","","","","","","feedback_test","","","","","","","","",""
"865","","f","psychophysics","22","295202","0.0-8.0-0.0-1.0-0.0-0.6","5","5","6","4","2","4","2","4","4","4","5","0","-2","1","0","0","1","0","0","4","4","5","4","3","4","4","4","2","3","4","3","4","4","3","5","4","5","4","3","6","5","3","4","2","5","1","5","5","1","4","3","6","3","3","3","5","5","5","3","4","5","2","2","2","5","3","6","6","5","6","5","6","6","2","5","2","5","3","3","796469824262905858","夏","472","Female","[""好她"",""坏她"",""好我"",""坏我""]","[""强她"",""弱她"",""强我"",""弱我""]","","","","","","","","match","","","","","","","","","","key","f","16.661818181818077","640","356","f","true","match","img/diamond.png","好她","好她","prac_ALT2_moral","practice_moral","","","","","","","","",""
"null","<span style='color:GreenYellow; font-size: 70px;'>正确! </span>","null","html-keyboard-response","23","295704","0.0-8.0-0.0-1.0-0.0-1.6","5","5","6","4","2","4","2","4","4","4","5","0","-2","1","0","0","1","0","0","4","4","5","4","3","4","4","4","2","3","4","3","4","4","3","5","4","5","4","3","6","5","3","4","2","5","1","5","5","1","4","3","6","3","3","3","5","5","5","3","4","5","2","2","2","5","3","6","6","5","6","5","6","6","2","5","2","5","3","3","796469824262905858","夏","472","Female","[""好她"",""坏她"",""好我"",""坏我""]","[""强她"",""弱她"",""强我"",""弱我""]","","","","","","","","","","","","","","","","","","","","","","","","","","","","","","feedback_test","","","","","","","","",""
"522","","f","psychophysics","24","297227","0.0-8.0-0.0-1.0-0.0-0.7","5","5","6","4","2","4","2","4","4","4","5","0","-2","1","0","0","1","0","0","4","4","5","4","3","4","4","4","2","3","4","3","4","4","3","5","4","5","4","3","6","5","3","4","2","5","1","5","5","1","4","3","6","3","3","3","5","5","5","3","4","5","2","2","2","5","3","6","6","5","6","5","6","6","2","5","2","5","3","3","796469824262905858","夏","472","Female","[""好她"",""坏她"",""好我"",""坏我""]","[""强她"",""弱她"",""强我"",""弱我""]","","","","","","","","match","","","","","","","","","","key","f","16.66777777777752","640","356","f","true","match","img/hexagon.png","好我","好我","prac_ALT2_moral","practice_moral","","","","","","","","",""
"null","<span style='color:GreenYellow; font-size: 70px;'>正确! </span>","null","html-keyboard-response","25","297729","0.0-8.0-0.0-1.0-0.0-1.7","5","5","6","4","2","4","2","4","4","4","5","0","-2","1","0","0","1","0","0","4","4","5","4","3","4","4","4","2","3","4","3","4","4","3","5","4","5","4","3","6","5","3","4","2","5","1","5","5","1","4","3","6","3","3","3","5","5","5","3","4","5","2","2","2","5","3","6","6","5","6","5","6","6","2","5","2","5","3","3","796469824262905858","夏","472","Female","[""好她"",""坏她"",""好我"",""坏我""]","[""强她"",""弱她"",""强我"",""弱我""]","","","","","","","","","","","","","","","","","","","","","","","","","","","","","","feedback_test","","","","","","","","",""
"825","","j","psychophysics","26","299556","0.0-8.0-0.0-1.0-0.0-0.8","5","5","6","4","2","4","2","4","4","4","5","0","-2","1","0","0","1","0","0","4","4","5","4","3","4","4","4","2","3","4","3","4","4","3","5","4","5","4","3","6","5","3","4","2","5","1","5","5","1","4","3","6","3","3","3","5","5","5","3","4","5","2","2","2","5","3","6","6","5","6","5","6","6","2","5","2","5","3","3","796469824262905858","夏","472","Female","[""好她"",""坏她"",""好我"",""坏我""]","[""强她"",""弱她"",""强我"",""弱我""]","","","","","","","","nonmatch","","","","","","","","","","key","j","16.666055045871346","640","356","j","true","nonmatch","img/hexagon.png","坏我","好我","prac_ALT2_moral","practice_moral","","","","","","","","",""
"null","<span style='color:GreenYellow; font-size: 70px;'>正确! </span>","null","html-keyboard-response","27","300057","0.0-8.0-0.0-1.0-0.0-1.8","5","5","6","4","2","4","2","4","4","4","5","0","-2","1","0","0","1","0","0","4","4","5","4","3","4","4","4","2","3","4","3","4","4","3","5","4","5","4","3","6","5","3","4","2","5","1","5","5","1","4","3","6","3","3","3","5","5","5","3","4","5","2","2","2","5","3","6","6","5","6","5","6","6","2","5","2","5","3","3","796469824262905858","夏","472","Female","[""好她"",""坏她"",""好我"",""坏我""]","[""强她"",""弱她"",""强我"",""弱我""]","","","","","","","","","","","","","","","","","","","","","","","","","","","","","","feedback_test","","","","","","","","",""
"676","","j","psychophysics","28","301761","0.0-8.0-0.0-1.0-0.0-0.9","5","5","6","4","2","4","2","4","4","4","5","0","-2","1","0","0","1","0","0","4","4","5","4","3","4","4","4","2","3","4","3","4","4","3","5","4","5","4","3","6","5","3","4","2","5","1","5","5","1","4","3","6","3","3","3","5","5","5","3","4","5","2","2","2","5","3","6","6","5","6","5","6","6","2","5","2","5","3","3","796469824262905858","夏","472","Female","[""好她"",""坏她"",""好我"",""坏我""]","[""强她"",""弱她"",""强我"",""弱我""]","","","","","","","","nonmatch","","","","","","","","","","key","j","16.666336633663253","640","356","j","true","nonmatch","img/ellipse.png","好她","坏我","prac_ALT2_moral","practice_moral","","","","","","","","",""
"null","<span style='color:GreenYellow; font-size: 70px;'>正确! </span>","null","html-keyboard-response","29","302263","0.0-8.0-0.0-1.0-0.0-1.9","5","5","6","4","2","4","2","4","4","4","5","0","-2","1","0","0","1","0","0","4","4","5","4","3","4","4","4","2","3","4","3","4","4","3","5","4","5","4","3","6","5","3","4","2","5","1","5","5","1","4","3","6","3","3","3","5","5","5","3","4","5","2","2","2","5","3","6","6","5","6","5","6","6","2","5","2","5","3","3","796469824262905858","夏","472","Female","[""好她"",""坏她"",""好我"",""坏我""]","[""强她"",""弱她"",""强我"",""弱我""]","","","","","","","","","","","","","","","","","","","","","","","","","","","","","","feedback_test","","","","","","","","",""
"1134","","f","psychophysics","30","304399","0.0-8.0-0.0-1.0-0.0-0.10","5","5","6","4","2","4","2","4","4","4","5","0","-2","1","0","0","1","0","0","4","4","5","4","3","4","4","4","2","3","4","3","4","4","3","5","4","5","4","3","6","5","3","4","2","5","1","5","5","1","4","3","6","3","3","3","5","5","5","3","4","5","2","2","2","5","3","6","6","5","6","5","6","6","2","5","2","5","3","3","796469824262905858","夏","472","Female","[""好她"",""坏她"",""好我"",""坏我""]","[""强她"",""弱她"",""强我"",""弱我""]","","","","","","","","match","","","","","","","","","","key","f","16.66692913385836","640","356","j","false","nonmatch","img/trapezoid.png","坏我","坏她","prac_ALT2_moral","practice_moral","","","","","","","","",""
"null","<span style='color:red; font-size: 70px;'>错误! </span>","null","html-keyboard-response","31","304901","0.0-8.0-0.0-1.0-0.0-1.10","5","5","6","4","2","4","2","4","4","4","5","0","-2","1","0","0","1","0","0","4","4","5","4","3","4","4","4","2","3","4","3","4","4","3","5","4","5","4","3","6","5","3","4","2","5","1","5","5","1","4","3","6","3","3","3","5","5","5","3","4","5","2","2","2","5","3","6","6","5","6","5","6","6","2","5","2","5","3","3","796469824262905858","夏","472","Female","[""好她"",""坏她"",""好我"",""坏我""]","[""强她"",""弱她"",""强我"",""弱我""]","","","","","","","","","","","","","","","","","","","","","","","","","","","","","","feedback_test","","","","","","","","",""
"429","","f","psychophysics","32","306333","0.0-8.0-0.0-1.0-0.0-0.11","5","5","6","4","2","4","2","4","4","4","5","0","-2","1","0","0","1","0","0","4","4","5","4","3","4","4","4","2","3","4","3","4","4","3","5","4","5","4","3","6","5","3","4","2","5","1","5","5","1","4","3","6","3","3","3","5","5","5","3","4","5","2","2","2","5","3","6","6","5","6","5","6","6","2","5","2","5","3","3","796469824262905858","夏","472","Female","[""好她"",""坏她"",""好我"",""坏我""]","[""强她"",""弱她"",""强我"",""弱我""]","","","","","","","","match","","","","","","","","","","key","f","16.667058823529548","640","356","f","true","match","img/ellipse.png","坏我","坏我","prac_ALT2_moral","practice_moral","","","","","","","","",""
"null","<span style='color:GreenYellow; font-size: 70px;'>正确! </span>","null","html-keyboard-response","33","306844","0.0-8.0-0.0-1.0-0.0-1.11","5","5","6","4","2","4","2","4","4","4","5","0","-2","1","0","0","1","0","0","4","4","5","4","3","4","4","4","2","3","4","3","4","4","3","5","4","5","4","3","6","5","3","4","2","5","1","5","5","1","4","3","6","3","3","3","5","5","5","3","4","5","2","2","2","5","3","6","6","5","6","5","6","6","2","5","2","5","3","3","796469824262905858","夏","472","Female","[""好她"",""坏她"",""好我"",""坏我""]","[""强她"",""弱她"",""强我"",""弱我""]","","","","","","","","","","","","","","","","","","","","","","","","","","","","","","feedback_test","","","","","","","","",""
"580","","j","psychophysics","34","308445","0.0-8.0-0.0-1.0-0.0-0.12","5","5","6","4","2","4","2","4","4","4","5","0","-2","1","0","0","1","0","0","4","4","5","4","3","4","4","4","2","3","4","3","4","4","3","5","4","5","4","3","6","5","3","4","2","5","1","5","5","1","4","3","6","3","3","3","5","5","5","3","4","5","2","2","2","5","3","6","6","5","6","5","6","6","2","5","2","5","3","3","796469824262905858","夏","472","Female","[""好她"",""坏她"",""好我"",""坏我""]","[""强她"",""弱她"",""强我"",""弱我""]","","","","","","","","nonmatch","","","","","","","","","","key","j","16.666315789474176","640","356","j","true","nonmatch","img/ellipse.png","好我","坏我","prac_ALT2_moral","practice_moral","","","","","","","","",""
"null","<span style='color:GreenYellow; font-size: 70px;'>正确! </span>","null","html-keyboard-response","35","308957","0.0-8.0-0.0-1.0-0.0-1.12","5","5","6","4","2","4","2","4","4","4","5","0","-2","1","0","0","1","0","0","4","4","5","4","3","4","4","4","2","3","4","3","4","4","3","5","4","5","4","3","6","5","3","4","2","5","1","5","5","1","4","3","6","3","3","3","5","5","5","3","4","5","2","2","2","5","3","6","6","5","6","5","6","6","2","5","2","5","3","3","796469824262905858","夏","472","Female","[""好她"",""坏她"",""好我"",""坏我""]","[""强她"",""弱她"",""强我"",""弱我""]","","","","","","","","","","","","","","","","","","","","","","","","","","","","","","feedback_test","","","","","","","","",""
"600","","j","psychophysics","36","310560","0.0-8.0-0.0-1.0-0.0-0.13","5","5","6","4","2","4","2","4","4","4","5","0","-2","1","0","0","1","0","0","4","4","5","4","3","4","4","4","2","3","4","3","4","4","3","5","4","5","4","3","6","5","3","4","2","5","1","5","5","1","4","3","6","3","3","3","5","5","5","3","4","5","2","2","2","5","3","6","6","5","6","5","6","6","2","5","2","5","3","3","796469824262905858","夏","472","Female","[""好她"",""坏她"",""好我"",""坏我""]","[""强她"",""弱她"",""强我"",""弱我""]","","","","","","","","nonmatch","","","","","","","","","","key","j","16.661052631578826","640","356","f","false","match","img/trapezoid.png","坏她","坏她","prac_ALT2_moral","practice_moral","","","","","","","","",""
"null","<span style='color:red; font-size: 70px;'>错误! </span>","null","html-keyboard-response","37","311073","0.0-8.0-0.0-1.0-0.0-1.13","5","5","6","4","2","4","2","4","4","4","5","0","-2","1","0","0","1","0","0","4","4","5","4","3","4","4","4","2","3","4","3","4","4","3","5","4","5","4","3","6","5","3","4","2","5","1","5","5","1","4","3","6","3","3","3","5","5","5","3","4","5","2","2","2","5","3","6","6","5","6","5","6","6","2","5","2","5","3","3","796469824262905858","夏","472","Female","[""好她"",""坏她"",""好我"",""坏我""]","[""强她"",""弱她"",""强我"",""弱我""]","","","","","","","","","","","","","","","","","","","","","","","","","","","","","","feedback_test","","","","","","","","",""
"900","","f","psychophysics","38","312976","0.0-8.0-0.0-1.0-0.0-0.14","5","5","6","4","2","4","2","4","4","4","5","0","-2","1","0","0","1","0","0","4","4","5","4","3","4","4","4","2","3","4","3","4","4","3","5","4","5","4","3","6","5","3","4","2","5","1","5","5","1","4","3","6","3","3","3","5","5","5","3","4","5","2","2","2","5","3","6","6","5","6","5","6","6","2","5","2","5","3","3","796469824262905858","夏","472","Female","[""好她"",""坏她"",""好我"",""坏我""]","[""强她"",""弱她"",""强我"",""弱我""]","","","","","","","","match","","","","","","","","","","key","f","16.666371681415825","640","356","j","false","nonmatch","img/hexagon.png","好她","好我","prac_ALT2_moral","practice_moral","","","","","","","","",""
"null","<span style='color:red; font-size: 70px;'>错误! </span>","null","html-keyboard-response","39","313504","0.0-8.0-0.0-1.0-0.0-1.14","5","5","6","4","2","4","2","4","4","4","5","0","-2","1","0","0","1","0","0","4","4","5","4","3","4","4","4","2","3","4","3","4","4","3","5","4","5","4","3","6","5","3","4","2","5","1","5","5","1","4","3","6","3","3","3","5","5","5","3","4","5","2","2","2","5","3","6","6","5","6","5","6","6","2","5","2","5","3","3","796469824262905858","夏","472","Female","[""好她"",""坏她"",""好我"",""坏我""]","[""强她"",""弱她"",""强我"",""弱我""]","","","","","","","","","","","","","","","","","","","","","","","","","","","","","","feedback_test","","","","","","","","",""
"547","","f","psychophysics","40","315072","0.0-8.0-0.0-1.0-0.0-0.15","5","5","6","4","2","4","2","4","4","4","5","0","-2","1","0","0","1","0","0","4","4","5","4","3","4","4","4","2","3","4","3","4","4","3","5","4","5","4","3","6","5","3","4","2","5","1","5","5","1","4","3","6","3","3","3","5","5","5","3","4","5","2","2","2","5","3","6","6","5","6","5","6","6","2","5","2","5","3","3","796469824262905858","夏","472","Female","[""好她"",""坏她"",""好我"",""坏我""]","[""强她"",""弱她"",""强我"",""弱我""]","","","","","","","","match","","","","","","","","","","key","f","16.66774193548362","640","356","f","true","match","img/diamond.png","好她","好她","prac_ALT2_moral","practice_moral","","","","","","","","",""
"null","<span style='color:GreenYellow; font-size: 70px;'>正确! </span>","null","html-keyboard-response","41","315574","0.0-8.0-0.0-1.0-0.0-1.15","5","5","6","4","2","4","2","4","4","4","5","0","-2","1","0","0","1","0","0","4","4","5","4","3","4","4","4","2","3","4","3","4","4","3","5","4","5","4","3","6","5","3","4","2","5","1","5","5","1","4","3","6","3","3","3","5","5","5","3","4","5","2","2","2","5","3","6","6","5","6","5","6","6","2","5","2","5","3","3","796469824262905858","夏","472","Female","[""好她"",""坏她"",""好我"",""坏我""]","[""强她"",""弱她"",""强我"",""弱我""]","","","","","","","","","","","","","","","","","","","","","","","","","","","","","","feedback_test","","","","","","","","",""
"801","","f","psychophysics","42","317377","0.0-8.0-0.0-1.0-0.0-0.16","5","5","6","4","2","4","2","4","4","4","5","0","-2","1","0","0","1","0","0","4","4","5","4","3","4","4","4","2","3","4","3","4","4","3","5","4","5","4","3","6","5","3","4","2","5","1","5","5","1","4","3","6","3","3","3","5","5","5","3","4","5","2","2","2","5","3","6","6","5","6","5","6","6","2","5","2","5","3","3","796469824262905858","夏","472","Female","[""好她"",""坏她"",""好我"",""坏我""]","[""强她"",""弱她"",""强我"",""弱我""]","","","","","","","","match","","","","","","","","","","key","f","16.666355140186806","640","356","j","false","nonmatch","img/trapezoid.png","好她","坏她","prac_ALT2_moral","practice_moral","","","","","","","","",""
"null","<span style='color:red; font-size: 70px;'>错误! </span>","null","html-keyboard-response","43","317880","0.0-8.0-0.0-1.0-0.0-1.16","5","5","6","4","2","4","2","4","4","4","5","0","-2","1","0","0","1","0","0","4","4","5","4","3","4","4","4","2","3","4","3","4","4","3","5","4","5","4","3","6","5","3","4","2","5","1","5","5","1","4","3","6","3","3","3","5","5","5","3","4","5","2","2","2","5","3","6","6","5","6","5","6","6","2","5","2","5","3","3","796469824262905858","夏","472","Female","[""好她"",""坏她"",""好我"",""坏我""]","[""强她"",""弱她"",""强我"",""弱我""]","","","","","","","","","","","","","","","","","","","","","","","","","","","","","","feedback_test","","","","","","","","",""
"912","","j","psychophysics","44","319793","0.0-8.0-0.0-1.0-0.0-0.17","5","5","6","4","2","4","2","4","4","4","5","0","-2","1","0","0","1","0","0","4","4","5","4","3","4","4","4","2","3","4","3","4","4","3","5","4","5","4","3","6","5","3","4","2","5","1","5","5","1","4","3","6","3","3","3","5","5","5","3","4","5","2","2","2","5","3","6","6","5","6","5","6","6","2","5","2","5","3","3","796469824262905858","夏","472","Female","[""好她"",""坏她"",""好我"",""坏我""]","[""强她"",""弱她"",""强我"",""弱我""]","","","","","","","","nonmatch","","","","","","","","","","key","j","16.666666666666668","640","356","j","true","nonmatch","img/diamond.png","坏我","好她","prac_ALT2_moral","practice_moral","","","","","","","","",""
"null","<span style='color:GreenYellow; font-size: 70px;'>正确! </span>","null","html-keyboard-response","45","320316","0.0-8.0-0.0-1.0-0.0-1.17","5","5","6","4","2","4","2","4","4","4","5","0","-2","1","0","0","1","0","0","4","4","5","4","3","4","4","4","2","3","4","3","4","4","3","5","4","5","4","3","6","5","3","4","2","5","1","5","5","1","4","3","6","3","3","3","5","5","5","3","4","5","2","2","2","5","3","6","6","5","6","5","6","6","2","5","2","5","3","3","796469824262905858","夏","472","Female","[""好她"",""坏她"",""好我"",""坏我""]","[""强她"",""弱她"",""强我"",""弱我""]","","","","","","","","","","","","","","","","","","","","","","","","","","","","","","feedback_test","","","","","","","","",""
"578","","f","psychophysics","46","321913","0.0-8.0-0.0-1.0-0.0-0.18","5","5","6","4","2","4","2","4","4","4","5","0","-2","1","0","0","1","0","0","4","4","5","4","3","4","4","4","2","3","4","3","4","4","3","5","4","5","4","3","6","5","3","4","2","5","1","5","5","1","4","3","6","3","3","3","5","5","5","3","4","5","2","2","2","5","3","6","6","5","6","5","6","6","2","5","2","5","3","3","796469824262905858","夏","472","Female","[""好她"",""坏她"",""好我"",""坏我""]","[""强她"",""弱她"",""强我"",""弱我""]","","","","","","","","match","","","","","","","","","","key","f","16.667368421052878","640","356","j","false","nonmatch","img/diamond.png","好我","好她","prac_ALT2_moral","practice_moral","","","","","","","","",""
"null","<span style='color:red; font-size: 70px;'>错误! </span>","null","html-keyboard-response","47","322415","0.0-8.0-0.0-1.0-0.0-1.18","5","5","6","4","2","4","2","4","4","4","5","0","-2","1","0","0","1","0","0","4","4","5","4","3","4","4","4","2","3","4","3","4","4","3","5","4","5","4","3","6","5","3","4","2","5","1","5","5","1","4","3","6","3","3","3","5","5","5","3","4","5","2","2","2","5","3","6","6","5","6","5","6","6","2","5","2","5","3","3","796469824262905858","夏","472","Female","[""好她"",""坏她"",""好我"",""坏我""]","[""强她"",""弱她"",""强我"",""弱我""]","","","","","","","","","","","","","","","","","","","","","","","","","","","","","","feedback_test","","","","","","","","",""
"861","","j","psychophysics","48","324277","0.0-8.0-0.0-1.0-0.0-0.19","5","5","6","4","2","4","2","4","4","4","5","0","-2","1","0","0","1","0","0","4","4","5","4","3","4","4","4","2","3","4","3","4","4","3","5","4","5","4","3","6","5","3","4","2","5","1","5","5","1","4","3","6","3","3","3","5","5","5","3","4","5","2","2","2","5","3","6","6","5","6","5","6","6","2","5","2","5","3","3","796469824262905858","夏","472","Female","[""好她"",""坏她"",""好我"",""坏我""]","[""强她"",""弱她"",""强我"",""弱我""]","","","","","","","","nonmatch","","","","","","","","","","key","j","16.66036036036078","640","356","j","true","nonmatch","img/diamond.png","坏她","好她","prac_ALT2_moral","practice_moral","","","","","","","","",""
"null","<span style='color:GreenYellow; font-size: 70px;'>正确! </span>","null","html-keyboard-response","49","324792","0.0-8.0-0.0-1.0-0.0-1.19","5","5","6","4","2","4","2","4","4","4","5","0","-2","1","0","0","1","0","0","4","4","5","4","3","4","4","4","2","3","4","3","4","4","3","5","4","5","4","3","6","5","3","4","2","5","1","5","5","1","4","3","6","3","3","3","5","5","5","3","4","5","2","2","2","5","3","6","6","5","6","5","6","6","2","5","2","5","3","3","796469824262905858","夏","472","Female","[""好她"",""坏她"",""好我"",""坏我""]","[""强她"",""弱她"",""强我"",""弱我""]","","","","","","","","","","","","","","","","","","","","","","","","","","","","","","feedback_test","","","","","","","","",""
"833","","f","psychophysics","50","326627","0.0-8.0-0.0-1.0-0.0-0.20","5","5","6","4","2","4","2","4","4","4","5","0","-2","1","0","0","1","0","0","4","4","5","4","3","4","4","4","2","3","4","3","4","4","3","5","4","5","4","3","6","5","3","4","2","5","1","5","5","1","4","3","6","3","3","3","5","5","5","3","4","5","2","2","2","5","3","6","6","5","6","5","6","6","2","5","2","5","3","3","796469824262905858","夏","472","Female","[""好她"",""坏她"",""好我"",""坏我""]","[""强她"",""弱她"",""强我"",""弱我""]","","","","","","","","match","","","","","","","","","","key","f","16.666972477064327","640","356","f","true","match","img/ellipse.png","坏我","坏我","prac_ALT2_moral","practice_moral","","","","","","","","",""
"null","<span style='color:GreenYellow; font-size: 70px;'>正确! </span>","null","html-keyboard-response","51","327155","0.0-8.0-0.0-1.0-0.0-1.20","5","5","6","4","2","4","2","4","4","4","5","0","-2","1","0","0","1","0","0","4","4","5","4","3","4","4","4","2","3","4","3","4","4","3","5","4","5","4","3","6","5","3","4","2","5","1","5","5","1","4","3","6","3","3","3","5","5","5","3","4","5","2","2","2","5","3","6","6","5","6","5","6","6","2","5","2","5","3","3","796469824262905858","夏","472","Female","[""好她"",""坏她"",""好我"",""坏我""]","[""强她"",""弱她"",""强我"",""弱我""]","","","","","","","","","","","","","","","","","","","","","","","","","","","","","","feedback_test","","","","","","","","",""
"585","","f","psychophysics","52","328759","0.0-8.0-0.0-1.0-0.0-0.21","5","5","6","4","2","4","2","4","4","4","5","0","-2","1","0","0","1","0","0","4","4","5","4","3","4","4","4","2","3","4","3","4","4","3","5","4","5","4","3","6","5","3","4","2","5","1","5","5","1","4","3","6","3","3","3","5","5","5","3","4","5","2","2","2","5","3","6","6","5","6","5","6","6","2","5","2","5","3","3","796469824262905858","夏","472","Female","[""好她"",""坏她"",""好我"",""坏我""]","[""强她"",""弱她"",""强我"",""弱我""]","","","","","","","","match","","","","","","","","","","key","f","16.66631578947356","640","356","f","true","match","img/hexagon.png","好我","好我","prac_ALT2_moral","practice_moral","","","","","","","","",""
"null","<span style='color:GreenYellow; font-size: 70px;'>正确! </span>","null","html-keyboard-response","53","329261","0.0-8.0-0.0-1.0-0.0-1.21","5","5","6","4","2","4","2","4","4","4","5","0","-2","1","0","0","1","0","0","4","4","5","4","3","4","4","4","2","3","4","3","4","4","3","5","4","5","4","3","6","5","3","4","2","5","1","5","5","1","4","3","6","3","3","3","5","5","5","3","4","5","2","2","2","5","3","6","6","5","6","5","6","6","2","5","2","5","3","3","796469824262905858","夏","472","Female","[""好她"",""坏她"",""好我"",""坏我""]","[""强她"",""弱她"",""强我"",""弱我""]","","","","","","","","","","","","","","","","","","","","","","","","","","","","","","feedback_test","","","","","","","","",""
"596","","j","psychophysics","54","330859","0.0-8.0-0.0-1.0-0.0-0.22","5","5","6","4","2","4","2","4","4","4","5","0","-2","1","0","0","1","0","0","4","4","5","4","3","4","4","4","2","3","4","3","4","4","3","5","4","5","4","3","6","5","3","4","2","5","1","5","5","1","4","3","6","3","3","3","5","5","5","3","4","5","2","2","2","5","3","6","6","5","6","5","6","6","2","5","2","5","3","3","796469824262905858","夏","472","Female","[""好她"",""坏她"",""好我"",""坏我""]","[""强她"",""弱她"",""强我"",""弱我""]","","","","","","","","nonmatch","","","","","","","","","","key","j","16.66842105263158","640","356","j","true","nonmatch","img/hexagon.png","坏她","好我","prac_ALT2_moral","practice_moral","","","","","","","","",""
"null","<span style='color:GreenYellow; font-size: 70px;'>正确! </span>","null","html-keyboard-response","55","331361","0.0-8.0-0.0-1.0-0.0-1.22","5","5","6","4","2","4","2","4","4","4","5","0","-2","1","0","0","1","0","0","4","4","5","4","3","4","4","4","2","3","4","3","4","4","3","5","4","5","4","3","6","5","3","4","2","5","1","5","5","1","4","3","6","3","3","3","5","5","5","3","4","5","2","2","2","5","3","6","6","5","6","5","6","6","2","5","2","5","3","3","796469824262905858","夏","472","Female","[""好她"",""坏她"",""好我"",""坏我""]","[""强她"",""弱她"",""强我"",""弱我""]","","","","","","","","","","","","","","","","","","","","","","","","","","","","","","feedback_test","","","","","","","","",""
"676","","f","psychophysics","56","333040","0.0-8.0-0.0-1.0-0.0-0.23","5","5","6","4","2","4","2","4","4","4","5","0","-2","1","0","0","1","0","0","4","4","5","4","3","4","4","4","2","3","4","3","4","4","3","5","4","5","4","3","6","5","3","4","2","5","1","5","5","1","4","3","6","3","3","3","5","5","5","3","4","5","2","2","2","5","3","6","6","5","6","5","6","6","2","5","2","5","3","3","796469824262905858","夏","472","Female","[""好她"",""坏她"",""好我"",""坏我""]","[""强她"",""弱她"",""强我"",""弱我""]","","","","","","","","match","","","","","","","","","","key","f","16.665999999999766","640","356","f","true","match","img/ellipse.png","坏我","坏我","prac_ALT2_moral","practice_moral","","","","","","","","",""
"null","<span style='color:GreenYellow; font-size: 70px;'>正确! </span>","null","html-keyboard-response","57","333542","0.0-8.0-0.0-1.0-0.0-1.23","5","5","6","4","2","4","2","4","4","4","5","0","-2","1","0","0","1","0","0","4","4","5","4","3","4","4","4","2","3","4","3","4","4","3","5","4","5","4","3","6","5","3","4","2","5","1","5","5","1","4","3","6","3","3","3","5","5","5","3","4","5","2","2","2","5","3","6","6","5","6","5","6","6","2","5","2","5","3","3","796469824262905858","夏","472","Female","[""好她"",""坏她"",""好我"",""坏我""]","[""强她"",""弱她"",""强我"",""弱我""]","","","","","","","","","","","","","","","","","","","","","","","","","","","","","","feedback_test","","","","","","","","",""
"726","","j","psychophysics","58","335291","0.0-8.0-0.0-1.0-0.0-0.24","5","5","6","4","2","4","2","4","4","4","5","0","-2","1","0","0","1","0","0","4","4","5","4","3","4","4","4","2","3","4","3","4","4","3","5","4","5","4","3","6","5","3","4","2","5","1","5","5","1","4","3","6","3","3","3","5","5","5","3","4","5","2","2","2","5","3","6","6","5","6","5","6","6","2","5","2","5","3","3","796469824262905858","夏","472","Female","[""好她"",""坏她"",""好我"",""坏我""]","[""强她"",""弱她"",""强我"",""弱我""]","","","","","","","","nonmatch","","","","","","","","","","key","j","16.66826923076923","640","356","j","true","nonmatch","img/trapezoid.png","好我","坏她","prac_ALT2_moral","practice_moral","","","","","","","","",""
"null","<span style='color:GreenYellow; font-size: 70px;'>正确! </span>","null","html-keyboard-response","59","335794","0.0-8.0-0.0-1.0-0.0-1.24","5","5","6","4","2","4","2","4","4","4","5","0","-2","1","0","0","1","0","0","4","4","5","4","3","4","4","4","2","3","4","3","4","4","3","5","4","5","4","3","6","5","3","4","2","5","1","5","5","1","4","3","6","3","3","3","5","5","5","3","4","5","2","2","2","5","3","6","6","5","6","5","6","6","2","5","2","5","3","3","796469824262905858","夏","472","Female","[""好她"",""坏她"",""好我"",""坏我""]","[""强她"",""弱她"",""强我"",""弱我""]","","","","","","","","","","","","","","","","","","","","","","","","","","","","","","feedback_test","","","","","","","","",""
"741","","f","psychophysics","60","337536","0.0-8.0-0.0-1.0-0.0-0.25","5","5","6","4","2","4","2","4","4","4","5","0","-2","1","0","0","1","0","0","4","4","5","4","3","4","4","4","2","3","4","3","4","4","3","5","4","5","4","3","6","5","3","4","2","5","1","5","5","1","4","3","6","3","3","3","5","5","5","3","4","5","2","2","2","5","3","6","6","5","6","5","6","6","2","5","2","5","3","3","796469824262905858","夏","472","Female","[""好她"",""坏她"",""好我"",""坏我""]","[""强她"",""弱她"",""强我"",""弱我""]","","","","","","","","match","","","","","","","","","","key","f","16.66601941747607","640","356","f","true","match","img/trapezoid.png","坏她","坏她","prac_ALT2_moral","practice_moral","","","","","","","","",""
"null","<span style='color:GreenYellow; font-size: 70px;'>正确! </span>","null","html-keyboard-response","61","338037","0.0-8.0-0.0-1.0-0.0-1.25","5","5","6","4","2","4","2","4","4","4","5","0","-2","1","0","0","1","0","0","4","4","5","4","3","4","4","4","2","3","4","3","4","4","3","5","4","5","4","3","6","5","3","4","2","5","1","5","5","1","4","3","6","3","3","3","5","5","5","3","4","5","2","2","2","5","3","6","6","5","6","5","6","6","2","5","2","5","3","3","796469824262905858","夏","472","Female","[""好她"",""坏她"",""好我"",""坏我""]","[""强她"",""弱她"",""强我"",""弱我""]","","","","","","","","","","","","","","","","","","","","","","","","","","","","","","feedback_test","","","","","","","","",""
"884","","j","psychophysics","62","339925","0.0-8.0-0.0-1.0-0.0-0.26","5","5","6","4","2","4","2","4","4","4","5","0","-2","1","0","0","1","0","0","4","4","5","4","3","4","4","4","2","3","4","3","4","4","3","5","4","5","4","3","6","5","3","4","2","5","1","5","5","1","4","3","6","3","3","3","5","5","5","3","4","5","2","2","2","5","3","6","6","5","6","5","6","6","2","5","2","5","3","3","796469824262905858","夏","472","Female","[""好她"",""坏她"",""好我"",""坏我""]","[""强她"",""弱她"",""强我"",""弱我""]","","","","","","","","nonmatch","","","","","","","","","","key","j","16.66696428571439","640","356","f","false","match","img/diamond.png","好她","好她","prac_ALT2_moral","practice_moral","","","","","","","","",""
"null","<span style='color:red; font-size: 70px;'>错误! </span>","null","html-keyboard-response","63","340444","0.0-8.0-0.0-1.0-0.0-1.26","5","5","6","4","2","4","2","4","4","4","5","0","-2","1","0","0","1","0","0","4","4","5","4","3","4","4","4","2","3","4","3","4","4","3","5","4","5","4","3","6","5","3","4","2","5","1","5","5","1","4","3","6","3","3","3","5","5","5","3","4","5","2","2","2","5","3","6","6","5","6","5","6","6","2","5","2","5","3","3","796469824262905858","夏","472","Female","[""好她"",""坏她"",""好我"",""坏我""]","[""强她"",""弱她"",""强我"",""弱我""]","","","","","","","","","","","","","","","","","","","","","","","","","","","","","","feedback_test","","","","","","","","",""
"538","","f","psychophysics","64","342003","0.0-8.0-0.0-1.0-0.0-0.27","5","5","6","4","2","4","2","4","4","4","5","0","-2","1","0","0","1","0","0","4","4","5","4","3","4","4","4","2","3","4","3","4","4","3","5","4","5","4","3","6","5","3","4","2","5","1","5","5","1","4","3","6","3","3","3","5","5","5","3","4","5","2","2","2","5","3","6","6","5","6","5","6","6","2","5","2","5","3","3","796469824262905858","夏","472","Female","[""好她"",""坏她"",""好我"",""坏我""]","[""强她"",""弱她"",""强我"",""弱我""]","","","","","","","","match","","","","","","","","","","key","f","16.66739130434808","640","356","f","true","match","img/hexagon.png","好我","好我","prac_ALT2_moral","practice_moral","","","","","","","","",""
"null","<span style='color:GreenYellow; font-size: 70px;'>正确! </span>","null","html-keyboard-response","65","342504","0.0-8.0-0.0-1.0-0.0-1.27","5","5","6","4","2","4","2","4","4","4","5","0","-2","1","0","0","1","0","0","4","4","5","4","3","4","4","4","2","3","4","3","4","4","3","5","4","5","4","3","6","5","3","4","2","5","1","5","5","1","4","3","6","3","3","3","5","5","5","3","4","5","2","2","2","5","3","6","6","5","6","5","6","6","2","5","2","5","3","3","796469824262905858","夏","472","Female","[""好她"",""坏她"",""好我"",""坏我""]","[""强她"",""弱她"",""强我"",""弱我""]","","","","","","","","","","","","","","","","","","","","","","","","","","","","","","feedback_test","","","","","","","","",""
"600","","j","psychophysics","66","344108","0.0-8.0-0.0-1.0-0.0-0.28","5","5","6","4","2","4","2","4","4","4","5","0","-2","1","0","0","1","0","0","4","4","5","4","3","4","4","4","2","3","4","3","4","4","3","5","4","5","4","3","6","5","3","4","2","5","1","5","5","1","4","3","6","3","3","3","5","5","5","3","4","5","2","2","2","5","3","6","6","5","6","5","6","6","2","5","2","5","3","3","796469824262905858","夏","472","Female","[""好她"",""坏她"",""好我"",""坏我""]","[""强她"",""弱她"",""强我"",""弱我""]","","","","","","","","nonmatch","","","","","","","","","","key","j","16.66526315789425","640","356","j","true","nonmatch","img/hexagon.png","好她","好我","prac_ALT2_moral","practice_moral","","","","","","","","",""
"null","<span style='color:GreenYellow; font-size: 70px;'>正确! </span>","null","html-keyboard-response","67","344610","0.0-8.0-0.0-1.0-0.0-1.28","5","5","6","4","2","4","2","4","4","4","5","0","-2","1","0","0","1","0","0","4","4","5","4","3","4","4","4","2","3","4","3","4","4","3","5","4","5","4","3","6","5","3","4","2","5","1","5","5","1","4","3","6","3","3","3","5","5","5","3","4","5","2","2","2","5","3","6","6","5","6","5","6","6","2","5","2","5","3","3","796469824262905858","夏","472","Female","[""好她"",""坏她"",""好我"",""坏我""]","[""强她"",""弱她"",""强我"",""弱我""]","","","","","","","","","","","","","","","","","","","","","","","","","","","","","","feedback_test","","","","","","","","",""
"599","","j","psychophysics","68","346211","0.0-8.0-0.0-1.0-0.0-0.29","5","5","6","4","2","4","2","4","4","4","5","0","-2","1","0","0","1","0","0","4","4","5","4","3","4","4","4","2","3","4","3","4","4","3","5","4","5","4","3","6","5","3","4","2","5","1","5","5","1","4","3","6","3","3","3","5","5","5","3","4","5","2","2","2","5","3","6","6","5","6","5","6","6","2","5","2","5","3","3","796469824262905858","夏","472","Female","[""好她"",""坏她"",""好我"",""坏我""]","[""强她"",""弱她"",""强我"",""弱我""]","","","","","","","","nonmatch","","","","","","","","","","key","j","16.66842105263158","640","356","j","true","nonmatch","img/ellipse.png","好她","坏我","prac_ALT2_moral","practice_moral","","","","","","","","",""
"null","<span style='color:GreenYellow; font-size: 70px;'>正确! </span>","null","html-keyboard-response","69","346712","0.0-8.0-0.0-1.0-0.0-1.29","5","5","6","4","2","4","2","4","4","4","5","0","-2","1","0","0","1","0","0","4","4","5","4","3","4","4","4","2","3","4","3","4","4","3","5","4","5","4","3","6","5","3","4","2","5","1","5","5","1","4","3","6","3","3","3","5","5","5","3","4","5","2","2","2","5","3","6","6","5","6","5","6","6","2","5","2","5","3","3","796469824262905858","夏","472","Female","[""好她"",""坏她"",""好我"",""坏我""]","[""强她"",""弱她"",""强我"",""弱我""]","","","","","","","","","","","","","","","","","","","","","","","","","","","","","","feedback_test","","","","","","","","",""
"680","","f","psychophysics","70","348415","0.0-8.0-0.0-1.0-0.0-0.30","5","5","6","4","2","4","2","4","4","4","5","0","-2","1","0","0","1","0","0","4","4","5","4","3","4","4","4","2","3","4","3","4","4","3","5","4","5","4","3","6","5","3","4","2","5","1","5","5","1","4","3","6","3","3","3","5","5","5","3","4","5","2","2","2","5","3","6","6","5","6","5","6","6","2","5","2","5","3","3","796469824262905858","夏","472","Female","[""好她"",""坏她"",""好我"",""坏我""]","[""强她"",""弱她"",""强我"",""弱我""]","","","","","","","","match","","","","","","","","","","key","f","16.662376237623416","640","356","f","true","match","img/diamond.png","好她","好她","prac_ALT2_moral","practice_moral","","","","","","","","",""
"null","<span style='color:GreenYellow; font-size: 70px;'>正确! </span>","null","html-keyboard-response","71","348916","0.0-8.0-0.0-1.0-0.0-1.30","5","5","6","4","2","4","2","4","4","4","5","0","-2","1","0","0","1","0","0","4","4","5","4","3","4","4","4","2","3","4","3","4","4","3","5","4","5","4","3","6","5","3","4","2","5","1","5","5","1","4","3","6","3","3","3","5","5","5","3","4","5","2","2","2","5","3","6","6","5","6","5","6","6","2","5","2","5","3","3","796469824262905858","夏","472","Female","[""好她"",""坏她"",""好我"",""坏我""]","[""强她"",""弱她"",""强我"",""弱我""]","","","","","","","","","","","","","","","","","","","","","","","","","","","","","","feedback_test","","","","","","","","",""
"588","","f","psychophysics","72","350506","0.0-8.0-0.0-1.0-0.0-0.31","5","5","6","4","2","4","2","4","4","4","5","0","-2","1","0","0","1","0","0","4","4","5","4","3","4","4","4","2","3","4","3","4","4","3","5","4","5","4","3","6","5","3","4","2","5","1","5","5","1","4","3","6","3","3","3","5","5","5","3","4","5","2","2","2","5","3","6","6","5","6","5","6","6","2","5","2","5","3","3","796469824262905858","夏","472","Female","[""好她"",""坏她"",""好我"",""坏我""]","[""强她"",""弱她"",""强我"",""弱我""]","","","","","","","","match","","","","","","","","","","key","f","16.66631578947356","640","356","f","true","match","img/ellipse.png","坏我","坏我","prac_ALT2_moral","practice_moral","","","","","","","","",""
"null","<span style='color:GreenYellow; font-size: 70px;'>正确! </span>","null","html-keyboard-response","73","351008","0.0-8.0-0.0-1.0-0.0-1.31","5","5","6","4","2","4","2","4","4","4","5","0","-2","1","0","0","1","0","0","4","4","5","4","3","4","4","4","2","3","4","3","4","4","3","5","4","5","4","3","6","5","3","4","2","5","1","5","5","1","4","3","6","3","3","3","5","5","5","3","4","5","2","2","2","5","3","6","6","5","6","5","6","6","2","5","2","5","3","3","796469824262905858","夏","472","Female","[""好她"",""坏她"",""好我"",""坏我""]","[""强她"",""弱她"",""强我"",""弱我""]","","","","","","","","","","","","","","","","","","","","","","","","","","","","","","feedback_test","","","","","","","","",""
"763","","f","psychophysics","74","352775","0.0-8.0-0.0-1.0-0.0-0.32","5","5","6","4","2","4","2","4","4","4","5","0","-2","1","0","0","1","0","0","4","4","5","4","3","4","4","4","2","3","4","3","4","4","3","5","4","5","4","3","6","5","3","4","2","5","1","5","5","1","4","3","6","3","3","3","5","5","5","3","4","5","2","2","2","5","3","6","6","5","6","5","6","6","2","5","2","5","3","3","796469824262905858","夏","472","Female","[""好她"",""坏她"",""好我"",""坏我""]","[""强她"",""弱她"",""强我"",""弱我""]","","","","","","","","match","","","","","","","","","","key","f","16.665714285714508","640","356","j","false","nonmatch","img/hexagon.png","坏我","好我","prac_ALT2_moral","practice_moral","","","","","","","","",""
"null","<span style='color:red; font-size: 70px;'>错误! </span>","null","html-keyboard-response","75","353281","0.0-8.0-0.0-1.0-0.0-1.32","5","5","6","4","2","4","2","4","4","4","5","0","-2","1","0","0","1","0","0","4","4","5","4","3","4","4","4","2","3","4","3","4","4","3","5","4","5","4","3","6","5","3","4","2","5","1","5","5","1","4","3","6","3","3","3","5","5","5","3","4","5","2","2","2","5","3","6","6","5","6","5","6","6","2","5","2","5","3","3","796469824262905858","夏","472","Female","[""好她"",""坏她"",""好我"",""坏我""]","[""强她"",""弱她"",""强我"",""弱我""]","","","","","","","","","","","","","","","","","","","","","","","","","","","","","","feedback_test","","","","","","","","",""
"431","","f","psychophysics","76","354735","0.0-8.0-0.0-1.0-0.0-0.33","5","5","6","4","2","4","2","4","4","4","5","0","-2","1","0","0","1","0","0","4","4","5","4","3","4","4","4","2","3","4","3","4","4","3","5","4","5","4","3","6","5","3","4","2","5","1","5","5","1","4","3","6","3","3","3","5","5","5","3","4","5","2","2","2","5","3","6","6","5","6","5","6","6","2","5","2","5","3","3","796469824262905858","夏","472","Female","[""好她"",""坏她"",""好我"",""坏我""]","[""强她"",""弱她"",""强我"",""弱我""]","","","","","","","","match","","","","","","","","","","key","f","16.666279069767306","640","356","f","true","match","img/ellipse.png","坏我","坏我","prac_ALT2_moral","practice_moral","","","","","","","","",""
"null","<span style='color:GreenYellow; font-size: 70px;'>正确! </span>","null","html-keyboard-response","77","355236","0.0-8.0-0.0-1.0-0.0-1.33","5","5","6","4","2","4","2","4","4","4","5","0","-2","1","0","0","1","0","0","4","4","5","4","3","4","4","4","2","3","4","3","4","4","3","5","4","5","4","3","6","5","3","4","2","5","1","5","5","1","4","3","6","3","3","3","5","5","5","3","4","5","2","2","2","5","3","6","6","5","6","5","6","6","2","5","2","5","3","3","796469824262905858","夏","472","Female","[""好她"",""坏她"",""好我"",""坏我""]","[""强她"",""弱她"",""强我"",""弱我""]","","","","","","","","","","","","","","","","","","","","","","","","","","","","","","feedback_test","","","","","","","","",""
"524","","f","psychophysics","78","356761","0.0-8.0-0.0-1.0-0.0-0.34","5","5","6","4","2","4","2","4","4","4","5","0","-2","1","0","0","1","0","0","4","4","5","4","3","4","4","4","2","3","4","3","4","4","3","5","4","5","4","3","6","5","3","4","2","5","1","5","5","1","4","3","6","3","3","3","5","5","5","3","4","5","2","2","2","5","3","6","6","5","6","5","6","6","2","5","2","5","3","3","796469824262905858","夏","472","Female","[""好她"",""坏她"",""好我"",""坏我""]","[""强她"",""弱她"",""强我"",""弱我""]","","","","","","","","match","","","","","","","","","","key","f","16.665555555555166","640","356","f","true","match","img/hexagon.png","好我","好我","prac_ALT2_moral","practice_moral","","","","","","","","",""
"null","<span style='color:GreenYellow; font-size: 70px;'>正确! </span>","null","html-keyboard-response","79","357263","0.0-8.0-0.0-1.0-0.0-1.34","5","5","6","4","2","4","2","4","4","4","5","0","-2","1","0","0","1","0","0","4","4","5","4","3","4","4","4","2","3","4","3","4","4","3","5","4","5","4","3","6","5","3","4","2","5","1","5","5","1","4","3","6","3","3","3","5","5","5","3","4","5","2","2","2","5","3","6","6","5","6","5","6","6","2","5","2","5","3","3","796469824262905858","夏","472","Female","[""好她"",""坏她"",""好我"",""坏我""]","[""强她"",""弱她"",""强我"",""弱我""]","","","","","","","","","","","","","","","","","","","","","","","","","","","","","","feedback_test","","","","","","","","",""
"591","","j","psychophysics","80","358856","0.0-8.0-0.0-1.0-0.0-0.35","5","5","6","4","2","4","2","4","4","4","5","0","-2","1","0","0","1","0","0","4","4","5","4","3","4","4","4","2","3","4","3","4","4","3","5","4","5","4","3","6","5","3","4","2","5","1","5","5","1","4","3","6","3","3","3","5","5","5","3","4","5","2","2","2","5","3","6","6","5","6","5","6","6","2","5","2","5","3","3","796469824262905858","夏","472","Female","[""好她"",""坏她"",""好我"",""坏我""]","[""强她"",""弱她"",""强我"",""弱我""]","","","","","","","","nonmatch","","","","","","","","","","key","j","16.66631578947356","640","356","j","true","nonmatch","img/hexagon.png","坏她","好我","prac_ALT2_moral","practice_moral","","","","","","","","",""
"null","<span style='color:GreenYellow; font-size: 70px;'>正确! </span>","null","html-keyboard-response","81","359357","0.0-8.0-0.0-1.0-0.0-1.35","5","5","6","4","2","4","2","4","4","4","5","0","-2","1","0","0","1","0","0","4","4","5","4","3","4","4","4","2","3","4","3","4","4","3","5","4","5","4","3","6","5","3","4","2","5","1","5","5","1","4","3","6","3","3","3","5","5","5","3","4","5","2","2","2","5","3","6","6","5","6","5","6","6","2","5","2","5","3","3","796469824262905858","夏","472","Female","[""好她"",""坏她"",""好我"",""坏我""]","[""强她"",""弱她"",""强我"",""弱我""]","","","","","","","","","","","","","","","","","","","","","","","","","","","","","","feedback_test","","","","","","","","",""
"564","","f","psychophysics","82","360929","0.0-8.0-0.0-1.0-0.0-0.36","5","5","6","4","2","4","2","4","4","4","5","0","-2","1","0","0","1","0","0","4","4","5","4","3","4","4","4","2","3","4","3","4","4","3","5","4","5","4","3","6","5","3","4","2","5","1","5","5","1","4","3","6","3","3","3","5","5","5","3","4","5","2","2","2","5","3","6","6","5","6","5","6","6","2","5","2","5","3","3","796469824262905858","夏","472","Female","[""好她"",""坏她"",""好我"",""坏我""]","[""强她"",""弱她"",""强我"",""弱我""]","","","","","","","","match","","","","","","","","","","key","f","16.666666666666668","640","356","f","true","match","img/diamond.png","好她","好她","prac_ALT2_moral","practice_moral","","","","","","","","",""
"null","<span style='color:GreenYellow; font-size: 70px;'>正确! </span>","null","html-keyboard-response","83","361432","0.0-8.0-0.0-1.0-0.0-1.36","5","5","6","4","2","4","2","4","4","4","5","0","-2","1","0","0","1","0","0","4","4","5","4","3","4","4","4","2","3","4","3","4","4","3","5","4","5","4","3","6","5","3","4","2","5","1","5","5","1","4","3","6","3","3","3","5","5","5","3","4","5","2","2","2","5","3","6","6","5","6","5","6","6","2","5","2","5","3","3","796469824262905858","夏","472","Female","[""好她"",""坏她"",""好我"",""坏我""]","[""强她"",""弱她"",""强我"",""弱我""]","","","","","","","","","","","","","","","","","","","","","","","","","","","","","","feedback_test","","","","","","","","",""
"640","","f","psychophysics","84","363075","0.0-8.0-0.0-1.0-0.0-0.37","5","5","6","4","2","4","2","4","4","4","5","0","-2","1","0","0","1","0","0","4","4","5","4","3","4","4","4","2","3","4","3","4","4","3","5","4","5","4","3","6","5","3","4","2","5","1","5","5","1","4","3","6","3","3","3","5","5","5","3","4","5","2","2","2","5","3","6","6","5","6","5","6","6","2","5","2","5","3","3","796469824262905858","夏","472","Female","[""好她"",""坏她"",""好我"",""坏我""]","[""强她"",""弱她"",""强我"",""弱我""]","","","","","","","","match","","","","","","","","","","key","f","16.664285714285477","640","356","j","false","nonmatch","img/trapezoid.png","好她","坏她","prac_ALT2_moral","practice_moral","","","","","","","","",""
"null","<span style='color:red; font-size: 70px;'>错误! </span>","null","html-keyboard-response","85","363575","0.0-8.0-0.0-1.0-0.0-1.37","5","5","6","4","2","4","2","4","4","4","5","0","-2","1","0","0","1","0","0","4","4","5","4","3","4","4","4","2","3","4","3","4","4","3","5","4","5","4","3","6","5","3","4","2","5","1","5","5","1","4","3","6","3","3","3","5","5","5","3","4","5","2","2","2","5","3","6","6","5","6","5","6","6","2","5","2","5","3","3","796469824262905858","夏","472","Female","[""好她"",""坏她"",""好我"",""坏我""]","[""强她"",""弱她"",""强我"",""弱我""]","","","","","","","","","","","","","","","","","","","","","","","","","","","","","","feedback_test","","","","","","","","",""
"587","","f","psychophysics","86","365164","0.0-8.0-0.0-1.0-0.0-0.38","5","5","6","4","2","4","2","4","4","4","5","0","-2","1","0","0","1","0","0","4","4","5","4","3","4","4","4","2","3","4","3","4","4","3","5","4","5","4","3","6","5","3","4","2","5","1","5","5","1","4","3","6","3","3","3","5","5","5","3","4","5","2","2","2","5","3","6","6","5","6","5","6","6","2","5","2","5","3","3","796469824262905858","夏","472","Female","[""好她"",""坏她"",""好我"",""坏我""]","[""强她"",""弱她"",""强我"",""弱我""]","","","","","","","","match","","","","","","","","","","key","f","16.66702127659525","640","356","j","false","nonmatch","img/diamond.png","坏我","好她","prac_ALT2_moral","practice_moral","","","","","","","","",""
"null","<span style='color:red; font-size: 70px;'>错误! </span>","null","html-keyboard-response","87","365665","0.0-8.0-0.0-1.0-0.0-1.38","5","5","6","4","2","4","2","4","4","4","5","0","-2","1","0","0","1","0","0","4","4","5","4","3","4","4","4","2","3","4","3","4","4","3","5","4","5","4","3","6","5","3","4","2","5","1","5","5","1","4","3","6","3","3","3","5","5","5","3","4","5","2","2","2","5","3","6","6","5","6","5","6","6","2","5","2","5","3","3","796469824262905858","夏","472","Female","[""好她"",""坏她"",""好我"",""坏我""]","[""强她"",""弱她"",""强我"",""弱我""]","","","","","","","","","","","","","","","","","","","","","","","","","","","","","","feedback_test","","","","","","","","",""
"616","","f","psychophysics","88","367311","0.0-8.0-0.0-1.0-0.0-0.39","5","5","6","4","2","4","2","4","4","4","5","0","-2","1","0","0","1","0","0","4","4","5","4","3","4","4","4","2","3","4","3","4","4","3","5","4","5","4","3","6","5","3","4","2","5","1","5","5","1","4","3","6","3","3","3","5","5","5","3","4","5","2","2","2","5","3","6","6","5","6","5","6","6","2","5","2","5","3","3","796469824262905858","夏","472","Female","[""好她"",""坏她"",""好我"",""坏我""]","[""强她"",""弱她"",""强我"",""弱我""]","","","","","","","","match","","","","","","","","","","key","f","16.667346938775154","640","356","f","true","match","img/trapezoid.png","坏她","坏她","prac_ALT2_moral","practice_moral","","","","","","","","",""
"null","<span style='color:GreenYellow; font-size: 70px;'>正确! </span>","null","html-keyboard-response","89","367813","0.0-8.0-0.0-1.0-0.0-1.39","5","5","6","4","2","4","2","4","4","4","5","0","-2","1","0","0","1","0","0","4","4","5","4","3","4","4","4","2","3","4","3","4","4","3","5","4","5","4","3","6","5","3","4","2","5","1","5","5","1","4","3","6","3","3","3","5","5","5","3","4","5","2","2","2","5","3","6","6","5","6","5","6","6","2","5","2","5","3","3","796469824262905858","夏","472","Female","[""好她"",""坏她"",""好我"",""坏我""]","[""强她"",""弱她"",""强我"",""弱我""]","","","","","","","","","","","","","","","","","","","","","","","","","","","","","","feedback_test","","","","","","","","",""
"513","","f","psychophysics","90","369329","0.0-8.0-0.0-1.0-0.0-0.40","5","5","6","4","2","4","2","4","4","4","5","0","-2","1","0","0","1","0","0","4","4","5","4","3","4","4","4","2","3","4","3","4","4","3","5","4","5","4","3","6","5","3","4","2","5","1","5","5","1","4","3","6","3","3","3","5","5","5","3","4","5","2","2","2","5","3","6","6","5","6","5","6","6","2","5","2","5","3","3","796469824262905858","夏","472","Female","[""好她"",""坏她"",""好我"",""坏我""]","[""强她"",""弱她"",""强我"",""弱我""]","","","","","","","","match","","","","","","","","","","key","f","16.664444444444314","640","356","f","true","match","img/hexagon.png","好我","好我","prac_ALT2_moral","practice_moral","","","","","","","","",""
"null","<span style='color:GreenYellow; font-size: 70px;'>正确! </span>","null","html-keyboard-response","91","369836","0.0-8.0-0.0-1.0-0.0-1.40","5","5","6","4","2","4","2","4","4","4","5","0","-2","1","0","0","1","0","0","4","4","5","4","3","4","4","4","2","3","4","3","4","4","3","5","4","5","4","3","6","5","3","4","2","5","1","5","5","1","4","3","6","3","3","3","5","5","5","3","4","5","2","2","2","5","3","6","6","5","6","5","6","6","2","5","2","5","3","3","796469824262905858","夏","472","Female","[""好她"",""坏她"",""好我"",""坏我""]","[""强她"",""弱她"",""强我"",""弱我""]","","","","","","","","","","","","","","","","","","","","","","","","","","","","","","feedback_test","","","","","","","","",""
"516","","f","psychophysics","92","371355","0.0-8.0-0.0-1.0-0.0-0.41","5","5","6","4","2","4","2","4","4","4","5","0","-2","1","0","0","1","0","0","4","4","5","4","3","4","4","4","2","3","4","3","4","4","3","5","4","5","4","3","6","5","3","4","2","5","1","5","5","1","4","3","6","3","3","3","5","5","5","3","4","5","2","2","2","5","3","6","6","5","6","5","6","6","2","5","2","5","3","3","796469824262905858","夏","472","Female","[""好她"",""坏她"",""好我"",""坏我""]","[""强她"",""弱她"",""强我"",""弱我""]","","","","","","","","match","","","","","","","","","","key","f","16.666666666666668","640","356","f","true","match","img/ellipse.png","坏我","坏我","prac_ALT2_moral","practice_moral","","","","","","","","",""
"null","<span style='color:GreenYellow; font-size: 70px;'>正确! </span>","null","html-keyboard-response","93","371856","0.0-8.0-0.0-1.0-0.0-1.41","5","5","6","4","2","4","2","4","4","4","5","0","-2","1","0","0","1","0","0","4","4","5","4","3","4","4","4","2","3","4","3","4","4","3","5","4","5","4","3","6","5","3","4","2","5","1","5","5","1","4","3","6","3","3","3","5","5","5","3","4","5","2","2","2","5","3","6","6","5","6","5","6","6","2","5","2","5","3","3","796469824262905858","夏","472","Female","[""好她"",""坏她"",""好我"",""坏我""]","[""强她"",""弱她"",""强我"",""弱我""]","","","","","","","","","","","","","","","","","","","","","","","","","","","","","","feedback_test","","","","","","","","",""
"684","","f","psychophysics","94","373558","0.0-8.0-0.0-1.0-0.0-0.42","5","5","6","4","2","4","2","4","4","4","5","0","-2","1","0","0","1","0","0","4","4","5","4","3","4","4","4","2","3","4","3","4","4","3","5","4","5","4","3","6","5","3","4","2","5","1","5","5","1","4","3","6","3","3","3","5","5","5","3","4","5","2","2","2","5","3","6","6","5","6","5","6","6","2","5","2","5","3","3","796469824262905858","夏","472","Female","[""好她"",""坏她"",""好我"",""坏我""]","[""强她"",""弱她"",""强我"",""弱我""]","","","","","","","","match","","","","","","","","","","key","f","16.666336633663253","640","356","f","true","match","img/trapezoid.png","坏她","坏她","prac_ALT2_moral","practice_moral","","","","","","","","",""
"null","<span style='color:GreenYellow; font-size: 70px;'>正确! </span>","null","html-keyboard-response","95","374059","0.0-8.0-0.0-1.0-0.0-1.42","5","5","6","4","2","4","2","4","4","4","5","0","-2","1","0","0","1","0","0","4","4","5","4","3","4","4","4","2","3","4","3","4","4","3","5","4","5","4","3","6","5","3","4","2","5","1","5","5","1","4","3","6","3","3","3","5","5","5","3","4","5","2","2","2","5","3","6","6","5","6","5","6","6","2","5","2","5","3","3","796469824262905858","夏","472","Female","[""好她"",""坏她"",""好我"",""坏我""]","[""强她"",""弱她"",""强我"",""弱我""]","","","","","","","","","","","","","","","","","","","","","","","","","","","","","","feedback_test","","","","","","","","",""
"434","","f","psychophysics","96","375496","0.0-8.0-0.0-1.0-0.0-0.43","5","5","6","4","2","4","2","4","4","4","5","0","-2","1","0","0","1","0","0","4","4","5","4","3","4","4","4","2","3","4","3","4","4","3","5","4","5","4","3","6","5","3","4","2","5","1","5","5","1","4","3","6","3","3","3","5","5","5","3","4","5","2","2","2","5","3","6","6","5","6","5","6","6","2","5","2","5","3","3","796469824262905858","夏","472","Female","[""好她"",""坏她"",""好我"",""坏我""]","[""强她"",""弱她"",""强我"",""弱我""]","","","","","","","","match","","","","","","","","","","key","f","16.667058823529548","640","356","j","false","nonmatch","img/diamond.png","坏她","好她","prac_ALT2_moral","practice_moral","","","","","","","","",""
"null","<span style='color:red; font-size: 70px;'>错误! </span>","null","html-keyboard-response","97","375999","0.0-8.0-0.0-1.0-0.0-1.43","5","5","6","4","2","4","2","4","4","4","5","0","-2","1","0","0","1","0","0","4","4","5","4","3","4","4","4","2","3","4","3","4","4","3","5","4","5","4","3","6","5","3","4","2","5","1","5","5","1","4","3","6","3","3","3","5","5","5","3","4","5","2","2","2","5","3","6","6","5","6","5","6","6","2","5","2","5","3","3","796469824262905858","夏","472","Female","[""好她"",""坏她"",""好我"",""坏我""]","[""强她"",""弱她"",""强我"",""弱我""]","","","","","","","","","","","","","","","","","","","","","","","","","","","","","","feedback_test","","","","","","","","",""
"839","","j","psychophysics","98","377841","0.0-8.0-0.0-1.0-0.0-0.44","5","5","6","4","2","4","2","4","4","4","5","0","-2","1","0","0","1","0","0","4","4","5","4","3","4","4","4","2","3","4","3","4","4","3","5","4","5","4","3","6","5","3","4","2","5","1","5","5","1","4","3","6","3","3","3","5","5","5","3","4","5","2","2","2","5","3","6","6","5","6","5","6","6","2","5","2","5","3","3","796469824262905858","夏","472","Female","[""好她"",""坏她"",""好我"",""坏我""]","[""强她"",""弱她"",""强我"",""弱我""]","","","","","","","","nonmatch","","","","","","","","","","key","j","16.66545454545465","640","356","j","true","nonmatch","img/diamond.png","好我","好她","prac_ALT2_moral","practice_moral","","","","","","","","",""
"null","<span style='color:GreenYellow; font-size: 70px;'>正确! </span>","null","html-keyboard-response","99","378343","0.0-8.0-0.0-1.0-0.0-1.44","5","5","6","4","2","4","2","4","4","4","5","0","-2","1","0","0","1","0","0","4","4","5","4","3","4","4","4","2","3","4","3","4","4","3","5","4","5","4","3","6","5","3","4","2","5","1","5","5","1","4","3","6","3","3","3","5","5","5","3","4","5","2","2","2","5","3","6","6","5","6","5","6","6","2","5","2","5","3","3","796469824262905858","夏","472","Female","[""好她"",""坏她"",""好我"",""坏我""]","[""强她"",""弱她"",""强我"",""弱我""]","","","","","","","","","","","","","","","","","","","","","","","","","","","","","","feedback_test","","","","","","","","",""
"607","","j","psychophysics","100","379961","0.0-8.0-0.0-1.0-0.0-0.45","5","5","6","4","2","4","2","4","4","4","5","0","-2","1","0","0","1","0","0","4","4","5","4","3","4","4","4","2","3","4","3","4","4","3","5","4","5","4","3","6","5","3","4","2","5","1","5","5","1","4","3","6","3","3","3","5","5","5","3","4","5","2","2","2","5","3","6","6","5","6","5","6","6","2","5","2","5","3","3","796469824262905858","夏","472","Female","[""好她"",""坏她"",""好我"",""坏我""]","[""强她"",""弱她"",""强我"",""弱我""]","","","","","","","","nonmatch","","","","","","","","","","key","j","16.665624999999636","640","356","j","true","nonmatch","img/ellipse.png","坏她","坏我","prac_ALT2_moral","practice_moral","","","","","","","","",""
"null","<span style='color:GreenYellow; font-size: 70px;'>正确! </span>","null","html-keyboard-response","101","380463","0.0-8.0-0.0-1.0-0.0-1.45","5","5","6","4","2","4","2","4","4","4","5","0","-2","1","0","0","1","0","0","4","4","5","4","3","4","4","4","2","3","4","3","4","4","3","5","4","5","4","3","6","5","3","4","2","5","1","5","5","1","4","3","6","3","3","3","5","5","5","3","4","5","2","2","2","5","3","6","6","5","6","5","6","6","2","5","2","5","3","3","796469824262905858","夏","472","Female","[""好她"",""坏她"",""好我"",""坏我""]","[""强她"",""弱她"",""强我"",""弱我""]","","","","","","","","","","","","","","","","","","","","","","","","","","","","","","feedback_test","","","","","","","","",""
"608","","f","psychophysics","102","382073","0.0-8.0-0.0-1.0-0.0-0.46","5","5","6","4","2","4","2","4","4","4","5","0","-2","1","0","0","1","0","0","4","4","5","4","3","4","4","4","2","3","4","3","4","4","3","5","4","5","4","3","6","5","3","4","2","5","1","5","5","1","4","3","6","3","3","3","5","5","5","3","4","5","2","2","2","5","3","6","6","5","6","5","6","6","2","5","2","5","3","3","796469824262905858","夏","472","Female","[""好她"",""坏她"",""好我"",""坏我""]","[""强她"",""弱她"",""强我"",""弱我""]","","","","","","","","match","","","","","","","","","","key","f","16.662499999999756","640","356","j","false","nonmatch","img/ellipse.png","好我","坏我","prac_ALT2_moral","practice_moral","","","","","","","","",""
"null","<span style='color:red; font-size: 70px;'>错误! </span>","null","html-keyboard-response","103","382574","0.0-8.0-0.0-1.0-0.0-1.46","5","5","6","4","2","4","2","4","4","4","5","0","-2","1","0","0","1","0","0","4","4","5","4","3","4","4","4","2","3","4","3","4","4","3","5","4","5","4","3","6","5","3","4","2","5","1","5","5","1","4","3","6","3","3","3","5","5","5","3","4","5","2","2","2","5","3","6","6","5","6","5","6","6","2","5","2","5","3","3","796469824262905858","夏","472","Female","[""好她"",""坏她"",""好我"",""坏我""]","[""强她"",""弱她"",""强我"",""弱我""]","","","","","","","","","","","","","","","","","","","","","","","","","","","","","","feedback_test","","","","","","","","",""
"611","","f","psychophysics","104","384187","0.0-8.0-0.0-1.0-0.0-0.47","5","5","6","4","2","4","2","4","4","4","5","0","-2","1","0","0","1","0","0","4","4","5","4","3","4","4","4","2","3","4","3","4","4","3","5","4","5","4","3","6","5","3","4","2","5","1","5","5","1","4","3","6","3","3","3","5","5","5","3","4","5","2","2","2","5","3","6","6","5","6","5","6","6","2","5","2","5","3","3","796469824262905858","夏","472","Female","[""好她"",""坏她"",""好我"",""坏我""]","[""强她"",""弱她"",""强我"",""弱我""]","","","","","","","","match","","","","","","","","","","key","f","16.65894736842142","640","356","j","false","nonmatch","img/trapezoid.png","坏我","坏她","prac_ALT2_moral","practice_moral","","","","","","","","",""
"null","<span style='color:red; font-size: 70px;'>错误! </span>","null","html-keyboard-response","105","384689","0.0-8.0-0.0-1.0-0.0-1.47","5","5","6","4","2","4","2","4","4","4","5","0","-2","1","0","0","1","0","0","4","4","5","4","3","4","4","4","2","3","4","3","4","4","3","5","4","5","4","3","6","5","3","4","2","5","1","5","5","1","4","3","6","3","3","3","5","5","5","3","4","5","2","2","2","5","3","6","6","5","6","5","6","6","2","5","2","5","3","3","796469824262905858","夏","472","Female","[""好她"",""坏她"",""好我"",""坏我""]","[""强她"",""弱她"",""强我"",""弱我""]","","","","","","","","","","","","","","","","","","","","","","","","","","","","","","feedback_test","","","","","","","","",""
"5323","<style>.context{color:white; font-size: 35px; line-height:40px}</style>                            <div><p class='context'>您正确回答了63% 的试次。</p><p class='context'>您的平均反应时为642毫秒。</p><p class='context'>恭喜您完成练习。按空格键进入正式实验。</p><p class='footer' style='font-size: 35px; line-height:40px;'>请在进入正式实验实验之前将您的<span style='color: lightgreen;'>食指</span>放在电脑键盘的相应键位上进行按键。</p>"," ","html-keyboard-response","106","390016","0.0-8.0-0.0-2.0","5","5","6","4","2","4","2","4","4","4","5","0","-2","1","0","0","1","0","0","4","4","5","4","3","4","4","4","2","3","4","3","4","4","3","5","4","5","4","3","6","5","3","4","2","5","1","5","5","1","4","3","6","3","3","3","5","5","5","3","4","5","2","2","2","5","3","6","6","5","6","5","6","6","2","5","2","5","3","3","796469824262905858","夏","472","Female","[""好她"",""坏她"",""好我"",""坏我""]","[""强她"",""弱她"",""强我"",""弱我""]","","","","","","","","","","","","","","","","","","","","","","","","","","","","","","","","","","","","","","",""
"2223","
    <p style='color: white; font-size: 22px'>请您将手指放在按键上，准备进入正式的匹配任务。</p>
    <p> <div style = ""color: green""><按空格键进入下一阶段的匹配任务></div></p>
    "," ","html-keyboard-response","107","392243","0.0-8.0-0.0-3.0","5","5","6","4","2","4","2","4","4","4","5","0","-2","1","0","0","1","0","0","4","4","5","4","3","4","4","4","2","3","4","3","4","4","3","5","4","5","4","3","6","5","3","4","2","5","1","5","5","1","4","3","6","3","3","3","5","5","5","3","4","5","2","2","2","5","3","6","6","5","6","5","6","6","2","5","2","5","3","3","796469824262905858","夏","472","Female","[""好她"",""坏她"",""好我"",""坏我""]","[""强她"",""弱她"",""强我"",""弱我""]","","","","","","","","","","","","","","","","","","","","","","","","","","","","","","","","","","","","","","",""
"779","","f","psychophysics","108","394026","0.0-8.0-0.0-4.0-0.0-0.0","5","5","6","4","2","4","2","4","4","4","5","0","-2","1","0","0","1","0","0","4","4","5","4","3","4","4","4","2","3","4","3","4","4","3","5","4","5","4","3","6","5","3","4","2","5","1","5","5","1","4","3","6","3","3","3","5","5","5","3","4","5","2","2","2","5","3","6","6","5","6","5","6","6","2","5","2","5","3","3","796469824262905858","夏","472","Female","[""好她"",""坏她"",""好我"",""坏我""]","[""强她"",""弱她"",""强我"",""弱我""]","","","","","","","","match","","","","","","","","","","key","f","16.664150943395896","640","356","f","true","match","img/trapezoid.png","坏她","坏她","ALT2","moral","","","","","","","","",""
"null","<span style='color:GreenYellow; font-size: 70px;'>正确! </span>","null","html-keyboard-response","109","394529","0.0-8.0-0.0-4.0-0.0-1.0","5","5","6","4","2","4","2","4","4","4","5","0","-2","1","0","0","1","0","0","4","4","5","4","3","4","4","4","2","3","4","3","4","4","3","5","4","5","4","3","6","5","3","4","2","5","1","5","5","1","4","3","6","3","3","3","5","5","5","3","4","5","2","2","2","5","3","6","6","5","6","5","6","6","2","5","2","5","3","3","796469824262905858","夏","472","Female","[""好她"",""坏她"",""好我"",""坏我""]","[""强她"",""弱她"",""强我"",""弱我""]","","","","","","","","","","","","","","","","","","","","","","","","","","","","","","feedback_test","","","","","","","","",""
"669","","f","psychophysics","110","396223","0.0-8.0-0.0-4.0-0.0-0.1","5","5","6","4","2","4","2","4","4","4","5","0","-2","1","0","0","1","0","0","4","4","5","4","3","4","4","4","2","3","4","3","4","4","3","5","4","5","4","3","6","5","3","4","2","5","1","5","5","1","4","3","6","3","3","3","5","5","5","3","4","5","2","2","2","5","3","6","6","5","6","5","6","6","2","5","2","5","3","3","796469824262905858","夏","472","Female","[""好她"",""坏她"",""好我"",""坏我""]","[""强她"",""弱她"",""强我"",""弱我""]","","","","","","","","match","","","","","","","","","","key","f","16.666336633663253","640","356","j","false","nonmatch","img/trapezoid.png","坏我","坏她","ALT2","moral","","","","","","","","",""
"null","<span style='color:red; font-size: 70px;'>错误! </span>","null","html-keyboard-response","111","396724","0.0-8.0-0.0-4.0-0.0-1.1","5","5","6","4","2","4","2","4","4","4","5","0","-2","1","0","0","1","0","0","4","4","5","4","3","4","4","4","2","3","4","3","4","4","3","5","4","5","4","3","6","5","3","4","2","5","1","5","5","1","4","3","6","3","3","3","5","5","5","3","4","5","2","2","2","5","3","6","6","5","6","5","6","6","2","5","2","5","3","3","796469824262905858","夏","472","Female","[""好她"",""坏她"",""好我"",""坏我""]","[""强她"",""弱她"",""强我"",""弱我""]","","","","","","","","","","","","","","","","","","","","","","","","","","","","","","feedback_test","","","","","","","","",""
"610","","f","psychophysics","112","398337","0.0-8.0-0.0-4.0-0.0-0.2","5","5","6","4","2","4","2","4","4","4","5","0","-2","1","0","0","1","0","0","4","4","5","4","3","4","4","4","2","3","4","3","4","4","3","5","4","5","4","3","6","5","3","4","2","5","1","5","5","1","4","3","6","3","3","3","5","5","5","3","4","5","2","2","2","5","3","6","6","5","6","5","6","6","2","5","2","5","3","3","796469824262905858","夏","472","Female","[""好她"",""坏她"",""好我"",""坏我""]","[""强她"",""弱她"",""强我"",""弱我""]","","","","","","","","match","","","","","","","","","","key","f","16.667368421052878","640","356","j","false","nonmatch","img/hexagon.png","坏我","好我","ALT2","moral","","","","","","","","",""
"null","<span style='color:red; font-size: 70px;'>错误! </span>","null","html-keyboard-response","113","398839","0.0-8.0-0.0-4.0-0.0-1.2","5","5","6","4","2","4","2","4","4","4","5","0","-2","1","0","0","1","0","0","4","4","5","4","3","4","4","4","2","3","4","3","4","4","3","5","4","5","4","3","6","5","3","4","2","5","1","5","5","1","4","3","6","3","3","3","5","5","5","3","4","5","2","2","2","5","3","6","6","5","6","5","6","6","2","5","2","5","3","3","796469824262905858","夏","472","Female","[""好她"",""坏她"",""好我"",""坏我""]","[""强她"",""弱她"",""强我"",""弱我""]","","","","","","","","","","","","","","","","","","","","","","","","","","","","","","feedback_test","","","","","","","","",""
"574","","f","psychophysics","114","400414","0.0-8.0-0.0-4.0-0.0-0.3","5","5","6","4","2","4","2","4","4","4","5","0","-2","1","0","0","1","0","0","4","4","5","4","3","4","4","4","2","3","4","3","4","4","3","5","4","5","4","3","6","5","3","4","2","5","1","5","5","1","4","3","6","3","3","3","5","5","5","3","4","5","2","2","2","5","3","6","6","5","6","5","6","6","2","5","2","5","3","3","796469824262905858","夏","472","Female","[""好她"",""坏她"",""好我"",""坏我""]","[""强她"",""弱她"",""强我"",""弱我""]","","","","","","","","match","","","","","","","","","","key","f","16.664516129032133","640","356","f","true","match","img/ellipse.png","坏我","坏我","ALT2","moral","","","","","","","","",""
"null","<span style='color:GreenYellow; font-size: 70px;'>正确! </span>","null","html-keyboard-response","115","400915","0.0-8.0-0.0-4.0-0.0-1.3","5","5","6","4","2","4","2","4","4","4","5","0","-2","1","0","0","1","0","0","4","4","5","4","3","4","4","4","2","3","4","3","4","4","3","5","4","5","4","3","6","5","3","4","2","5","1","5","5","1","4","3","6","3","3","3","5","5","5","3","4","5","2","2","2","5","3","6","6","5","6","5","6","6","2","5","2","5","3","3","796469824262905858","夏","472","Female","[""好她"",""坏她"",""好我"",""坏我""]","[""强她"",""弱她"",""强我"",""弱我""]","","","","","","","","","","","","","","","","","","","","","","","","","","","","","","feedback_test","","","","","","","","",""
"539","","f","psychophysics","116","402483","0.0-8.0-0.0-4.0-0.0-0.4","5","5","6","4","2","4","2","4","4","4","5","0","-2","1","0","0","1","0","0","4","4","5","4","3","4","4","4","2","3","4","3","4","4","3","5","4","5","4","3","6","5","3","4","2","5","1","5","5","1","4","3","6","3","3","3","5","5","5","3","4","5","2","2","2","5","3","6","6","5","6","5","6","6","2","5","2","5","3","3","796469824262905858","夏","472","Female","[""好她"",""坏她"",""好我"",""坏我""]","[""强她"",""弱她"",""强我"",""弱我""]","","","","","","","","match","","","","","","","","","","key","f","16.666666666666668","640","356","j","false","nonmatch","img/diamond.png","坏她","好她","ALT2","moral","","","","","","","","",""
"null","<span style='color:red; font-size: 70px;'>错误! </span>","null","html-keyboard-response","117","402984","0.0-8.0-0.0-4.0-0.0-1.4","5","5","6","4","2","4","2","4","4","4","5","0","-2","1","0","0","1","0","0","4","4","5","4","3","4","4","4","2","3","4","3","4","4","3","5","4","5","4","3","6","5","3","4","2","5","1","5","5","1","4","3","6","3","3","3","5","5","5","3","4","5","2","2","2","5","3","6","6","5","6","5","6","6","2","5","2","5","3","3","796469824262905858","夏","472","Female","[""好她"",""坏她"",""好我"",""坏我""]","[""强她"",""弱她"",""强我"",""弱我""]","","","","","","","","","","","","","","","","","","","","","","","","","","","","","","feedback_test","","","","","","","","",""
"777","","f","psychophysics","118","404764","0.0-8.0-0.0-4.0-0.0-0.5","5","5","6","4","2","4","2","4","4","4","5","0","-2","1","0","0","1","0","0","4","4","5","4","3","4","4","4","2","3","4","3","4","4","3","5","4","5","4","3","6","5","3","4","2","5","1","5","5","1","4","3","6","3","3","3","5","5","5","3","4","5","2","2","2","5","3","6","6","5","6","5","6","6","2","5","2","5","3","3","796469824262905858","夏","472","Female","[""好她"",""坏她"",""好我"",""坏我""]","[""强她"",""弱她"",""强我"",""弱我""]","","","","","","","","match","","","","","","","","","","key","f","16.666037735848835","640","356","j","false","nonmatch","img/hexagon.png","坏她","好我","ALT2","moral","","","","","","","","",""
"null","<span style='color:red; font-size: 70px;'>错误! </span>","null","html-keyboard-response","119","405265","0.0-8.0-0.0-4.0-0.0-1.5","5","5","6","4","2","4","2","4","4","4","5","0","-2","1","0","0","1","0","0","4","4","5","4","3","4","4","4","2","3","4","3","4","4","3","5","4","5","4","3","6","5","3","4","2","5","1","5","5","1","4","3","6","3","3","3","5","5","5","3","4","5","2","2","2","5","3","6","6","5","6","5","6","6","2","5","2","5","3","3","796469824262905858","夏","472","Female","[""好她"",""坏她"",""好我"",""坏我""]","[""强她"",""弱她"",""强我"",""弱我""]","","","","","","","","","","","","","","","","","","","","","","","","","","","","","","feedback_test","","","","","","","","",""
"695","","f","psychophysics","120","406963","0.0-8.0-0.0-4.0-0.0-0.6","5","5","6","4","2","4","2","4","4","4","5","0","-2","1","0","0","1","0","0","4","4","5","4","3","4","4","4","2","3","4","3","4","4","3","5","4","5","4","3","6","5","3","4","2","5","1","5","5","1","4","3","6","3","3","3","5","5","5","3","4","5","2","2","2","5","3","6","6","5","6","5","6","6","2","5","2","5","3","3","796469824262905858","夏","472","Female","[""好她"",""坏她"",""好我"",""坏我""]","[""强她"",""弱她"",""强我"",""弱我""]","","","","","","","","match","","","","","","","","","","key","f","16.66534653465358","640","356","f","true","match","img/trapezoid.png","坏她","坏她","ALT2","moral","","","","","","","","",""
"null","<span style='color:GreenYellow; font-size: 70px;'>正确! </span>","null","html-keyboard-response","121","407464","0.0-8.0-0.0-4.0-0.0-1.6","5","5","6","4","2","4","2","4","4","4","5","0","-2","1","0","0","1","0","0","4","4","5","4","3","4","4","4","2","3","4","3","4","4","3","5","4","5","4","3","6","5","3","4","2","5","1","5","5","1","4","3","6","3","3","3","5","5","5","3","4","5","2","2","2","5","3","6","6","5","6","5","6","6","2","5","2","5","3","3","796469824262905858","夏","472","Female","[""好她"",""坏她"",""好我"",""坏我""]","[""强她"",""弱她"",""强我"",""弱我""]","","","","","","","","","","","","","","","","","","","","","","","","","","","","","","feedback_test","","","","","","","","",""
"647","","j","psychophysics","122","409130","0.0-8.0-0.0-4.0-0.0-0.7","5","5","6","4","2","4","2","4","4","4","5","0","-2","1","0","0","1","0","0","4","4","5","4","3","4","4","4","2","3","4","3","4","4","3","5","4","5","4","3","6","5","3","4","2","5","1","5","5","1","4","3","6","3","3","3","5","5","5","3","4","5","2","2","2","5","3","6","6","5","6","5","6","6","2","5","2","5","3","3","796469824262905858","夏","472","Female","[""好她"",""坏她"",""好我"",""坏我""]","[""强她"",""弱她"",""强我"",""弱我""]","","","","","","","","nonmatch","","","","","","","","","","key","j","16.665656565656214","640","356","j","true","nonmatch","img/diamond.png","坏我","好她","ALT2","moral","","","","","","","","",""
"null","<span style='color:GreenYellow; font-size: 70px;'>正确! </span>","null","html-keyboard-response","123","409632","0.0-8.0-0.0-4.0-0.0-1.7","5","5","6","4","2","4","2","4","4","4","5","0","-2","1","0","0","1","0","0","4","4","5","4","3","4","4","4","2","3","4","3","4","4","3","5","4","5","4","3","6","5","3","4","2","5","1","5","5","1","4","3","6","3","3","3","5","5","5","3","4","5","2","2","2","5","3","6","6","5","6","5","6","6","2","5","2","5","3","3","796469824262905858","夏","472","Female","[""好她"",""坏她"",""好我"",""坏我""]","[""强她"",""弱她"",""强我"",""弱我""]","","","","","","","","","","","","","","","","","","","","","","","","","","","","","","feedback_test","","","","","","","","",""
"663","","f","psychophysics","124","411297","0.0-8.0-0.0-4.0-0.0-0.8","5","5","6","4","2","4","2","4","4","4","5","0","-2","1","0","0","1","0","0","4","4","5","4","3","4","4","4","2","3","4","3","4","4","3","5","4","5","4","3","6","5","3","4","2","5","1","5","5","1","4","3","6","3","3","3","5","5","5","3","4","5","2","2","2","5","3","6","6","5","6","5","6","6","2","5","2","5","3","3","796469824262905858","夏","472","Female","[""好她"",""坏她"",""好我"",""坏我""]","[""强她"",""弱她"",""强我"",""弱我""]","","","","","","","","match","","","","","","","","","","key","f","16.836734693877553","640","356","f","true","match","img/ellipse.png","坏我","坏我","ALT2","moral","","","","","","","","",""
"null","<span style='color:GreenYellow; font-size: 70px;'>正确! </span>","null","html-keyboard-response","125","411798","0.0-8.0-0.0-4.0-0.0-1.8","5","5","6","4","2","4","2","4","4","4","5","0","-2","1","0","0","1","0","0","4","4","5","4","3","4","4","4","2","3","4","3","4","4","3","5","4","5","4","3","6","5","3","4","2","5","1","5","5","1","4","3","6","3","3","3","5","5","5","3","4","5","2","2","2","5","3","6","6","5","6","5","6","6","2","5","2","5","3","3","796469824262905858","夏","472","Female","[""好她"",""坏她"",""好我"",""坏我""]","[""强她"",""弱她"",""强我"",""弱我""]","","","","","","","","","","","","","","","","","","","","","","","","","","","","","","feedback_test","","","","","","","","",""
"702","","j","psychophysics","126","413506","0.0-8.0-0.0-4.0-0.0-0.9","5","5","6","4","2","4","2","4","4","4","5","0","-2","1","0","0","1","0","0","4","4","5","4","3","4","4","4","2","3","4","3","4","4","3","5","4","5","4","3","6","5","3","4","2","5","1","5","5","1","4","3","6","3","3","3","5","5","5","3","4","5","2","2","2","5","3","6","6","5","6","5","6","6","2","5","2","5","3","3","796469824262905858","夏","472","Female","[""好她"",""坏她"",""好我"",""坏我""]","[""强她"",""弱她"",""强我"",""弱我""]","","","","","","","","nonmatch","","","","","","","","","","key","j","16.666666666666668","640","356","j","true","nonmatch","img/trapezoid.png","好她","坏她","ALT2","moral","","","","","","","","",""
"null","<span style='color:GreenYellow; font-size: 70px;'>正确! </span>","null","html-keyboard-response","127","414008","0.0-8.0-0.0-4.0-0.0-1.9","5","5","6","4","2","4","2","4","4","4","5","0","-2","1","0","0","1","0","0","4","4","5","4","3","4","4","4","2","3","4","3","4","4","3","5","4","5","4","3","6","5","3","4","2","5","1","5","5","1","4","3","6","3","3","3","5","5","5","3","4","5","2","2","2","5","3","6","6","5","6","5","6","6","2","5","2","5","3","3","796469824262905858","夏","472","Female","[""好她"",""坏她"",""好我"",""坏我""]","[""强她"",""弱她"",""强我"",""弱我""]","","","","","","","","","","","","","","","","","","","","","","","","","","","","","","feedback_test","","","","","","","","",""
"643","","j","psychophysics","128","415668","0.0-8.0-0.0-4.0-0.0-0.10","5","5","6","4","2","4","2","4","4","4","5","0","-2","1","0","0","1","0","0","4","4","5","4","3","4","4","4","2","3","4","3","4","4","3","5","4","5","4","3","6","5","3","4","2","5","1","5","5","1","4","3","6","3","3","3","5","5","5","3","4","5","2","2","2","5","3","6","6","5","6","5","6","6","2","5","2","5","3","3","796469824262905858","夏","472","Female","[""好她"",""坏她"",""好我"",""坏我""]","[""强她"",""弱她"",""强我"",""弱我""]","","","","","","","","nonmatch","","","","","","","","","","key","j","16.668367346938776","640","356","j","true","nonmatch","img/ellipse.png","好她","坏我","ALT2","moral","","","","","","","","",""
"null","<span style='color:GreenYellow; font-size: 70px;'>正确! </span>","null","html-keyboard-response","129","416171","0.0-8.0-0.0-4.0-0.0-1.10","5","5","6","4","2","4","2","4","4","4","5","0","-2","1","0","0","1","0","0","4","4","5","4","3","4","4","4","2","3","4","3","4","4","3","5","4","5","4","3","6","5","3","4","2","5","1","5","5","1","4","3","6","3","3","3","5","5","5","3","4","5","2","2","2","5","3","6","6","5","6","5","6","6","2","5","2","5","3","3","796469824262905858","夏","472","Female","[""好她"",""坏她"",""好我"",""坏我""]","[""强她"",""弱她"",""强我"",""弱我""]","","","","","","","","","","","","","","","","","","","","","","","","","","","","","","feedback_test","","","","","","","","",""
"694","","j","psychophysics","130","417867","0.0-8.0-0.0-4.0-0.0-0.11","5","5","6","4","2","4","2","4","4","4","5","0","-2","1","0","0","1","0","0","4","4","5","4","3","4","4","4","2","3","4","3","4","4","3","5","4","5","4","3","6","5","3","4","2","5","1","5","5","1","4","3","6","3","3","3","5","5","5","3","4","5","2","2","2","5","3","6","6","5","6","5","6","6","2","5","2","5","3","3","796469824262905858","夏","472","Female","[""好她"",""坏她"",""好我"",""坏我""]","[""强她"",""弱她"",""强我"",""弱我""]","","","","","","","","nonmatch","","","","","","","","","","key","j","16.652999999999885","640","356","f","false","match","img/diamond.png","好她","好她","ALT2","moral","","","","","","","","",""
"null","<span style='color:red; font-size: 70px;'>错误! </span>","null","html-keyboard-response","131","418368","0.0-8.0-0.0-4.0-0.0-1.11","5","5","6","4","2","4","2","4","4","4","5","0","-2","1","0","0","1","0","0","4","4","5","4","3","4","4","4","2","3","4","3","4","4","3","5","4","5","4","3","6","5","3","4","2","5","1","5","5","1","4","3","6","3","3","3","5","5","5","3","4","5","2","2","2","5","3","6","6","5","6","5","6","6","2","5","2","5","3","3","796469824262905858","夏","472","Female","[""好她"",""坏她"",""好我"",""坏我""]","[""强她"",""弱她"",""强我"",""弱我""]","","","","","","","","","","","","","","","","","","","","","","","","","","","","","","feedback_test","","","","","","","","",""
"690","","j","psychophysics","132","420061","0.0-8.0-0.0-4.0-0.0-0.12","5","5","6","4","2","4","2","4","4","4","5","0","-2","1","0","0","1","0","0","4","4","5","4","3","4","4","4","2","3","4","3","4","4","3","5","4","5","4","3","6","5","3","4","2","5","1","5","5","1","4","3","6","3","3","3","5","5","5","3","4","5","2","2","2","5","3","6","6","5","6","5","6","6","2","5","2","5","3","3","796469824262905858","夏","472","Female","[""好她"",""坏她"",""好我"",""坏我""]","[""强她"",""弱她"",""强我"",""弱我""]","","","","","","","","nonmatch","","","","","","","","","","key","j","16.668316831683168","640","356","j","true","nonmatch","img/ellipse.png","坏她","坏我","ALT2","moral","","","","","","","","",""
"null","<span style='color:GreenYellow; font-size: 70px;'>正确! </span>","null","html-keyboard-response","133","420565","0.0-8.0-0.0-4.0-0.0-1.12","5","5","6","4","2","4","2","4","4","4","5","0","-2","1","0","0","1","0","0","4","4","5","4","3","4","4","4","2","3","4","3","4","4","3","5","4","5","4","3","6","5","3","4","2","5","1","5","5","1","4","3","6","3","3","3","5","5","5","3","4","5","2","2","2","5","3","6","6","5","6","5","6","6","2","5","2","5","3","3","796469824262905858","夏","472","Female","[""好她"",""坏她"",""好我"",""坏我""]","[""强她"",""弱她"",""强我"",""弱我""]","","","","","","","","","","","","","","","","","","","","","","","","","","","","","","feedback_test","","","","","","","","",""
"588","","j","psychophysics","134","422183","0.0-8.0-0.0-4.0-0.0-0.13","5","5","6","4","2","4","2","4","4","4","5","0","-2","1","0","0","1","0","0","4","4","5","4","3","4","4","4","2","3","4","3","4","4","3","5","4","5","4","3","6","5","3","4","2","5","1","5","5","1","4","3","6","3","3","3","5","5","5","3","4","5","2","2","2","5","3","6","6","5","6","5","6","6","2","5","2","5","3","3","796469824262905858","夏","472","Female","[""好她"",""坏她"",""好我"",""坏我""]","[""强她"",""弱她"",""强我"",""弱我""]","","","","","","","","nonmatch","","","","","","","","","","key","j","16.666666666666668","640","356","j","true","nonmatch","img/trapezoid.png","好我","坏她","ALT2","moral","","","","","","","","",""
"null","<span style='color:GreenYellow; font-size: 70px;'>正确! </span>","null","html-keyboard-response","135","422685","0.0-8.0-0.0-4.0-0.0-1.13","5","5","6","4","2","4","2","4","4","4","5","0","-2","1","0","0","1","0","0","4","4","5","4","3","4","4","4","2","3","4","3","4","4","3","5","4","5","4","3","6","5","3","4","2","5","1","5","5","1","4","3","6","3","3","3","5","5","5","3","4","5","2","2","2","5","3","6","6","5","6","5","6","6","2","5","2","5","3","3","796469824262905858","夏","472","Female","[""好她"",""坏她"",""好我"",""坏我""]","[""强她"",""弱她"",""强我"",""弱我""]","","","","","","","","","","","","","","","","","","","","","","","","","","","","","","feedback_test","","","","","","","","",""
"658","","f","psychophysics","136","424345","0.0-8.0-0.0-4.0-0.0-0.14","5","5","6","4","2","4","2","4","4","4","5","0","-2","1","0","0","1","0","0","4","4","5","4","3","4","4","4","2","3","4","3","4","4","3","5","4","5","4","3","6","5","3","4","2","5","1","5","5","1","4","3","6","3","3","3","5","5","5","3","4","5","2","2","2","5","3","6","6","5","6","5","6","6","2","5","2","5","3","3","796469824262905858","夏","472","Female","[""好她"",""坏她"",""好我"",""坏我""]","[""强她"",""弱她"",""强我"",""弱我""]","","","","","","","","match","","","","","","","","","","key","f","16.656122448980067","640","356","f","true","match","img/hexagon.png","好我","好我","ALT2","moral","","","","","","","","",""
"null","<span style='color:GreenYellow; font-size: 70px;'>正确! </span>","null","html-keyboard-response","137","424846","0.0-8.0-0.0-4.0-0.0-1.14","5","5","6","4","2","4","2","4","4","4","5","0","-2","1","0","0","1","0","0","4","4","5","4","3","4","4","4","2","3","4","3","4","4","3","5","4","5","4","3","6","5","3","4","2","5","1","5","5","1","4","3","6","3","3","3","5","5","5","3","4","5","2","2","2","5","3","6","6","5","6","5","6","6","2","5","2","5","3","3","796469824262905858","夏","472","Female","[""好她"",""坏她"",""好我"",""坏我""]","[""强她"",""弱她"",""强我"",""弱我""]","","","","","","","","","","","","","","","","","","","","","","","","","","","","","","feedback_test","","","","","","","","",""
"526","","f","psychophysics","138","426376","0.0-8.0-0.0-4.0-0.0-0.15","5","5","6","4","2","4","2","4","4","4","5","0","-2","1","0","0","1","0","0","4","4","5","4","3","4","4","4","2","3","4","3","4","4","3","5","4","5","4","3","6","5","3","4","2","5","1","5","5","1","4","3","6","3","3","3","5","5","5","3","4","5","2","2","2","5","3","6","6","5","6","5","6","6","2","5","2","5","3","3","796469824262905858","夏","472","Female","[""好她"",""坏她"",""好我"",""坏我""]","[""强她"",""弱她"",""强我"",""弱我""]","","","","","","","","match","","","","","","","","","","key","f","16.66593406593381","640","356","f","true","match","img/diamond.png","好她","好她","ALT2","moral","","","","","","","","",""
