"rt","stimulus","response","trial_type","trial_index","time_elapsed","internal_node_id","swb_1","swb_2","swb_3","swb_4","swb_5","LOT_1","LOT_2","LOT_3","LOT_4","LOT_5","LOT_6","IPC_1","IPC_2","IPC_3","IPC_4","IPC_5","IPC_6","IPC_7","IPC_8","MorIden_1","MorIden_2","MorIden_3","MorIden_4","MorIden_5","MorIden_6","MorIden_7","MorIden_8","MorIden_9","MorIden_10","moralSeImag_1","moralSeImag_2","moralSeImag_3","moralSeImag_4","moralSeImag_5","moralSeImag_6","moralSeImag_7","moralSeImag_8","moralSeImag_9","sde_1","sde_2","sde_3","sde_4","sde_5","sde_6","sde_7","sde_8","sde_9","sde_10","trap2","sde_11","sde_12","sde_13","sde_14","sde_15","sde_16","sde_17","sde_18","sde_19","sde_20","IM_1","IM_2","IM_3","IM_4","IM_5","IM_6","IM_7","IM_8","IM_9","IM_10","IM_11","IM_12","IM_13","IM_14","IM_15","IM_16","IM_17","IM_18","IM_19","IM_20","subj_idx","friend_name","ParticipantID","Sex","Word","Word2","value","success","timeout","failed_images","failed_audio","failed_video","user_agent","responses","item_order","radio_event_ids","radio_event_times","key_event_times","mouse_event_times","straightlining","zigzagging","honeypot","task_id","screen_id","time_stamp","response_type","key_press","avg_frame_time","center_x","center_y","person","word","valence","domain","math","correct_response","correct","status","view_history","identity","duration","Image","condition","question_order","trap2_item"
"21453","
   <p><div style='color:white; font-size: 25px'>您好，欢迎参加本次实验。</div></p>
   <p><div style='color:white; font-size: 25px'>为充分保障您的权利，请确保您已经知晓并同意《参与实验同意书》以及《数据公开知情同意书》。</div></p>
   <p><div style='color:white; font-size: 25px'>如果您未见过上述内容，请咨询实验员。</div></p>
   <p style='color:white; font-size: 25px'>如果您选择继续实验，则表示您已经清楚两份知情同意书的内容并同意。</p>
   <p><div style = ""color: pink;font-size:30px;"">请确保您记得day0的实验编号，您将在本次实验输入该编号，若您忘记，请咨询实验员后作答。</div></p>
   <p><div style = ""color:lightblue;font-size:25px;"">请您尽可能认真地作答，我们将依据您在各问卷和按键任务中的作答质量发放报酬。</div></p>
   <p> <div style = ""color: green""><按空格键至下页></div> </p>
   "," ","html-keyboard-response","0","21463","0.0-0.0","6","5","6","7","5","5","2","5","5","4","5","1","-1","1","1","1","2","1","2","5","4","5","4","4","5","4","5","5","4","6","5","6","7","6","7","7","6","6","6","6","3","6","6","6","7","1","6","5","1","5","5","6","2","7","6","6","6","1","5","6","6","5","7","5","6","6","6","5","7","5","5","6","3","6","6","6","6","6","7","772056166992973826","侯","46","Female","[""坏她"",""好她"",""好我"",""坏我""]","[""弱她"",""强她"",""强我"",""弱我""]","","","","","","","","","","","","","","","","","","","","","","","","","","","","","","","","","","","","","","",""
"","","","call-function","1","21474","0.0-1.0-0.0","6","5","6","7","5","5","2","5","5","4","5","1","-1","1","1","1","2","1","2","5","4","5","4","4","5","4","5","5","4","6","5","6","7","6","7","7","6","6","6","6","3","6","6","6","7","1","6","5","1","5","5","6","2","7","6","6","6","1","5","6","6","5","7","5","6","6","6","5","7","5","5","6","3","6","6","6","6","6","7","772056166992973826","侯","46","Female","[""坏她"",""好她"",""好我"",""坏我""]","[""弱她"",""强她"",""强我"",""弱我""]","","","","","","","","","","","","","","","","","","","","","","","","","","","","","","","","","","","","","","",""
"12172","","[{""name"":""Sex"",""value"":""1""},{""name"":""friend_name"",""value"":""侯""},{""name"":""ParticipantID"",""value"":""46""}]","survey-html-form","2","33654","0.0-1.0-1.0","6","5","6","7","5","5","2","5","5","4","5","1","-1","1","1","1","2","1","2","5","4","5","4","4","5","4","5","5","4","6","5","6","7","6","7","7","6","6","6","6","3","6","6","6","7","1","6","5","1","5","5","6","2","7","6","6","6","1","5","6","6","5","7","5","6","6","6","5","7","5","5","6","3","6","6","6","6","6","7","772056166992973826","侯","46","Female","[""坏她"",""好她"",""好我"",""坏我""]","[""弱她"",""强她"",""强我"",""弱我""]","","","","","","","","","","","","","","","","","","","","","","","","","","","","","","","","","","","","","","",""
"","","","preload","3","33826","0.0-2.0","6","5","6","7","5","5","2","5","5","4","5","1","-1","1","1","1","2","1","2","5","4","5","4","4","5","4","5","5","4","6","5","6","7","6","7","7","6","6","6","6","3","6","6","6","7","1","6","5","1","5","5","6","2","7","6","6","6","1","5","6","6","5","7","5","6","6","6","5","7","5","5","6","3","6","6","6","6","6","7","772056166992973826","侯","46","Female","[""坏她"",""好她"",""好我"",""坏我""]","[""弱她"",""强她"",""强我"",""弱我""]","","true","false","[]","[]","[]","","","","","","","","","","","","","","","","","","","","","","","","","","","","","","","","",""
"","","","fullscreen","4","34884","0.0-3.0","6","5","6","7","5","5","2","5","5","4","5","1","-1","1","1","1","2","1","2","5","4","5","4","4","5","4","5","5","4","6","5","6","7","6","7","7","6","6","6","6","3","6","6","6","7","1","6","5","1","5","5","6","2","7","6","6","6","1","5","6","6","5","7","5","6","6","6","5","7","5","5","6","3","6","6","6","6","6","7","772056166992973826","侯","46","Female","[""坏她"",""好她"",""好我"",""坏我""]","[""弱她"",""强她"",""强我"",""弱我""]","","true","","","","","{}","","","","","","","","","","","","","","","","","","","","","","","","","","","","","","","",""
"6576.399999976158","","{""Q01"":""6"",""Q02"":""5"",""Q03"":""6"",""Q04"":""7"",""Q05"":""5""}","survey-template","5","41467","0.0-4.0","6","5","6","7","5","5","2","5","5","4","5","1","-1","1","1","1","2","1","2","5","4","5","4","4","5","4","5","5","4","6","5","6","7","6","7","7","6","6","6","6","3","6","6","6","7","1","6","5","1","5","5","6","2","7","6","6","6","1","5","6","6","5","7","5","6","6","6","5","7","5","5","6","3","6","6","6","6","6","7","772056166992973826","侯","46","Female","[""坏她"",""好她"",""好我"",""坏我""]","[""弱她"",""强她"",""强我"",""弱我""]","","","","","","","","{""Q01"":""6"",""Q02"":""5"",""Q03"":""6"",""Q04"":""7"",""Q05"":""5""}","[0,1,2,3,4]","[""Q01"",""Q02"",""Q03"",""Q04"",""Q05""]","[1514,2029.8999999761581,3188.1999999284744,4289.099999904633,4954.099999904633]","[]","[1514,2029.8999999761581,3188.1999999284744,4289.099999904633,4954.099999904633,6574.599999904633]","0.4","0.75","0","","","","","","","","","","","","","","","","","","","","","","",""
"14865.399999976158","","{""Q01"":""5"",""Q02"":""2"",""Q03"":""5"",""Q04"":""5"",""Q05"":""4"",""Q06"":""5""}","survey-template","6","56347","0.0-5.0","6","5","6","7","5","5","2","5","5","4","5","1","-1","1","1","1","2","1","2","5","4","5","4","4","5","4","5","5","4","6","5","6","7","6","7","7","6","6","6","6","3","6","6","6","7","1","6","5","1","5","5","6","2","7","6","6","6","1","5","6","6","5","7","5","6","6","6","5","7","5","5","6","3","6","6","6","6","6","7","772056166992973826","侯","46","Female","[""坏她"",""好她"",""好我"",""坏我""]","[""弱她"",""强她"",""强我"",""弱我""]","","","","","","","","{""Q01"":""5"",""Q02"":""2"",""Q03"":""5"",""Q04"":""5"",""Q05"":""4"",""Q06"":""5""}","[0,1,2,3,4,5]","[""Q01"",""Q02"",""Q03"",""Q04"",""Q05"",""Q06""]","[1230.1000000238419,3122.2000000476837,4214,6213.399999976158,7496.300000071526,10491.700000047684]","[]","[1230.1000000238419,3122.2000000476837,4214,6213.399999976158,7496.300000071526,10491.700000047684,14864]","0.5","0.8","0","","","","","","","","","","","","","","","","","","","","","","",""
"10806.700000047684","","{""Q01"":""1"",""Q02"":""-1"",""Q03"":""1"",""Q04"":""1"",""Q05"":""1"",""Q06"":""2"",""Q07"":""1"",""Q08"":""2""}","survey-template","7","67167","0.0-6.0","6","5","6","7","5","5","2","5","5","4","5","1","-1","1","1","1","2","1","2","5","4","5","4","4","5","4","5","5","4","6","5","6","7","6","7","7","6","6","6","6","3","6","6","6","7","1","6","5","1","5","5","6","2","7","6","6","6","1","5","6","6","5","7","5","6","6","6","5","7","5","5","6","3","6","6","6","6","6","7","772056166992973826","侯","46","Female","[""坏她"",""好她"",""好我"",""坏我""]","[""弱她"",""强她"",""强我"",""弱我""]","","","","","","","","{""Q01"":""1"",""Q02"":""-1"",""Q03"":""1"",""Q04"":""1"",""Q05"":""1"",""Q06"":""2"",""Q07"":""1"",""Q08"":""2""}","[0,1,2,3,4,5,6,7]","[""Q01"",""Q02"",""Q03"",""Q04"",""Q05"",""Q06"",""Q07"",""Q08""]","[1388.2999999523163,2152.7000000476837,3352.5,5021.299999952316,6445.399999976158,7728.200000047684,9312,10146.5]","[]","[1388.2999999523163,2152.7000000476837,3352.5,5021.299999952316,6445.399999976158,7728.200000047684,9312,10146.5,10804.5]","0.625","0.42857142857142855","0","","","","","","","","","","","","","","","","","","","","","","",""
"9968","
    <p><div style='color:white;font-size:35px; line-height:20px;'>词汇评估任务</div></p><br>
    <p><div style='color:white;font-size:25px; line-height:20px;'>请再次回忆该亲密的朋友，你们至少2年前就认识了，并且最近2年经常见面。</div></p>
    <p><div style='color:white;font-size:25px; line-height:20px;'>在本实验中，您将会看到一些形容词。</div></p>
    <p><div style='color:yellow;font-size:25px; line-height:20px;'>您的任务是判断这些形容词是否符合对您自己或您的朋友的描述。</div></p><p style='font-size:35px'>符合按<span style=""color:lightgreen""> f 键</span>，不符合按<span style=""color:red""> j 键</span></p>","0","html-button-response","8","77147","0.0-7.0-0.0","6","5","6","7","5","5","2","5","5","4","5","1","-1","1","1","1","2","1","2","5","4","5","4","4","5","4","5","5","4","6","5","6","7","6","7","7","6","6","6","6","3","6","6","6","7","1","6","5","1","5","5","6","2","7","6","6","6","1","5","6","6","5","7","5","6","6","6","5","7","5","5","6","3","6","6","6","6","6","7","772056166992973826","侯","46","Female","[""坏她"",""好她"",""好我"",""坏我""]","[""弱她"",""强她"",""强我"",""弱我""]","","","","","","","","","","","","","","","","","SRET_EW","EW_instructions","Thu Jan 11 2024 12:52:25 GMT+0800 (中国标准时间)","","","","","","","","","","","","","","","","","","","",""
"1189","","j","psychophysics","9","79354","0.0-7.0-1.0-0.0","6","5","6","7","5","5","2","5","5","4","5","1","-1","1","1","1","2","1","2","5","4","5","4","4","5","4","5","5","4","6","5","6","7","6","7","7","6","6","6","6","3","6","6","6","7","1","6","5","1","5","5","6","2","7","6","6","6","1","5","6","6","5","7","5","6","6","6","5","7","5","5","6","3","6","6","6","6","6","7","772056166992973826","侯","46","Female","[""坏她"",""好她"",""好我"",""坏我""]","[""弱她"",""强她"",""强我"",""弱我""]","","","","","","","","no","","","","","","","","","SRET_EW","EW_practice","","key","j","8.802393574297197","586.9333333333333","380","自己","刻板","Negative","ability","","","","","","","","","","",""
"1788","","f","psychophysics","10","82154","0.0-7.0-1.0-0.1","6","5","6","7","5","5","2","5","5","4","5","1","-1","1","1","1","2","1","2","5","4","5","4","4","5","4","5","5","4","6","5","6","7","6","7","7","6","6","6","6","3","6","6","6","7","1","6","5","1","5","5","6","2","7","6","6","6","1","5","6","6","5","7","5","6","6","6","5","7","5","5","6","3","6","6","6","6","6","7","772056166992973826","侯","46","Female","[""坏她"",""好她"",""好我"",""坏我""]","[""弱她"",""强她"",""强我"",""弱我""]","","","","","","","","yes","","","","","","","","","SRET_EW","EW_practice","","key","f","9.536319587628876","586.9333333333333","380","自己","严谨","Positive","ability","","","","","","","","","","",""
"735","","j","psychophysics","11","83894","0.0-7.0-1.0-0.2","6","5","6","7","5","5","2","5","5","4","5","1","-1","1","1","1","2","1","2","5","4","5","4","4","5","4","5","5","4","6","5","6","7","6","7","7","6","6","6","6","3","6","6","6","7","1","6","5","1","5","5","6","2","7","6","6","6","1","5","6","6","5","7","5","6","6","6","5","7","5","5","6","3","6","6","6","6","6","7","772056166992973826","侯","46","Female","[""坏她"",""好她"",""好我"",""坏我""]","[""弱她"",""强她"",""强我"",""弱我""]","","","","","","","","no","","","","","","","","","SRET_EW","EW_practice","","key","j","8.373495145631079","586.9333333333333","380","朋友","徇私","Negative","morality","","","","","","","","","","",""
"867","","f","psychophysics","12","85769","0.0-7.0-1.0-0.3","6","5","6","7","5","5","2","5","5","4","5","1","-1","1","1","1","2","1","2","5","4","5","4","4","5","4","5","5","4","6","5","6","7","6","7","7","6","6","6","6","3","6","6","6","7","1","6","5","1","5","5","6","2","7","6","6","6","1","5","6","6","5","7","5","6","6","6","5","7","5","5","6","3","6","6","6","6","6","7","772056166992973826","侯","46","Female","[""坏她"",""好她"",""好我"",""坏我""]","[""弱她"",""强她"",""强我"",""弱我""]","","","","","","","","yes","","","","","","","","","SRET_EW","EW_practice","","key","f","8.408445945945958","586.9333333333333","380","朋友","忠实","Positive","morality","","","","","","","","","","",""
"2788","
    <p><div style='color:white;font-size:35px; line-height:20px;'>请您再次阅读实验要求</div></p><br>
    <p><div style='color:white;font-size:25px; line-height:20px;'>请回忆某一个亲密的朋友，你们至少2年前就认识了，并且最近2年经常见面。</div></p>
    <p><div style='color:white;font-size:25px; line-height:20px;'>在本实验中，您将会看到一些形容词。</div></p>
    <p><div style='color:yellow;font-size:25px; line-height:20px;'>您的任务是判断这些形容词是否符合对您自己或您的朋友的描述。</div></p>
    <p><div class='footer' style='font-size:25px; line-height:20px;'>如果对本实验还有不清楚之处，请立即向实验员咨询。</p><p style='font-size:25px; line-height:20px;'>如果您明白了规则：</p><p style='font-size:22px; line-height:20px;'>请按 继续 进入正式实验</p>
    </div>
    <p style='font-size:35px'>符合按<span style=""color:lightgreen""> f 键</span>，不符合按<span style=""color:red""> j 键</span></p>","0","html-button-response","13","88562","0.0-7.0-2.0","6","5","6","7","5","5","2","5","5","4","5","1","-1","1","1","1","2","1","2","5","4","5","4","4","5","4","5","5","4","6","5","6","7","6","7","7","6","6","6","6","3","6","6","6","7","1","6","5","1","5","5","6","2","7","6","6","6","1","5","6","6","5","7","5","6","6","6","5","7","5","5","6","3","6","6","6","6","6","7","772056166992973826","侯","46","Female","[""坏她"",""好她"",""好我"",""坏我""]","[""弱她"",""强她"",""强我"",""弱我""]","","","","","","","","","","","","","","","","","SRET_EW","prac_instructions","Thu Jan 11 2024 12:52:25 GMT+0800 (中国标准时间)","","","","","","","","","","","","","","","","","","","",""
"734","","j","psychophysics","14","90300","0.0-7.0-3.0-0.0","6","5","6","7","5","5","2","5","5","4","5","1","-1","1","1","1","2","1","2","5","4","5","4","4","5","4","5","5","4","6","5","6","7","6","7","7","6","6","6","6","3","6","6","6","7","1","6","5","1","5","5","6","2","7","6","6","6","1","5","6","6","5","7","5","6","6","6","5","7","5","5","6","3","6","6","6","6","6","7","772056166992973826","侯","46","Female","[""坏她"",""好她"",""好我"",""坏我""]","[""弱她"",""强她"",""强我"",""弱我""]","","","","","","","","no","","","","","","","","","SRET","EW_formal","","key","j","8.37289855072465","586.9333333333333","380","朋友","迷糊","Negative","ability","","","","","","","","","","",""
"808","","f","psychophysics","15","92118","0.0-7.0-3.0-0.1","6","5","6","7","5","5","2","5","5","4","5","1","-1","1","1","1","2","1","2","5","4","5","4","4","5","4","5","5","4","6","5","6","7","6","7","7","6","6","6","6","3","6","6","6","7","1","6","5","1","5","5","6","2","7","6","6","6","1","5","6","6","5","7","5","6","6","6","5","7","5","5","6","3","6","6","6","6","6","7","772056166992973826","侯","46","Female","[""坏她"",""好她"",""好我"",""坏我""]","[""弱她"",""强她"",""强我"",""弱我""]","","","","","","","","yes","","","","","","","","","SRET","EW_formal","","key","f","8.411297674418622","586.9333333333333","380","朋友","务实","Positive","ability","","","","","","","","","","",""
"595","","j","psychophysics","16","93719","0.0-7.0-3.0-0.2","6","5","6","7","5","5","2","5","5","4","5","1","-1","1","1","1","2","1","2","5","4","5","4","4","5","4","5","5","4","6","5","6","7","6","7","7","6","6","6","6","3","6","6","6","7","1","6","5","1","5","5","6","2","7","6","6","6","1","5","6","6","5","7","5","6","6","6","5","7","5","5","6","3","6","6","6","6","6","7","772056166992973826","侯","46","Female","[""坏她"",""好她"",""好我"",""坏我""]","[""弱她"",""强她"",""强我"",""弱我""]","","","","","","","","no","","","","","","","","","SRET","EW_formal","","key","j","8.333146596858606","586.9333333333333","380","自己","说谎","Negative","morality","","","","","","","","","","",""
"615","","f","psychophysics","17","95341","0.0-7.0-3.0-0.3","6","5","6","7","5","5","2","5","5","4","5","1","-1","1","1","1","2","1","2","5","4","5","4","4","5","4","5","5","4","6","5","6","7","6","7","7","6","6","6","6","3","6","6","6","7","1","6","5","1","5","5","6","2","7","6","6","6","1","5","6","6","5","7","5","6","6","6","5","7","5","5","6","3","6","6","6","6","6","7","772056166992973826","侯","46","Female","[""坏她"",""好她"",""好我"",""坏我""]","[""弱她"",""强她"",""强我"",""弱我""]","","","","","","","","yes","","","","","","","","","SRET","EW_formal","","key","f","8.42027083333331","586.9333333333333","380","自己","坚贞","Positive","morality","","","","","","","","","","",""
"796","","j","psychophysics","18","97142","0.0-7.0-3.0-0.4","6","5","6","7","5","5","2","5","5","4","5","1","-1","1","1","1","2","1","2","5","4","5","4","4","5","4","5","5","4","6","5","6","7","6","7","7","6","6","6","6","3","6","6","6","7","1","6","5","1","5","5","6","2","7","6","6","6","1","5","6","6","5","7","5","6","6","6","5","7","5","5","6","3","6","6","6","6","6","7","772056166992973826","侯","46","Female","[""坏她"",""好她"",""好我"",""坏我""]","[""弱她"",""强她"",""强我"",""弱我""]","","","","","","","","no","","","","","","","","","SRET","EW_formal","","key","j","8.411610328638476","586.9333333333333","380","朋友","独断","Negative","ability","","","","","","","","","","",""
"715","","j","psychophysics","19","98867","0.0-7.0-3.0-0.5","6","5","6","7","5","5","2","5","5","4","5","1","-1","1","1","1","2","1","2","5","4","5","4","4","5","4","5","5","4","6","5","6","7","6","7","7","6","6","6","6","3","6","6","6","7","1","6","5","1","5","5","6","2","7","6","6","6","1","5","6","6","5","7","5","6","6","6","5","7","5","5","6","3","6","6","6","6","6","7","772056166992973826","侯","46","Female","[""坏她"",""好她"",""好我"",""坏我""]","[""弱她"",""强她"",""强我"",""弱我""]","","","","","","","","no","","","","","","","","","SRET","EW_formal","","key","j","8.374502439024395","586.9333333333333","380","朋友","怠惰","Negative","ability","","","","","","","","","","",""
"881","","f","psychophysics","20","100752","0.0-7.0-3.0-0.6","6","5","6","7","5","5","2","5","5","4","5","1","-1","1","1","1","2","1","2","5","4","5","4","4","5","4","5","5","4","6","5","6","7","6","7","7","6","6","6","6","3","6","6","6","7","1","6","5","1","5","5","6","2","7","6","6","6","1","5","6","6","5","7","5","6","6","6","5","7","5","5","6","3","6","6","6","6","6","7","772056166992973826","侯","46","Female","[""坏她"",""好她"",""好我"",""坏我""]","[""弱她"",""强她"",""强我"",""弱我""]","","","","","","","","yes","","","","","","","","","SRET","EW_formal","","key","f","8.370441964285744","586.9333333333333","380","自己","远见","Positive","ability","","","","","","","","","","",""
"603","","j","psychophysics","21","102360","0.0-7.0-3.0-0.7","6","5","6","7","5","5","2","5","5","4","5","1","-1","1","1","1","2","1","2","5","4","5","4","4","5","4","5","5","4","6","5","6","7","6","7","7","6","6","6","6","3","6","6","6","7","1","6","5","1","5","5","6","2","7","6","6","6","1","5","6","6","5","7","5","6","6","6","5","7","5","5","6","3","6","6","6","6","6","7","772056166992973826","侯","46","Female","[""坏她"",""好她"",""好我"",""坏我""]","[""弱她"",""强她"",""强我"",""弱我""]","","","","","","","","no","","","","","","","","","SRET","EW_formal","","key","j","8.421015789473696","586.9333333333333","380","朋友","窝囊","Negative","ability","","","","","","","","","","",""
"642","","j","psychophysics","22","104010","0.0-7.0-3.0-0.8","6","5","6","7","5","5","2","5","5","4","5","1","-1","1","1","1","2","1","2","5","4","5","4","4","5","4","5","5","4","6","5","6","7","6","7","7","6","6","6","6","3","6","6","6","7","1","6","5","1","5","5","6","2","7","6","6","6","1","5","6","6","5","7","5","6","6","6","5","7","5","5","6","3","6","6","6","6","6","7","772056166992973826","侯","46","Female","[""坏她"",""好她"",""好我"",""坏我""]","[""弱她"",""强她"",""强我"",""弱我""]","","","","","","","","no","","","","","","","","","SRET","EW_formal","","key","j","8.376729591836698","586.9333333333333","380","朋友","盲目","Negative","ability","","","","","","","","","","",""
"612","","j","psychophysics","23","105628","0.0-7.0-3.0-0.9","6","5","6","7","5","5","2","5","5","4","5","1","-1","1","1","1","2","1","2","5","4","5","4","4","5","4","5","5","4","6","5","6","7","6","7","7","6","6","6","6","3","6","6","6","7","1","6","5","1","5","5","6","2","7","6","6","6","1","5","6","6","5","7","5","6","6","6","5","7","5","5","6","3","6","6","6","6","6","7","772056166992973826","侯","46","Female","[""坏她"",""好她"",""好我"",""坏我""]","[""弱她"",""强她"",""强我"",""弱我""]","","","","","","","","no","","","","","","","","","SRET","EW_formal","","key","j","8.333383419689085","586.9333333333333","380","朋友","迟钝","Negative","ability","","","","","","","","","","",""
"751","","f","psychophysics","24","107385","0.0-7.0-3.0-0.10","6","5","6","7","5","5","2","5","5","4","5","1","-1","1","1","1","2","1","2","5","4","5","4","4","5","4","5","5","4","6","5","6","7","6","7","7","6","6","6","6","3","6","6","6","7","1","6","5","1","5","5","6","2","7","6","6","6","1","5","6","6","5","7","5","6","6","6","5","7","5","5","6","3","6","6","6","6","6","7","772056166992973826","侯","46","Female","[""坏她"",""好她"",""好我"",""坏我""]","[""弱她"",""强她"",""强我"",""弱我""]","","","","","","","","yes","","","","","","","","","SRET","EW_formal","","key","f","8.494786407766952","586.9333333333333","380","朋友","勤奋","Positive","ability","","","","","","","","","","",""
"1185","","j","psychophysics","25","109578","0.0-7.0-3.0-0.11","6","5","6","7","5","5","2","5","5","4","5","1","-1","1","1","1","2","1","2","5","4","5","4","4","5","4","5","5","4","6","5","6","7","6","7","7","6","6","6","6","3","6","6","6","7","1","6","5","1","5","5","6","2","7","6","6","6","1","5","6","6","5","7","5","6","6","6","5","7","5","5","6","3","6","6","6","6","6","7","772056166992973826","侯","46","Female","[""坏她"",""好她"",""好我"",""坏我""]","[""弱她"",""强她"",""强我"",""弱我""]","","","","","","","","no","","","","","","","","","SRET","EW_formal","","key","j","8.463478599221796","586.9333333333333","380","自己","刻薄","Negative","morality","","","","","","","","","","",""
"1364","","f","psychophysics","26","111949","0.0-7.0-3.0-0.12","6","5","6","7","5","5","2","5","5","4","5","1","-1","1","1","1","2","1","2","5","4","5","4","4","5","4","5","5","4","6","5","6","7","6","7","7","6","6","6","6","3","6","6","6","7","1","6","5","1","5","5","6","2","7","6","6","6","1","5","6","6","5","7","5","6","6","6","5","7","5","5","6","3","6","6","6","6","6","7","772056166992973826","侯","46","Female","[""坏她"",""好她"",""好我"",""坏我""]","[""弱她"",""强她"",""强我"",""弱我""]","","","","","","","","yes","","","","","","","","","SRET","EW_formal","","key","f","8.86811320754718","586.9333333333333","380","朋友","淡泊","Positive","morality","","","","","","","","","","",""
"700","","f","psychophysics","27","113654","0.0-7.0-3.0-0.13","6","5","6","7","5","5","2","5","5","4","5","1","-1","1","1","1","2","1","2","5","4","5","4","4","5","4","5","5","4","6","5","6","7","6","7","7","6","6","6","6","3","6","6","6","7","1","6","5","1","5","5","6","2","7","6","6","6","1","5","6","6","5","7","5","6","6","6","5","7","5","5","6","3","6","6","6","6","6","7","772056166992973826","侯","46","Female","[""坏她"",""好她"",""好我"",""坏我""]","[""弱她"",""强她"",""强我"",""弱我""]","","","","","","","","yes","","","","","","","","","SRET","EW_formal","","key","f","8.416410000000033","586.9333333333333","380","自己","忠勇","Positive","morality","","","","","","","","","","",""
"793","","f","psychophysics","28","115454","0.0-7.0-3.0-0.14","6","5","6","7","5","5","2","5","5","4","5","1","-1","1","1","1","2","1","2","5","4","5","4","4","5","4","5","5","4","6","5","6","7","6","7","7","6","6","6","6","3","6","6","6","7","1","6","5","1","5","5","6","2","7","6","6","6","1","5","6","6","5","7","5","6","6","6","5","7","5","5","6","3","6","6","6","6","6","7","772056166992973826","侯","46","Female","[""坏她"",""好她"",""好我"",""坏我""]","[""弱她"",""强她"",""强我"",""弱我""]","","","","","","","","yes","","","","","","","","","SRET","EW_formal","","key","f","8.372406542056039","586.9333333333333","380","自己","敬业","Positive","morality","","","","","","","","","","",""
"734","","f","psychophysics","29","117193","0.0-7.0-3.0-0.15","6","5","6","7","5","5","2","5","5","4","5","1","-1","1","1","1","2","1","2","5","4","5","4","4","5","4","5","5","4","6","5","6","7","6","7","7","6","6","6","6","3","6","6","6","7","1","6","5","1","5","5","6","2","7","6","6","6","1","5","6","6","5","7","5","6","6","6","5","7","5","5","6","3","6","6","6","6","6","7","772056166992973826","侯","46","Female","[""坏她"",""好她"",""好我"",""坏我""]","[""弱她"",""强她"",""强我"",""弱我""]","","","","","","","","yes","","","","","","","","","SRET","EW_formal","","key","f","8.41400970873783","586.9333333333333","380","自己","高洁","Positive","morality","","","","","","","","","","",""
"792","","f","psychophysics","30","118994","0.0-7.0-3.0-0.16","6","5","6","7","5","5","2","5","5","4","5","1","-1","1","1","1","2","1","2","5","4","5","4","4","5","4","5","5","4","6","5","6","7","6","7","7","6","6","6","6","3","6","6","6","7","1","6","5","1","5","5","6","2","7","6","6","6","1","5","6","6","5","7","5","6","6","6","5","7","5","5","6","3","6","6","6","6","6","7","772056166992973826","侯","46","Female","[""坏她"",""好她"",""好我"",""坏我""]","[""弱她"",""强她"",""强我"",""弱我""]","","","","","","","","yes","","","","","","","","","SRET","EW_formal","","key","f","8.372883177570053","586.9333333333333","380","自己","谦逊","Positive","morality","","","","","","","","","","",""
"1250","","j","psychophysics","31","121248","0.0-7.0-3.0-0.17","6","5","6","7","5","5","2","5","5","4","5","1","-1","1","1","1","2","1","2","5","4","5","4","4","5","4","5","5","4","6","5","6","7","6","7","7","6","6","6","6","3","6","6","6","7","1","6","5","1","5","5","6","2","7","6","6","6","1","5","6","6","5","7","5","6","6","6","5","7","5","5","6","3","6","6","6","6","6","7","772056166992973826","侯","46","Female","[""坏她"",""好她"",""好我"",""坏我""]","[""弱她"",""强她"",""强我"",""弱我""]","","","","","","","","no","","","","","","","","","SRET","EW_formal","","key","j","8.655212355212344","586.9333333333333","380","朋友","贪腐","Negative","morality","","","","","","","","","","",""
"898","","j","psychophysics","32","123151","0.0-7.0-3.0-0.18","6","5","6","7","5","5","2","5","5","4","5","1","-1","1","1","1","2","1","2","5","4","5","4","4","5","4","5","5","4","6","5","6","7","6","7","7","6","6","6","6","3","6","6","6","7","1","6","5","1","5","5","6","2","7","6","6","6","1","5","6","6","5","7","5","6","6","6","5","7","5","5","6","3","6","6","6","6","6","7","772056166992973826","侯","46","Female","[""坏她"",""好她"",""好我"",""坏我""]","[""弱她"",""强她"",""强我"",""弱我""]","","","","","","","","no","","","","","","","","","SRET","EW_formal","","key","j","8.370022222222243","586.9333333333333","380","自己","弱智","Negative","ability","","","","","","","","","","",""
"1399","","f","psychophysics","33","125554","0.0-7.0-3.0-0.19","6","5","6","7","5","5","2","5","5","4","5","1","-1","1","1","1","2","1","2","5","4","5","4","4","5","4","5","5","4","6","5","6","7","6","7","7","6","6","6","6","3","6","6","6","7","1","6","5","1","5","5","6","2","7","6","6","6","1","5","6","6","5","7","5","6","6","6","5","7","5","5","6","3","6","6","6","6","6","7","772056166992973826","侯","46","Female","[""坏她"",""好她"",""好我"",""坏我""]","[""弱她"",""强她"",""强我"",""弱我""]","","","","","","","","yes","","","","","","","","","SRET","EW_formal","","key","f","8.860330855018601","586.9333333333333","380","朋友","廉明","Positive","morality","","","","","","","","","","",""
"610","","f","psychophysics","34","127168","0.0-7.0-3.0-0.20","6","5","6","7","5","5","2","5","5","4","5","1","-1","1","1","1","2","1","2","5","4","5","4","4","5","4","5","5","4","6","5","6","7","6","7","7","6","6","6","6","3","6","6","6","7","1","6","5","1","5","5","6","2","7","6","6","6","1","5","6","6","5","7","5","6","6","6","5","7","5","5","6","3","6","6","6","6","6","7","772056166992973826","侯","46","Female","[""坏她"",""好她"",""好我"",""坏我""]","[""弱她"",""强她"",""强我"",""弱我""]","","","","","","","","yes","","","","","","","","","SRET","EW_formal","","key","f","8.465285714285706","586.9333333333333","380","自己","勤恳","Positive","morality","","","","","","","","","","",""
"660","","j","psychophysics","35","128835","0.0-7.0-3.0-0.21","6","5","6","7","5","5","2","5","5","4","5","1","-1","1","1","1","2","1","2","5","4","5","4","4","5","4","5","5","4","6","5","6","7","6","7","7","6","6","6","6","3","6","6","6","7","1","6","5","1","5","5","6","2","7","6","6","6","1","5","6","6","5","7","5","6","6","6","5","7","5","5","6","3","6","6","6","6","6","7","772056166992973826","侯","46","Female","[""坏她"",""好她"",""好我"",""坏我""]","[""弱她"",""强她"",""强我"",""弱我""]","","","","","","","","no","","","","","","","","","SRET","EW_formal","","key","j","8.418467005076115","586.9333333333333","380","朋友","势利","Negative","morality","","","","","","","","","","",""
"586","","f","psychophysics","36","130427","0.0-7.0-3.0-0.22","6","5","6","7","5","5","2","5","5","4","5","1","-1","1","1","1","2","1","2","5","4","5","4","4","5","4","5","5","4","6","5","6","7","6","7","7","6","6","6","6","3","6","6","6","7","1","6","5","1","5","5","6","2","7","6","6","6","1","5","6","6","5","7","5","6","6","6","5","7","5","5","6","3","6","6","6","6","6","7","772056166992973826","侯","46","Female","[""坏她"",""好她"",""好我"",""坏我""]","[""弱她"",""强她"",""强我"",""弱我""]","","","","","","","","yes","","","","","","","","","SRET","EW_formal","","key","f","8.332868421052607","586.9333333333333","380","自己","义气","Positive","morality","","","","","","","","","","",""
"567","","j","psychophysics","37","132002","0.0-7.0-3.0-0.23","6","5","6","7","5","5","2","5","5","4","5","1","-1","1","1","1","2","1","2","5","4","5","4","4","5","4","5","5","4","6","5","6","7","6","7","7","6","6","6","6","3","6","6","6","7","1","6","5","1","5","5","6","2","7","6","6","6","1","5","6","6","5","7","5","6","6","6","5","7","5","5","6","3","6","6","6","6","6","7","772056166992973826","侯","46","Female","[""坏她"",""好她"",""好我"",""坏我""]","[""弱她"",""强她"",""强我"",""弱我""]","","","","","","","","no","","","","","","","","","SRET","EW_formal","","key","j","8.423145161290254","586.9333333333333","380","朋友","废物","Negative","ability","","","","","","","","","","",""
"582","","f","psychophysics","38","133591","0.0-7.0-3.0-0.24","6","5","6","7","5","5","2","5","5","4","5","1","-1","1","1","1","2","1","2","5","4","5","4","4","5","4","5","5","4","6","5","6","7","6","7","7","6","6","6","6","3","6","6","6","7","1","6","5","1","5","5","6","2","7","6","6","6","1","5","6","6","5","7","5","6","6","6","5","7","5","5","6","3","6","6","6","6","6","7","772056166992973826","侯","46","Female","[""坏她"",""好她"",""好我"",""坏我""]","[""弱她"",""强她"",""强我"",""弱我""]","","","","","","","","yes","","","","","","","","","SRET","EW_formal","","key","f","8.422106382978876","586.9333333333333","380","自己","敏捷","Positive","ability","","","","","","","","","","",""
"616","","f","psychophysics","39","135211","0.0-7.0-3.0-0.25","6","5","6","7","5","5","2","5","5","4","5","1","-1","1","1","1","2","1","2","5","4","5","4","4","5","4","5","5","4","6","5","6","7","6","7","7","6","6","6","6","3","6","6","6","7","1","6","5","1","5","5","6","2","7","6","6","6","1","5","6","6","5","7","5","6","6","6","5","7","5","5","6","3","6","6","6","6","6","7","772056166992973826","侯","46","Female","[""坏她"",""好她"",""好我"",""坏我""]","[""弱她"",""强她"",""强我"",""弱我""]","","","","","","","","yes","","","","","","","","","SRET","EW_formal","","key","f","8.376666666666702","586.9333333333333","380","自己","能干","Positive","ability","","","","","","","","","","",""
"583","","f","psychophysics","40","136802","0.0-7.0-3.0-0.26","6","5","6","7","5","5","2","5","5","4","5","1","-1","1","1","1","2","1","2","5","4","5","4","4","5","4","5","5","4","6","5","6","7","6","7","7","6","6","6","6","3","6","6","6","7","1","6","5","1","5","5","6","2","7","6","6","6","1","5","6","6","5","7","5","6","6","6","5","7","5","5","6","3","6","6","6","6","6","7","772056166992973826","侯","46","Female","[""坏她"",""好她"",""好我"",""坏我""]","[""弱她"",""强她"",""强我"",""弱我""]","","","","","","","","yes","","","","","","","","","SRET","EW_formal","","key","f","8.42232978723397","586.9333333333333","380","朋友","孝顺","Positive","morality","","","","","","","","","","",""
"657","","f","psychophysics","41","138467","0.0-7.0-3.0-0.27","6","5","6","7","5","5","2","5","5","4","5","1","-1","1","1","1","2","1","2","5","4","5","4","4","5","4","5","5","4","6","5","6","7","6","7","7","6","6","6","6","3","6","6","6","7","1","6","5","1","5","5","6","2","7","6","6","6","1","5","6","6","5","7","5","6","6","6","5","7","5","5","6","3","6","6","6","6","6","7","772056166992973826","侯","46","Female","[""坏她"",""好她"",""好我"",""坏我""]","[""弱她"",""强她"",""强我"",""弱我""]","","","","","","","","yes","","","","","","","","","SRET","EW_formal","","key","f","8.333417085427165","586.9333333333333","380","朋友","侠义","Positive","morality","","","","","","","","","","",""
"674","","f","psychophysics","42","140145","0.0-7.0-3.0-0.28","6","5","6","7","5","5","2","5","5","4","5","1","-1","1","1","1","2","1","2","5","4","5","4","4","5","4","5","5","4","6","5","6","7","6","7","7","6","6","6","6","3","6","6","6","7","1","6","5","1","5","5","6","2","7","6","6","6","1","5","6","6","5","7","5","6","6","6","5","7","5","5","6","3","6","6","6","6","6","7","772056166992973826","侯","46","Female","[""坏她"",""好她"",""好我"",""坏我""]","[""弱她"",""强她"",""强我"",""弱我""]","","","","","","","","yes","","","","","","","","","SRET","EW_formal","","key","f","8.333559999999999","586.9333333333333","380","朋友","利落","Positive","ability","","","","","","","","","","",""
"751","","j","psychophysics","43","141902","0.0-7.0-3.0-0.29","6","5","6","7","5","5","2","5","5","4","5","1","-1","1","1","1","2","1","2","5","4","5","4","4","5","4","5","5","4","6","5","6","7","6","7","7","6","6","6","6","3","6","6","6","7","1","6","5","1","5","5","6","2","7","6","6","6","1","5","6","6","5","7","5","6","6","6","5","7","5","5","6","3","6","6","6","6","6","7","772056166992973826","侯","46","Female","[""坏她"",""好她"",""好我"",""坏我""]","[""弱她"",""强她"",""强我"",""弱我""]","","","","","","","","no","","","","","","","","","SRET","EW_formal","","key","j","8.413192307692253","586.9333333333333","380","自己","不端","Negative","morality","","","","","","","","","","",""
"644","","f","psychophysics","44","143553","0.0-7.0-3.0-0.30","6","5","6","7","5","5","2","5","5","4","5","1","-1","1","1","1","2","1","2","5","4","5","4","4","5","4","5","5","4","6","5","6","7","6","7","7","6","6","6","6","3","6","6","6","7","1","6","5","1","5","5","6","2","7","6","6","6","1","5","6","6","5","7","5","6","6","6","5","7","5","5","6","3","6","6","6","6","6","7","772056166992973826","侯","46","Female","[""坏她"",""好她"",""好我"",""坏我""]","[""弱她"",""强她"",""强我"",""弱我""]","","","","","","","","yes","","","","","","","","","SRET","EW_formal","","key","f","8.41911282051274","586.9333333333333","380","朋友","仁厚","Positive","morality","","","","","","","","","","",""
"627","","f","psychophysics","45","145185","0.0-7.0-3.0-0.31","6","5","6","7","5","5","2","5","5","4","5","1","-1","1","1","1","2","1","2","5","4","5","4","4","5","4","5","5","4","6","5","6","7","6","7","7","6","6","6","6","3","6","6","6","7","1","6","5","1","5","5","6","2","7","6","6","6","1","5","6","6","5","7","5","6","6","6","5","7","5","5","6","3","6","6","6","6","6","7","772056166992973826","侯","46","Female","[""坏她"",""好她"",""好我"",""坏我""]","[""弱她"",""强她"",""强我"",""弱我""]","","","","","","","","yes","","","","","","","","","SRET","EW_formal","","key","f","8.419538860103577","586.9333333333333","380","自己","娴熟","Positive","ability","","","","","","","","","","",""
"776","","f","psychophysics","46","146970","0.0-7.0-3.0-0.32","6","5","6","7","5","5","2","5","5","4","5","1","-1","1","1","1","2","1","2","5","4","5","4","4","5","4","5","5","4","6","5","6","7","6","7","7","6","6","6","6","3","6","6","6","7","1","6","5","1","5","5","6","2","7","6","6","6","1","5","6","6","5","7","5","6","6","6","5","7","5","5","6","3","6","6","6","6","6","7","772056166992973826","侯","46","Female","[""坏她"",""好她"",""好我"",""坏我""]","[""弱她"",""强她"",""强我"",""弱我""]","","","","","","","","yes","","","","","","","","","SRET","EW_formal","","key","f","8.452461904761869","586.9333333333333","380","朋友","思辨","Positive","ability","","","","","","","","","","",""
"542","","f","psychophysics","47","148518","0.0-7.0-3.0-0.33","6","5","6","7","5","5","2","5","5","4","5","1","-1","1","1","1","2","1","2","5","4","5","4","4","5","4","5","5","4","6","5","6","7","6","7","7","6","6","6","6","3","6","6","6","7","1","6","5","1","5","5","6","2","7","6","6","6","1","5","6","6","5","7","5","6","6","6","5","7","5","5","6","3","6","6","6","6","6","7","772056166992973826","侯","46","Female","[""坏她"",""好她"",""好我"",""坏我""]","[""弱她"",""强她"",""强我"",""弱我""]","","","","","","","","yes","","","","","","","","","SRET","EW_formal","","key","f","8.378820652173802","586.9333333333333","380","自己","刚正","Positive","morality","","","","","","","","","","",""
"759","","j","psychophysics","48","150284","0.0-7.0-3.0-0.34","6","5","6","7","5","5","2","5","5","4","5","1","-1","1","1","1","2","1","2","5","4","5","4","4","5","4","5","5","4","6","5","6","7","6","7","7","6","6","6","6","3","6","6","6","7","1","6","5","1","5","5","6","2","7","6","6","6","1","5","6","6","5","7","5","6","6","6","5","7","5","5","6","3","6","6","6","6","6","7","772056166992973826","侯","46","Female","[""坏她"",""好她"",""好我"",""坏我""]","[""弱她"",""强她"",""强我"",""弱我""]","","","","","","","","no","","","","","","","","","SRET","EW_formal","","key","j","8.41337799043066","586.9333333333333","380","自己","马虎","Negative","ability","","","","","","","","","","",""
"556","","j","psychophysics","49","151844","0.0-7.0-3.0-0.35","6","5","6","7","5","5","2","5","5","4","5","1","-1","1","1","1","2","1","2","5","4","5","4","4","5","4","5","5","4","6","5","6","7","6","7","7","6","6","6","6","3","6","6","6","7","1","6","5","1","5","5","6","2","7","6","6","6","1","5","6","6","5","7","5","6","6","6","5","7","5","5","6","3","6","6","6","6","6","7","772056166992973826","侯","46","Female","[""坏她"",""好她"",""好我"",""坏我""]","[""弱她"",""强她"",""强我"",""弱我""]","","","","","","","","no","","","","","","","","","SRET","EW_formal","","key","j","8.424413043478284","586.9333333333333","380","朋友","愚痴","Negative","ability","","","","","","","","","","",""
"767","","f","psychophysics","50","153618","0.0-7.0-3.0-0.36","6","5","6","7","5","5","2","5","5","4","5","1","-1","1","1","1","2","1","2","5","4","5","4","4","5","4","5","5","4","6","5","6","7","6","7","7","6","6","6","6","3","6","6","6","7","1","6","5","1","5","5","6","2","7","6","6","6","1","5","6","6","5","7","5","6","6","6","5","7","5","5","6","3","6","6","6","6","6","7","772056166992973826","侯","46","Female","[""坏她"",""好她"",""好我"",""坏我""]","[""弱她"",""强她"",""强我"",""弱我""]","","","","","","","","yes","","","","","","","","","SRET","EW_formal","","key","f","8.372630331753555","586.9333333333333","380","朋友","自律","Positive","ability","","","","","","","","","","",""
"1292","","j","psychophysics","51","155919","0.0-7.0-3.0-0.37","6","5","6","7","5","5","2","5","5","4","5","1","-1","1","1","1","2","1","2","5","4","5","4","4","5","4","5","5","4","6","5","6","7","6","7","7","6","6","6","6","3","6","6","6","7","1","6","5","1","5","5","6","2","7","6","6","6","1","5","6","6","5","7","5","6","6","6","5","7","5","5","6","3","6","6","6","6","6","7","772056166992973826","侯","46","Female","[""坏她"",""好她"",""好我"",""坏我""]","[""弱她"",""强她"",""强我"",""弱我""]","","","","","","","","no","","","","","","","","","SRET","EW_formal","","key","j","8.6823764258555","586.9333333333333","380","自己","伪善","Negative","morality","","","","","","","","","","",""
"726","","f","psychophysics","52","157651","0.0-7.0-3.0-0.38","6","5","6","7","5","5","2","5","5","4","5","1","-1","1","1","1","2","1","2","5","4","5","4","4","5","4","5","5","4","6","5","6","7","6","7","7","6","6","6","6","3","6","6","6","7","1","6","5","1","5","5","6","2","7","6","6","6","1","5","6","6","5","7","5","6","6","6","5","7","5","5","6","3","6","6","6","6","6","7","772056166992973826","侯","46","Female","[""坏她"",""好她"",""好我"",""坏我""]","[""弱她"",""强她"",""强我"",""弱我""]","","","","","","","","yes","","","","","","","","","SRET","EW_formal","","key","f","8.456172413793118","586.9333333333333","380","朋友","守法","Positive","morality","","","","","","","","","","",""
"776","","j","psychophysics","53","159435","0.0-7.0-3.0-0.39","6","5","6","7","5","5","2","5","5","4","5","1","-1","1","1","1","2","1","2","5","4","5","4","4","5","4","5","5","4","6","5","6","7","6","7","7","6","6","6","6","3","6","6","6","7","1","6","5","1","5","5","6","2","7","6","6","6","1","5","6","6","5","7","5","6","6","6","5","7","5","5","6","3","6","6","6","6","6","7","772056166992973826","侯","46","Female","[""坏她"",""好她"",""好我"",""坏我""]","[""弱她"",""强她"",""强我"",""弱我""]","","","","","","","","no","","","","","","","","","SRET","EW_formal","","key","j","8.372613207547062","586.9333333333333","380","朋友","不良","Negative","morality","","","","","","","","","","",""
"664","","j","psychophysics","54","161102","0.0-7.0-3.0-0.40","6","5","6","7","5","5","2","5","5","4","5","1","-1","1","1","1","2","1","2","5","4","5","4","4","5","4","5","5","4","6","5","6","7","6","7","7","6","6","6","6","3","6","6","6","7","1","6","5","1","5","5","6","2","7","6","6","6","1","5","6","6","5","7","5","6","6","6","5","7","5","5","6","3","6","6","6","6","6","7","772056166992973826","侯","46","Female","[""坏她"",""好她"",""好我"",""坏我""]","[""弱她"",""强她"",""强我"",""弱我""]","","","","","","","","no","","","","","","","","","SRET","EW_formal","","key","j","8.37546464646452","586.9333333333333","380","自己","无耻","Negative","morality","","","","","","","","","","",""
"808","","f","psychophysics","55","162917","0.0-7.0-3.0-0.41","6","5","6","7","5","5","2","5","5","4","5","1","-1","1","1","1","2","1","2","5","4","5","4","4","5","4","5","5","4","6","5","6","7","6","7","7","6","6","6","6","3","6","6","6","7","1","6","5","1","5","5","6","2","7","6","6","6","1","5","6","6","5","7","5","6","6","6","5","7","5","5","6","3","6","6","6","6","6","7","772056166992973826","侯","46","Female","[""坏她"",""好她"",""好我"",""坏我""]","[""弱她"",""强她"",""强我"",""弱我""]","","","","","","","","yes","","","","","","","","","SRET","EW_formal","","key","f","8.4110790697675","586.9333333333333","380","朋友","好心","Positive","morality","","","","","","","","","","",""
"916","","f","psychophysics","56","164837","0.0-7.0-3.0-0.42","6","5","6","7","5","5","2","5","5","4","5","1","-1","1","1","1","2","1","2","5","4","5","4","4","5","4","5","5","4","6","5","6","7","6","7","7","6","6","6","6","3","6","6","6","7","1","6","5","1","5","5","6","2","7","6","6","6","1","5","6","6","5","7","5","6","6","6","5","7","5","5","6","3","6","6","6","6","6","7","772056166992973826","侯","46","Female","[""坏她"",""好她"",""好我"",""坏我""]","[""弱她"",""强她"",""强我"",""弱我""]","","","","","","","","yes","","","","","","","","","SRET","EW_formal","","key","f","8.333235807860332","586.9333333333333","380","自己","礼貌","Positive","morality","","","","","","","","","","",""
"659","","f","psychophysics","57","166502","0.0-7.0-3.0-0.43","6","5","6","7","5","5","2","5","5","4","5","1","-1","1","1","1","2","1","2","5","4","5","4","4","5","4","5","5","4","6","5","6","7","6","7","7","6","6","6","6","3","6","6","6","7","1","6","5","1","5","5","6","2","7","6","6","6","1","5","6","6","5","7","5","6","6","6","5","7","5","5","6","3","6","6","6","6","6","7","772056166992973826","侯","46","Female","[""坏她"",""好她"",""好我"",""坏我""]","[""弱她"",""强她"",""强我"",""弱我""]","","","","","","","","yes","","","","","","","","","SRET","EW_formal","","key","f","8.375696969697001","586.9333333333333","380","朋友","宽容","Positive","morality","","","","","","","","","","",""
"518","","j","psychophysics","58","168030","0.0-7.0-3.0-0.44","6","5","6","7","5","5","2","5","5","4","5","1","-1","1","1","1","2","1","2","5","4","5","4","4","5","4","5","5","4","6","5","6","7","6","7","7","6","6","6","6","3","6","6","6","7","1","6","5","1","5","5","6","2","7","6","6","6","1","5","6","6","5","7","5","6","6","6","5","7","5","5","6","3","6","6","6","6","6","7","772056166992973826","侯","46","Female","[""坏她"",""好她"",""好我"",""坏我""]","[""弱她"",""强她"",""强我"",""弱我""]","","","","","","","","no","","","","","","","","","SRET","EW_formal","","key","j","8.473776536312913","586.9333333333333","380","自己","虚假","Negative","morality","","","","","","","","","","",""
"586","","j","psychophysics","59","169620","0.0-7.0-3.0-0.45","6","5","6","7","5","5","2","5","5","4","5","1","-1","1","1","1","2","1","2","5","4","5","4","4","5","4","5","5","4","6","5","6","7","6","7","7","6","6","6","6","3","6","6","6","7","1","6","5","1","5","5","6","2","7","6","6","6","1","5","6","6","5","7","5","6","6","6","5","7","5","5","6","3","6","6","6","6","6","7","772056166992973826","侯","46","Female","[""坏她"",""好她"",""好我"",""坏我""]","[""弱她"",""强她"",""强我"",""弱我""]","","","","","","","","no","","","","","","","","","SRET","EW_formal","","key","j","8.421632978723364","586.9333333333333","380","自己","混账","Negative","morality","","","","","","","","","","",""
"825","","f","psychophysics","60","171452","0.0-7.0-3.0-0.46","6","5","6","7","5","5","2","5","5","4","5","1","-1","1","1","1","2","1","2","5","4","5","4","4","5","4","5","5","4","6","5","6","7","6","7","7","6","6","6","6","3","6","6","6","7","1","6","5","1","5","5","6","2","7","6","6","6","1","5","6","6","5","7","5","6","6","6","5","7","5","5","6","3","6","6","6","6","6","7","772056166992973826","侯","46","Female","[""坏她"",""好她"",""好我"",""坏我""]","[""弱她"",""强她"",""强我"",""弱我""]","","","","","","","","yes","","","","","","","","","SRET","EW_formal","","key","f","8.371486238532095","586.9333333333333","380","朋友","中用","Positive","ability","","","","","","","","","","",""
"553","","j","psychophysics","61","173011","0.0-7.0-3.0-0.47","6","5","6","7","5","5","2","5","5","4","5","1","-1","1","1","1","2","1","2","5","4","5","4","4","5","4","5","5","4","6","5","6","7","6","7","7","6","6","6","6","3","6","6","6","7","1","6","5","1","5","5","6","2","7","6","6","6","1","5","6","6","5","7","5","6","6","6","5","7","5","5","6","3","6","6","6","6","6","7","772056166992973826","侯","46","Female","[""坏她"",""好她"",""好我"",""坏我""]","[""弱她"",""强她"",""强我"",""弱我""]","","","","","","","","no","","","","","","","","","SRET","EW_formal","","key","j","8.424396739130316","586.9333333333333","380","自己","不孝","Negative","morality","","","","","","","","","","",""
"584","","j","psychophysics","62","174601","0.0-7.0-3.0-0.48","6","5","6","7","5","5","2","5","5","4","5","1","-1","1","1","1","2","1","2","5","4","5","4","4","5","4","5","5","4","6","5","6","7","6","7","7","6","6","6","6","3","6","6","6","7","1","6","5","1","5","5","6","2","7","6","6","6","1","5","6","6","5","7","5","6","6","6","5","7","5","5","6","3","6","6","6","6","6","7","772056166992973826","侯","46","Female","[""坏她"",""好她"",""好我"",""坏我""]","[""弱她"",""强她"",""强我"",""弱我""]","","","","","","","","no","","","","","","","","","SRET","EW_formal","","key","j","8.377269841269861","586.9333333333333","380","自己","毛糙","Negative","ability","","","","","","","","","","",""
"594","","f","psychophysics","63","176204","0.0-7.0-3.0-0.49","6","5","6","7","5","5","2","5","5","4","5","1","-1","1","1","1","2","1","2","5","4","5","4","4","5","4","5","5","4","6","5","6","7","6","7","7","6","6","6","6","3","6","6","6","7","1","6","5","1","5","5","6","2","7","6","6","6","1","5","6","6","5","7","5","6","6","6","5","7","5","5","6","3","6","6","6","6","6","7","772056166992973826","侯","46","Female","[""坏她"",""好她"",""好我"",""坏我""]","[""弱她"",""强她"",""强我"",""弱我""]","","","","","","","","yes","","","","","","","","","SRET","EW_formal","","key","f","8.421518518518603","586.9333333333333","380","自己","上进","Positive","ability","","","","","","","","","","",""
"526","","f","psychophysics","64","177736","0.0-7.0-3.0-0.50","6","5","6","7","5","5","2","5","5","4","5","1","-1","1","1","1","2","1","2","5","4","5","4","4","5","4","5","5","4","6","5","6","7","6","7","7","6","6","6","6","3","6","6","6","7","1","6","5","1","5","5","6","2","7","6","6","6","1","5","6","6","5","7","5","6","6","6","5","7","5","5","6","3","6","6","6","6","6","7","772056166992973826","侯","46","Female","[""坏她"",""好她"",""好我"",""坏我""]","[""弱她"",""强她"",""强我"",""弱我""]","","","","","","","","yes","","","","","","","","","SRET","EW_formal","","key","f","8.472672222222254","586.9333333333333","380","朋友","坚持","Positive","ability","","","","","","","","","","",""
"1114","","j","psychophysics","65","179855","0.0-7.0-3.0-0.51","6","5","6","7","5","5","2","5","5","4","5","1","-1","1","1","1","2","1","2","5","4","5","4","4","5","4","5","5","4","6","5","6","7","6","7","7","6","6","6","6","3","6","6","6","7","1","6","5","1","5","5","6","2","7","6","6","6","1","5","6","6","5","7","5","6","6","6","5","7","5","5","6","3","6","6","6","6","6","7","772056166992973826","侯","46","Female","[""坏她"",""好她"",""好我"",""坏我""]","[""弱她"",""强她"",""强我"",""弱我""]","","","","","","","","no","","","","","","","","","SRET","EW_formal","","key","j","8.366801587301621","586.9333333333333","380","自己","逞强","Negative","ability","","","","","","","","","","",""
"627","","j","psychophysics","66","181487","0.0-7.0-3.0-0.52","6","5","6","7","5","5","2","5","5","4","5","1","-1","1","1","1","2","1","2","5","4","5","4","4","5","4","5","5","4","6","5","6","7","6","7","7","6","6","6","6","3","6","6","6","7","1","6","5","1","5","5","6","2","7","6","6","6","1","5","6","6","5","7","5","6","6","6","5","7","5","5","6","3","6","6","6","6","6","7","772056166992973826","侯","46","Female","[""坏她"",""好她"",""好我"",""坏我""]","[""弱她"",""强她"",""强我"",""弱我""]","","","","","","","","no","","","","","","","","","SRET","EW_formal","","key","j","8.37614062499991","586.9333333333333","380","自己","拖延","Negative","ability","","","","","","","","","","",""
"536","","f","psychophysics","67","183030","0.0-7.0-3.0-0.53","6","5","6","7","5","5","2","5","5","4","5","1","-1","1","1","1","2","1","2","5","4","5","4","4","5","4","5","5","4","6","5","6","7","6","7","7","6","6","6","6","3","6","6","6","7","1","6","5","1","5","5","6","2","7","6","6","6","1","5","6","6","5","7","5","6","6","6","5","7","5","5","6","3","6","6","6","6","6","7","772056166992973826","侯","46","Female","[""坏她"",""好她"",""好我"",""坏我""]","[""弱她"",""强她"",""强我"",""弱我""]","","","","","","","","yes","","","","","","","","","SRET","EW_formal","","key","f","8.42545604395615","586.9333333333333","380","朋友","忠诚","Positive","morality","","","","","","","","","","",""
"693","","j","psychophysics","68","184727","0.0-7.0-3.0-0.54","6","5","6","7","5","5","2","5","5","4","5","1","-1","1","1","1","2","1","2","5","4","5","4","4","5","4","5","5","4","6","5","6","7","6","7","7","6","6","6","6","3","6","6","6","7","1","6","5","1","5","5","6","2","7","6","6","6","1","5","6","6","5","7","5","6","6","6","5","7","5","5","6","3","6","6","6","6","6","7","772056166992973826","侯","46","Female","[""坏她"",""好她"",""好我"",""坏我""]","[""弱她"",""强她"",""强我"",""弱我""]","","","","","","","","no","","","","","","","","","SRET","EW_formal","","key","j","8.333172413793058","586.9333333333333","380","朋友","拜金","Negative","morality","","","","","","","","","","",""
"568","","f","psychophysics","69","186302","0.0-7.0-3.0-0.55","6","5","6","7","5","5","2","5","5","4","5","1","-1","1","1","1","2","1","2","5","4","5","4","4","5","4","5","5","4","6","5","6","7","6","7","7","6","6","6","6","3","6","6","6","7","1","6","5","1","5","5","6","2","7","6","6","6","1","5","6","6","5","7","5","6","6","6","5","7","5","5","6","3","6","6","6","6","6","7","772056166992973826","侯","46","Female","[""坏她"",""好她"",""好我"",""坏我""]","[""弱她"",""强她"",""强我"",""弱我""]","","","","","","","","yes","","","","","","","","","SRET","EW_formal","","key","f","8.378219251336814","586.9333333333333","380","朋友","扎实","Positive","ability","","","","","","","","","","",""
"914","","j","psychophysics","70","188221","0.0-7.0-3.0-0.56","6","5","6","7","5","5","2","5","5","4","5","1","-1","1","1","1","2","1","2","5","4","5","4","4","5","4","5","5","4","6","5","6","7","6","7","7","6","6","6","6","3","6","6","6","7","1","6","5","1","5","5","6","2","7","6","6","6","1","5","6","6","5","7","5","6","6","6","5","7","5","5","6","3","6","6","6","6","6","7","772056166992973826","侯","46","Female","[""坏她"",""好她"",""好我"",""坏我""]","[""弱她"",""强她"",""强我"",""弱我""]","","","","","","","","no","","","","","","","","","SRET","EW_formal","","key","j","8.444340707964612","586.9333333333333","380","自己","新手","Negative","ability","","","","","","","","","","",""
"1083","","f","psychophysics","71","190338","0.0-7.0-3.0-0.57","6","5","6","7","5","5","2","5","5","4","5","1","-1","1","1","1","2","1","2","5","4","5","4","4","5","4","5","5","4","6","5","6","7","6","7","7","6","6","6","6","3","6","6","6","7","1","6","5","1","5","5","6","2","7","6","6","6","1","5","6","6","5","7","5","6","6","6","5","7","5","5","6","3","6","6","6","6","6","7","772056166992973826","侯","46","Female","[""坏她"",""好她"",""好我"",""坏我""]","[""弱她"",""强她"",""强我"",""弱我""]","","","","","","","","yes","","","","","","","","","SRET","EW_formal","","key","f","8.400187250995959","586.9333333333333","380","朋友","学霸","Positive","ability","","","","","","","","","","",""
"null","","null","psychophysics","72","193348","0.0-7.0-3.0-0.58","6","5","6","7","5","5","2","5","5","4","5","1","-1","1","1","1","2","1","2","5","4","5","4","4","5","4","5","5","4","6","5","6","7","6","7","7","6","6","6","6","3","6","6","6","7","1","6","5","1","5","5","6","2","7","6","6","6","1","5","6","6","5","7","5","6","6","6","5","7","5","5","6","3","6","6","6","6","6","7","772056166992973826","侯","46","Female","[""坏她"",""好她"",""好我"",""坏我""]","[""弱她"",""强她"",""强我"",""弱我""]","","","","","","","","","","","","","","","","","SRET","EW_formal","","key","null","9.883734219269057","586.9333333333333","380","朋友","利己","Negative","morality","","","","","","","","","","",""
"767","","j","psychophysics","73","195125","0.0-7.0-3.0-0.59","6","5","6","7","5","5","2","5","5","4","5","1","-1","1","1","1","2","1","2","5","4","5","4","4","5","4","5","5","4","6","5","6","7","6","7","7","6","6","6","6","3","6","6","6","7","1","6","5","1","5","5","6","2","7","6","6","6","1","5","6","6","5","7","5","6","6","6","5","7","5","5","6","3","6","6","6","6","6","7","772056166992973826","侯","46","Female","[""坏她"",""好她"",""好我"",""坏我""]","[""弱她"",""强她"",""强我"",""弱我""]","","","","","","","","no","","","","","","","","","SRET","EW_formal","","key","j","16.825409523809572","586.9333333333333","380","自己","庸碌","Negative","ability","","","","","","","","","","",""
"841","","f","psychophysics","74","196971","0.0-7.0-3.0-0.60","6","5","6","7","5","5","2","5","5","4","5","1","-1","1","1","1","2","1","2","5","4","5","4","4","5","4","5","5","4","6","5","6","7","6","7","7","6","6","6","6","3","6","6","6","7","1","6","5","1","5","5","6","2","7","6","6","6","1","5","6","6","5","7","5","6","6","6","5","7","5","5","6","3","6","6","6","6","6","7","772056166992973826","侯","46","Female","[""坏她"",""好她"",""好我"",""坏我""]","[""弱她"",""强她"",""强我"",""弱我""]","","","","","","","","yes","","","","","","","","","SRET","EW_formal","","key","f","8.448736111111092","586.9333333333333","380","自己","顶事","Positive","ability","","","","","","","","","","",""
"895","","f","psychophysics","75","198871","0.0-7.0-3.0-0.61","6","5","6","7","5","5","2","5","5","4","5","1","-1","1","1","1","2","1","2","5","4","5","4","4","5","4","5","5","4","6","5","6","7","6","7","7","6","6","6","6","3","6","6","6","7","1","6","5","1","5","5","6","2","7","6","6","6","1","5","6","6","5","7","5","6","6","6","5","7","5","5","6","3","6","6","6","6","6","7","772056166992973826","侯","46","Female","[""坏她"",""好她"",""好我"",""坏我""]","[""弱她"",""强她"",""强我"",""弱我""]","","","","","","","","yes","","","","","","","","","SRET","EW_formal","","key","f","8.407426666666677","586.9333333333333","380","朋友","精干","Positive","ability","","","","","","","","","","",""
"660","","j","psychophysics","76","200537","0.0-7.0-3.0-0.62","6","5","6","7","5","5","2","5","5","4","5","1","-1","1","1","1","2","1","2","5","4","5","4","4","5","4","5","5","4","6","5","6","7","6","7","7","6","6","6","6","3","6","6","6","7","1","6","5","1","5","5","6","2","7","6","6","6","1","5","6","6","5","7","5","6","6","6","5","7","5","5","6","3","6","6","6","6","6","7","772056166992973826","侯","46","Female","[""坏她"",""好她"",""好我"",""坏我""]","[""弱她"",""强她"",""强我"",""弱我""]","","","","","","","","no","","","","","","","","","SRET","EW_formal","","key","j","8.418218274111652","586.9333333333333","380","自己","无助","Negative","ability","","","","","","","","","","",""
"618","","j","psychophysics","77","202160","0.0-7.0-3.0-0.63","6","5","6","7","5","5","2","5","5","4","5","1","-1","1","1","1","2","1","2","5","4","5","4","4","5","4","5","5","4","6","5","6","7","6","7","7","6","6","6","6","3","6","6","6","7","1","6","5","1","5","5","6","2","7","6","6","6","1","5","6","6","5","7","5","6","6","6","5","7","5","5","6","3","6","6","6","6","6","7","772056166992973826","侯","46","Female","[""坏她"",""好她"",""好我"",""坏我""]","[""弱她"",""强她"",""强我"",""弱我""]","","","","","","","","no","","","","","","","","","SRET","EW_formal","","key","j","8.420020833333334","586.9333333333333","380","自己","阴毒","Negative","morality","","","","","","","","","","",""
"592","","j","psychophysics","78","203761","0.0-7.0-3.0-0.64","6","5","6","7","5","5","2","5","5","4","5","1","-1","1","1","1","2","1","2","5","4","5","4","4","5","4","5","5","4","6","5","6","7","6","7","7","6","6","6","6","3","6","6","6","7","1","6","5","1","5","5","6","2","7","6","6","6","1","5","6","6","5","7","5","6","6","6","5","7","5","5","6","3","6","6","6","6","6","7","772056166992973826","侯","46","Female","[""坏她"",""好她"",""好我"",""坏我""]","[""弱她"",""强她"",""强我"",""弱我""]","","","","","","","","no","","","","","","","","","SRET","EW_formal","","key","j","8.466835106382899","586.9333333333333","380","朋友","蛇蝎","Negative","morality","","","","","","","","","","",""
"852","","f","psychophysics","79","205621","0.0-7.0-3.0-0.65","6","5","6","7","5","5","2","5","5","4","5","1","-1","1","1","1","2","1","2","5","4","5","4","4","5","4","5","5","4","6","5","6","7","6","7","7","6","6","6","6","3","6","6","6","7","1","6","5","1","5","5","6","2","7","6","6","6","1","5","6","6","5","7","5","6","6","6","5","7","5","5","6","3","6","6","6","6","6","7","772056166992973826","侯","46","Female","[""坏她"",""好她"",""好我"",""坏我""]","[""弱她"",""强她"",""强我"",""弱我""]","","","","","","","","yes","","","","","","","","","SRET","EW_formal","","key","f","8.409095454545538","586.9333333333333","380","自己","周到","Positive","ability","","","","","","","","","","",""
"752","","j","psychophysics","80","207378","0.0-7.0-3.0-0.66","6","5","6","7","5","5","2","5","5","4","5","1","-1","1","1","1","2","1","2","5","4","5","4","4","5","4","5","5","4","6","5","6","7","6","7","7","6","6","6","6","3","6","6","6","7","1","6","5","1","5","5","6","2","7","6","6","6","1","5","6","6","5","7","5","6","6","6","5","7","5","5","6","3","6","6","6","6","6","7","772056166992973826","侯","46","Female","[""坏她"",""好她"",""好我"",""坏我""]","[""弱她"",""强她"",""强我"",""弱我""]","","","","","","","","no","","","","","","","","","SRET","EW_formal","","key","j","8.414120192307774","586.9333333333333","380","自己","笨蛋","Negative","ability","","","","","","","","","","",""
"748","","f","psychophysics","81","209132","0.0-7.0-3.0-0.67","6","5","6","7","5","5","2","5","5","4","5","1","-1","1","1","1","2","1","2","5","4","5","4","4","5","4","5","5","4","6","5","6","7","6","7","7","6","6","6","6","3","6","6","6","7","1","6","5","1","5","5","6","2","7","6","6","6","1","5","6","6","5","7","5","6","6","6","5","7","5","5","6","3","6","6","6","6","6","7","772056166992973826","侯","46","Female","[""坏她"",""好她"",""好我"",""坏我""]","[""弱她"",""强她"",""强我"",""弱我""]","","","","","","","","yes","","","","","","","","","SRET","EW_formal","","key","f","8.454470873786475","586.9333333333333","380","自己","变通","Positive","ability","","","","","","","","","","",""
"510","","j","psychophysics","82","210647","0.0-7.0-3.0-0.68","6","5","6","7","5","5","2","5","5","4","5","1","-1","1","1","1","2","1","2","5","4","5","4","4","5","4","5","5","4","6","5","6","7","6","7","7","6","6","6","6","3","6","6","6","7","1","6","5","1","5","5","6","2","7","6","6","6","1","5","6","6","5","7","5","6","6","6","5","7","5","5","6","3","6","6","6","6","6","7","772056166992973826","侯","46","Female","[""坏她"",""好她"",""好我"",""坏我""]","[""弱她"",""强她"",""强我"",""弱我""]","","","","","","","","no","","","","","","","","","SRET","EW_formal","","key","j","8.473730337078614","586.9333333333333","380","朋友","腐败","Negative","morality","","","","","","","","","","",""
"601","","j","psychophysics","83","212252","0.0-7.0-3.0-0.69","6","5","6","7","5","5","2","5","5","4","5","1","-1","1","1","1","2","1","2","5","4","5","4","4","5","4","5","5","4","6","5","6","7","6","7","7","6","6","6","6","3","6","6","6","7","1","6","5","1","5","5","6","2","7","6","6","6","1","5","6","6","5","7","5","6","6","6","5","7","5","5","6","3","6","6","6","6","6","7","772056166992973826","侯","46","Female","[""坏她"",""好她"",""好我"",""坏我""]","[""弱她"",""强她"",""强我"",""弱我""]","","","","","","","","no","","","","","","","","","SRET","EW_formal","","key","j","8.421215789473775","586.9333333333333","380","朋友","畏难","Negative","ability","","","","","","","","","","",""
"761","","f","psychophysics","84","214021","0.0-7.0-3.0-0.70","6","5","6","7","5","5","2","5","5","4","5","1","-1","1","1","1","2","1","2","5","4","5","4","4","5","4","5","5","4","6","5","6","7","6","7","7","6","6","6","6","3","6","6","6","7","1","6","5","1","5","5","6","2","7","6","6","6","1","5","6","6","5","7","5","6","6","6","5","7","5","5","6","3","6","6","6","6","6","7","772056166992973826","侯","46","Female","[""坏她"",""好她"",""好我"",""坏我""]","[""弱她"",""强她"",""强我"",""弱我""]","","","","","","","","yes","","","","","","","","","SRET","EW_formal","","key","f","8.494028985507224","586.9333333333333","380","朋友","全才","Positive","ability","","","","","","","","","","",""
"493","","j","psychophysics","85","215520","0.0-7.0-3.0-0.71","6","5","6","7","5","5","2","5","5","4","5","1","-1","1","1","1","2","1","2","5","4","5","4","4","5","4","5","5","4","6","5","6","7","6","7","7","6","6","6","6","3","6","6","6","7","1","6","5","1","5","5","6","2","7","6","6","6","1","5","6","6","5","7","5","6","6","6","5","7","5","5","6","3","6","6","6","6","6","7","772056166992973826","侯","46","Female","[""坏她"",""好她"",""好我"",""坏我""]","[""弱她"",""强她"",""强我"",""弱我""]","","","","","","","","no","","","","","","","","","SRET","EW_formal","","key","j","8.380477528089921","586.9333333333333","380","朋友","恶劣","Negative","morality","","","","","","","","","","",""
"493","","f","psychophysics","86","217020","0.0-7.0-3.0-0.72","6","5","6","7","5","5","2","5","5","4","5","1","-1","1","1","1","2","1","2","5","4","5","4","4","5","4","5","5","4","6","5","6","7","6","7","7","6","6","6","6","3","6","6","6","7","1","6","5","1","5","5","6","2","7","6","6","6","1","5","6","6","5","7","5","6","6","6","5","7","5","5","6","3","6","6","6","6","6","7","772056166992973826","侯","46","Female","[""坏她"",""好她"",""好我"",""坏我""]","[""弱她"",""强她"",""强我"",""弱我""]","","","","","","","","yes","","","","","","","","","SRET","EW_formal","","key","f","8.475426136363735","586.9333333333333","380","自己","高尚","Positive","morality","","","","","","","","","","",""
"806","","j","psychophysics","87","218837","0.0-7.0-3.0-0.73","6","5","6","7","5","5","2","5","5","4","5","1","-1","1","1","1","2","1","2","5","4","5","4","4","5","4","5","5","4","6","5","6","7","6","7","7","6","6","6","6","3","6","6","6","7","1","6","5","1","5","5","6","2","7","6","6","6","1","5","6","6","5","7","5","6","6","6","5","7","5","5","6","3","6","6","6","6","6","7","772056166992973826","侯","46","Female","[""坏她"",""好她"",""好我"",""坏我""]","[""弱她"",""强她"",""强我"",""弱我""]","","","","","","","","no","","","","","","","","","SRET","EW_formal","","key","j","8.37189814814809","586.9333333333333","380","朋友","外行","Negative","ability","","","","","","","","","","",""
"703","","f","psychophysics","88","220547","0.0-7.0-3.0-0.74","6","5","6","7","5","5","2","5","5","4","5","1","-1","1","1","1","2","1","2","5","4","5","4","4","5","4","5","5","4","6","5","6","7","6","7","7","6","6","6","6","3","6","6","6","7","1","6","5","1","5","5","6","2","7","6","6","6","1","5","6","6","5","7","5","6","6","6","5","7","5","5","6","3","6","6","6","6","6","7","772056166992973826","侯","46","Female","[""坏她"",""好她"",""好我"",""坏我""]","[""弱她"",""强她"",""强我"",""弱我""]","","","","","","","","yes","","","","","","","","","SRET","EW_formal","","key","f","8.416000000000032","586.9333333333333","380","自己","沉着","Positive","ability","","","","","","","","","","",""
"569","","f","psychophysics","89","222121","0.0-7.0-3.0-0.75","6","5","6","7","5","5","2","5","5","4","5","1","-1","1","1","1","2","1","2","5","4","5","4","4","5","4","5","5","4","6","5","6","7","6","7","7","6","6","6","6","3","6","6","6","7","1","6","5","1","5","5","6","2","7","6","6","6","1","5","6","6","5","7","5","6","6","6","5","7","5","5","6","3","6","6","6","6","6","7","772056166992973826","侯","46","Female","[""坏她"",""好她"",""好我"",""坏我""]","[""弱她"",""强她"",""强我"",""弱我""]","","","","","","","","yes","","","","","","","","","SRET","EW_formal","","key","f","8.468821621621563","586.9333333333333","380","自己","干练","Positive","ability","","","","","","","","","","",""
"478","","j","psychophysics","90","223606","0.0-7.0-3.0-0.76","6","5","6","7","5","5","2","5","5","4","5","1","-1","1","1","1","2","1","2","5","4","5","4","4","5","4","5","5","4","6","5","6","7","6","7","7","6","6","6","6","3","6","6","6","7","1","6","5","1","5","5","6","2","7","6","6","6","1","5","6","6","5","7","5","6","6","6","5","7","5","5","6","3","6","6","6","6","6","7","772056166992973826","侯","46","Female","[""坏她"",""好她"",""好我"",""坏我""]","[""弱她"",""强她"",""强我"",""弱我""]","","","","","","","","no","","","","","","","","","SRET","EW_formal","","key","j","8.42830285714274","586.9333333333333","380","自己","无赖","Negative","morality","","","","","","","","","","",""
"558","","j","psychophysics","91","225169","0.0-7.0-3.0-0.77","6","5","6","7","5","5","2","5","5","4","5","1","-1","1","1","1","2","1","2","5","4","5","4","4","5","4","5","5","4","6","5","6","7","6","7","7","6","6","6","6","3","6","6","6","7","1","6","5","1","5","5","6","2","7","6","6","6","1","5","6","6","5","7","5","6","6","6","5","7","5","5","6","3","6","6","6","6","6","7","772056166992973826","侯","46","Female","[""坏她"",""好她"",""好我"",""坏我""]","[""弱她"",""强她"",""强我"",""弱我""]","","","","","","","","no","","","","","","","","","SRET","EW_formal","","key","j","8.423443243243241","586.9333333333333","380","朋友","差生","Negative","ability","","","","","","","","","","",""
"508","","j","psychophysics","92","226685","0.0-7.0-3.0-0.78","6","5","6","7","5","5","2","5","5","4","5","1","-1","1","1","1","2","1","2","5","4","5","4","4","5","4","5","5","4","6","5","6","7","6","7","7","6","6","6","6","3","6","6","6","7","1","6","5","1","5","5","6","2","7","6","6","6","1","5","6","6","5","7","5","6","6","6","5","7","5","5","6","3","6","6","6","6","6","7","772056166992973826","侯","46","Female","[""坏她"",""好她"",""好我"",""坏我""]","[""弱她"",""强她"",""强我"",""弱我""]","","","","","","","","no","","","","","","","","","SRET","EW_formal","","key","j","8.474853932584297","586.9333333333333","380","自己","短视","Negative","ability","","","","","","","","","","",""
"444","","j","psychophysics","93","228137","0.0-7.0-3.0-0.79","6","5","6","7","5","5","2","5","5","4","5","1","-1","1","1","1","2","1","2","5","4","5","4","4","5","4","5","5","4","6","5","6","7","6","7","7","6","6","6","6","3","6","6","6","7","1","6","5","1","5","5","6","2","7","6","6","6","1","5","6","6","5","7","5","6","6","6","5","7","5","5","6","3","6","6","6","6","6","7","772056166992973826","侯","46","Female","[""坏她"",""好她"",""好我"",""坏我""]","[""弱她"",""强她"",""强我"",""弱我""]","","","","","","","","no","","","","","","","","","SRET","EW_formal","","key","j","8.381558139535036","586.9333333333333","380","自己","无私","Positive","morality","","","","","","","","","","",""
"1034","","j","psychophysics","94","230178","0.0-7.0-3.0-0.80","6","5","6","7","5","5","2","5","5","4","5","1","-1","1","1","1","2","1","2","5","4","5","4","4","5","4","5","5","4","6","5","6","7","6","7","7","6","6","6","6","3","6","6","6","7","1","6","5","1","5","5","6","2","7","6","6","6","1","5","6","6","5","7","5","6","6","6","5","7","5","5","6","3","6","6","6","6","6","7","772056166992973826","侯","46","Female","[""坏她"",""好她"",""好我"",""坏我""]","[""弱她"",""强她"",""强我"",""弱我""]","","","","","","","","no","","","","","","","","","SRET","EW_formal","","key","j","8.333368852459033","586.9333333333333","380","自己","奸诈","Negative","morality","","","","","","","","","","",""
"643","","f","psychophysics","95","231829","0.0-7.0-3.0-0.81","6","5","6","7","5","5","2","5","5","4","5","1","-1","1","1","1","2","1","2","5","4","5","4","4","5","4","5","5","4","6","5","6","7","6","7","7","6","6","6","6","3","6","6","6","7","1","6","5","1","5","5","6","2","7","6","6","6","1","5","6","6","5","7","5","6","6","6","5","7","5","5","6","3","6","6","6","6","6","7","772056166992973826","侯","46","Female","[""坏她"",""好她"",""好我"",""坏我""]","[""弱她"",""强她"",""强我"",""弱我""]","","","","","","","","yes","","","","","","","","","SRET","EW_formal","","key","f","8.333532994923885","586.9333333333333","380","朋友","清廉","Positive","morality","","","","","","","","","","",""
"556","","j","psychophysics","96","233389","0.0-7.0-3.0-0.82","6","5","6","7","5","5","2","5","5","4","5","1","-1","1","1","1","2","1","2","5","4","5","4","4","5","4","5","5","4","6","5","6","7","6","7","7","6","6","6","6","3","6","6","6","7","1","6","5","1","5","5","6","2","7","6","6","6","1","5","6","6","5","7","5","6","6","6","5","7","5","5","6","3","6","6","6","6","6","7","772056166992973826","侯","46","Female","[""坏她"",""好她"",""好我"",""坏我""]","[""弱她"",""强她"",""强我"",""弱我""]","","","","","","","","no","","","","","","","","","SRET","EW_formal","","key","j","8.423472826087083","586.9333333333333","380","朋友","狡狯","Negative","morality","","","","","","","","","","",""
"1018","","j","psychophysics","97","235413","0.0-7.0-3.0-0.83","6","5","6","7","5","5","2","5","5","4","5","1","-1","1","1","1","2","1","2","5","4","5","4","4","5","4","5","5","4","6","5","6","7","6","7","7","6","6","6","6","3","6","6","6","7","1","6","5","1","5","5","6","2","7","6","6","6","1","5","6","6","5","7","5","6","6","6","5","7","5","5","6","3","6","6","6","6","6","7","772056166992973826","侯","46","Female","[""坏她"",""好她"",""好我"",""坏我""]","[""弱她"",""强她"",""强我"",""弱我""]","","","","","","","","no","","","","","","","","","SRET","EW_formal","","key","j","8.334219008264437","586.9333333333333","380","朋友","奸险","Negative","morality","","","","","","","","","","",""
"613","","f","psychophysics","98","237031","0.0-7.0-3.0-0.84","6","5","6","7","5","5","2","5","5","4","5","1","-1","1","1","1","2","1","2","5","4","5","4","4","5","4","5","5","4","6","5","6","7","6","7","7","6","6","6","6","3","6","6","6","7","1","6","5","1","5","5","6","2","7","6","6","6","1","5","6","6","5","7","5","6","6","6","5","7","5","5","6","3","6","6","6","6","6","7","772056166992973826","侯","46","Female","[""坏她"",""好她"",""好我"",""坏我""]","[""弱她"",""强她"",""强我"",""弱我""]","","","","","","","","yes","","","","","","","","","SRET","EW_formal","","key","f","8.332932642487016","586.9333333333333","380","自己","主见","Positive","ability","","","","","","","","","","",""
"574","","f","psychophysics","99","238610","0.0-7.0-3.0-0.85","6","5","6","7","5","5","2","5","5","4","5","1","-1","1","1","1","2","1","2","5","4","5","4","4","5","4","5","5","4","6","5","6","7","6","7","7","6","6","6","6","3","6","6","6","7","1","6","5","1","5","5","6","2","7","6","6","6","1","5","6","6","5","7","5","6","6","6","5","7","5","5","6","3","6","6","6","6","6","7","772056166992973826","侯","46","Female","[""坏她"",""好她"",""好我"",""坏我""]","[""弱她"",""强她"",""强我"",""弱我""]","","","","","","","","yes","","","","","","","","","SRET","EW_formal","","key","f","8.467838709677478","586.9333333333333","380","朋友","素养","Positive","morality","","","","","","","","","","",""
"1050","","j","psychophysics","100","240663","0.0-7.0-3.0-0.86","6","5","6","7","5","5","2","5","5","4","5","1","-1","1","1","1","2","1","2","5","4","5","4","4","5","4","5","5","4","6","5","6","7","6","7","7","6","6","6","6","3","6","6","6","7","1","6","5","1","5","5","6","2","7","6","6","6","1","5","6","6","5","7","5","6","6","6","5","7","5","5","6","3","6","6","6","6","6","7","772056166992973826","侯","46","Female","[""坏她"",""好她"",""好我"",""坏我""]","[""弱她"",""强她"",""强我"",""弱我""]","","","","","","","","no","","","","","","","","","SRET","EW_formal","","key","j","8.402288065843717","586.9333333333333","380","自己","缓慢","Negative","ability","","","","","","","","","","",""
"600","","j","psychophysics","101","242269","0.0-7.0-3.0-0.87","6","5","6","7","5","5","2","5","5","4","5","1","-1","1","1","1","2","1","2","5","4","5","4","4","5","4","5","5","4","6","5","6","7","6","7","7","6","6","6","6","3","6","6","6","7","1","6","5","1","5","5","6","2","7","6","6","6","1","5","6","6","5","7","5","6","6","6","5","7","5","5","6","3","6","6","6","6","6","7","772056166992973826","侯","46","Female","[""坏她"",""好她"",""好我"",""坏我""]","[""弱她"",""强她"",""强我"",""弱我""]","","","","","","","","no","","","","","","","","","SRET","EW_formal","","key","j","8.333291666666659","586.9333333333333","380","朋友","低俗","Negative","morality","","","","","","","","","","",""
"5765","
    <p><div style='color:white;font-size:35px; line-height:20px;'>计算任务</div></p><br>
    <p><div style='color:red;font-size:25px; line-height:20px;'>接下来，您将看到一些四则运算题，<b>请从键盘选择 0-9 进行反应。</b></div></p>
    <p><div style='color:red;font-size:25px; line-height:20px;'>请尽可能快地进行计算，计算的速度和正确率将影响报酬的发放。</div></p>
    <p><div class='footer' style='color:white;font-size:25px; line-height:20px;'>如果对本实验还有不清楚之处，请立即向实验员咨询。</p><p style='color:white;font-size:25px; line-height:20px;'>如果您明白了规则：</p><p style='color:white;font-size:22px; line-height:20px;'>请按 继续 进入练习</p>
    </div>
    ","0","html-button-response","102","248038","0.0-7.0-4.0","6","5","6","7","5","5","2","5","5","4","5","1","-1","1","1","1","2","1","2","5","4","5","4","4","5","4","5","5","4","6","5","6","7","6","7","7","6","6","6","6","3","6","6","6","7","1","6","5","1","5","5","6","2","7","6","6","6","1","5","6","6","5","7","5","6","6","6","5","7","5","5","6","3","6","6","6","6","6","7","772056166992973826","侯","46","Female","[""坏她"",""好她"",""好我"",""坏我""]","[""弱她"",""强她"",""强我"",""弱我""]","","","","","","","","","","","","","","","","","SRET_math","math_instructions","Thu Jan 11 2024 12:52:25 GMT+0800 (中国标准时间)","","","","","","","","","","","","","","","","","","","",""
"2580","","9","psychophysics","103","250627","0.0-7.0-5.0-0.0","6","5","6","7","5","5","2","5","5","4","5","1","-1","1","1","1","2","1","2","5","4","5","4","4","5","4","5","5","4","6","5","6","7","6","7","7","6","6","6","6","3","6","6","6","7","1","6","5","1","5","5","6","2","7","6","6","6","1","5","6","6","5","7","5","6","6","6","5","7","5","5","6","3","6","6","6","6","6","7","772056166992973826","侯","46","Female","[""坏她"",""好她"",""好我"",""坏我""]","[""弱她"",""强她"",""强我"",""弱我""]","","","","","","","","9","","","","","","","","","SRET","SRET_math_calculate","","key","9","9.360010869565155","586.9333333333333","380","","","","","81/9= ?","9","1","","","","","","","",""
"3001","","5","psychophysics","104","253642","0.0-7.0-5.0-0.1","6","5","6","7","5","5","2","5","5","4","5","1","-1","1","1","1","2","1","2","5","4","5","4","4","5","4","5","5","4","6","5","6","7","6","7","7","6","6","6","6","3","6","6","6","7","1","6","5","1","5","5","6","2","7","6","6","6","1","5","6","6","5","7","5","6","6","6","5","7","5","5","6","3","6","6","6","6","6","7","772056166992973826","侯","46","Female","[""坏她"",""好她"",""好我"",""坏我""]","[""弱她"",""强她"",""强我"",""弱我""]","","","","","","","","5","","","","","","","","","SRET","SRET_math_calculate","","key","5","9.906357615894043","586.9333333333333","380","","","","","7+2= ?","9","0","","","","","","","",""
"2511","","7","psychophysics","105","256163","0.0-7.0-5.0-0.2","6","5","6","7","5","5","2","5","5","4","5","1","-1","1","1","1","2","1","2","5","4","5","4","4","5","4","5","5","4","6","5","6","7","6","7","7","6","6","6","6","3","6","6","6","7","1","6","5","1","5","5","6","2","7","6","6","6","1","5","6","6","5","7","5","6","6","6","5","7","5","5","6","3","6","6","6","6","6","7","772056166992973826","侯","46","Female","[""坏她"",""好她"",""好我"",""坏我""]","[""弱她"",""强她"",""强我"",""弱我""]","","","","","","","","7","","","","","","","","","SRET","SRET_math_calculate","","key","7","9.093846715328388","586.9333333333333","380","","","","","2+5= ?","7","1","","","","","","","",""
"2420","","6","psychophysics","106","258593","0.0-7.0-5.0-0.3","6","5","6","7","5","5","2","5","5","4","5","1","-1","1","1","1","2","1","2","5","4","5","4","4","5","4","5","5","4","6","5","6","7","6","7","7","6","6","6","6","3","6","6","6","7","1","6","5","1","5","5","6","2","7","6","6","6","1","5","6","6","5","7","5","6","6","6","5","7","5","5","6","3","6","6","6","6","6","7","772056166992973826","侯","46","Female","[""坏她"",""好她"",""好我"",""坏我""]","[""弱她"",""强她"",""强我"",""弱我""]","","","","","","","","6","","","","","","","","","SRET","SRET_math_calculate","","key","6","8.988910112359513","586.9333333333333","380","","","","","9-3= ?","6","1","","","","","","","",""
"2216","","0","psychophysics","107","260847","0.0-7.0-5.0-0.4","6","5","6","7","5","5","2","5","5","4","5","1","-1","1","1","1","2","1","2","5","4","5","4","4","5","4","5","5","4","6","5","6","7","6","7","7","6","6","6","6","3","6","6","6","7","1","6","5","1","5","5","6","2","7","6","6","6","1","5","6","6","5","7","5","6","6","6","5","7","5","5","6","3","6","6","6","6","6","7","772056166992973826","侯","46","Female","[""坏她"",""好她"",""好我"",""坏我""]","[""弱她"",""强她"",""强我"",""弱我""]","","","","","","","","0","","","","","","","","","SRET","SRET_math_calculate","","key","0","8.722517509727647","586.9333333333333","380","","","","","22-22= ?","0","1","","","","","","","",""
"2249","","5","psychophysics","108","263139","0.0-7.0-5.0-0.5","6","5","6","7","5","5","2","5","5","4","5","1","-1","1","1","1","2","1","2","5","4","5","4","4","5","4","5","5","4","6","5","6","7","6","7","7","6","6","6","6","3","6","6","6","7","1","6","5","1","5","5","6","2","7","6","6","6","1","5","6","6","5","7","5","6","6","6","5","7","5","5","6","3","6","6","6","6","6","7","772056166992973826","侯","46","Female","[""坏她"",""好她"",""好我"",""坏我""]","[""弱她"",""强她"",""强我"",""弱我""]","","","","","","","","5","","","","","","","","","SRET","SRET_math_calculate","","key","5","8.71789615384612","586.9333333333333","380","","","","","3+2= ?","5","1","","","","","","","",""
"2024","","5","psychophysics","109","265172","0.0-7.0-5.0-0.6","6","5","6","7","5","5","2","5","5","4","5","1","-1","1","1","1","2","1","2","5","4","5","4","4","5","4","5","5","4","6","5","6","7","6","7","7","6","6","6","6","3","6","6","6","7","1","6","5","1","5","5","6","2","7","6","6","6","1","5","6","6","5","7","5","6","6","6","5","7","5","5","6","3","6","6","6","6","6","7","772056166992973826","侯","46","Female","[""坏她"",""好她"",""好我"",""坏我""]","[""弱她"",""强她"",""强我"",""弱我""]","","","","","","","","5","","","","","","","","","SRET","SRET_math_calculate","","key","5","8.402466666666685","586.9333333333333","380","","","","","2+3= ?","5","1","","","","","","","",""
"2154","","9","psychophysics","110","267337","0.0-7.0-5.0-0.7","6","5","6","7","5","5","2","5","5","4","5","1","-1","1","1","1","2","1","2","5","4","5","4","4","5","4","5","5","4","6","5","6","7","6","7","7","6","6","6","6","3","6","6","6","7","1","6","5","1","5","5","6","2","7","6","6","6","1","5","6","6","5","7","5","6","6","6","5","7","5","5","6","3","6","6","6","6","6","7","772056166992973826","侯","46","Female","[""坏她"",""好她"",""好我"",""坏我""]","[""弱她"",""强她"",""强我"",""弱我""]","","","","","","","","9","","","","","","","","","SRET","SRET_math_calculate","","key","9","8.398295719844446","586.9333333333333","380","","","","","4+5= ?","9","1","","","","","","","",""
"2096","","6","psychophysics","111","269441","0.0-7.0-5.0-0.8","6","5","6","7","5","5","2","5","5","4","5","1","-1","1","1","1","2","1","2","5","4","5","4","4","5","4","5","5","4","6","5","6","7","6","7","7","6","6","6","6","3","6","6","6","7","1","6","5","1","5","5","6","2","7","6","6","6","1","5","6","6","5","7","5","6","6","6","5","7","5","5","6","3","6","6","6","6","6","7","772056166992973826","侯","46","Female","[""坏她"",""好她"",""好我"",""坏我""]","[""弱她"",""强她"",""强我"",""弱我""]","","","","","","","","6","","","","","","","","","SRET","SRET_math_calculate","","key","6","8.366159999999915","586.9333333333333","380","","","","","5+1= ?","6","1","","","","","","","",""
"1906","","4","psychophysics","112","271355","0.0-7.0-5.0-0.9","6","5","6","7","5","5","2","5","5","4","5","1","-1","1","1","1","2","1","2","5","4","5","4","4","5","4","5","5","4","6","5","6","7","6","7","7","6","6","6","6","3","6","6","6","7","1","6","5","1","5","5","6","2","7","6","6","6","1","5","6","6","5","7","5","6","6","6","5","7","5","5","6","3","6","6","6","6","6","7","772056166992973826","侯","46","Female","[""坏她"",""好她"",""好我"",""坏我""]","[""弱她"",""强她"",""强我"",""弱我""]","","","","","","","","4","","","","","","","","","SRET","SRET_math_calculate","","key","4","8.481004444444293","586.9333333333333","380","","","","","2+2= ?","4","1","","","","","","","",""
"2425","","8","psychophysics","113","273822","0.0-7.0-5.0-0.10","6","5","6","7","5","5","2","5","5","4","5","1","-1","1","1","1","2","1","2","5","4","5","4","4","5","4","5","5","4","6","5","6","7","6","7","7","6","6","6","6","3","6","6","6","7","1","6","5","1","5","5","6","2","7","6","6","6","1","5","6","6","5","7","5","6","6","6","5","7","5","5","6","3","6","6","6","6","6","7","772056166992973826","侯","46","Female","[""坏她"",""好她"",""好我"",""坏我""]","[""弱她"",""强她"",""强我"",""弱我""]","","","","","","","","8","","","","","","","","","SRET","SRET_math_calculate","","key","8","9.071870848708322","586.9333333333333","380","","","","","1*8= ?","8","1","","","","","","","",""
"2040","","8","psychophysics","114","275872","0.0-7.0-5.0-0.11","6","5","6","7","5","5","2","5","5","4","5","1","-1","1","1","1","2","1","2","5","4","5","4","4","5","4","5","5","4","6","5","6","7","6","7","7","6","6","6","6","3","6","6","6","7","1","6","5","1","5","5","6","2","7","6","6","6","1","5","6","6","5","7","5","6","6","6","5","7","5","5","6","3","6","6","6","6","6","7","772056166992973826","侯","46","Female","[""坏她"",""好她"",""好我"",""坏我""]","[""弱她"",""强她"",""强我"",""弱我""]","","","","","","","","8","","","","","","","","","SRET","SRET_math_calculate","","key","8","8.437166666666599","586.9333333333333","380","","","","","5+3= ?","8","1","","","","","","","",""
"1938","","4","psychophysics","115","277821","0.0-7.0-5.0-0.12","6","5","6","7","5","5","2","5","5","4","5","1","-1","1","1","1","2","1","2","5","4","5","4","4","5","4","5","5","4","6","5","6","7","6","7","7","6","6","6","6","3","6","6","6","7","1","6","5","1","5","5","6","2","7","6","6","6","1","5","6","6","5","7","5","6","6","6","5","7","5","5","6","3","6","6","6","6","6","7","772056166992973826","侯","46","Female","[""坏她"",""好她"",""好我"",""坏我""]","[""弱她"",""强她"",""强我"",""弱我""]","","","","","","","","4","","","","","","","","","SRET","SRET_math_calculate","","key","4","8.369396551723938","586.9333333333333","380","","","","","3+1= ?","4","1","","","","","","","",""
"3082","","9","psychophysics","116","280914","0.0-7.0-5.0-0.13","6","5","6","7","5","5","2","5","5","4","5","1","-1","1","1","1","2","1","2","5","4","5","4","4","5","4","5","5","4","6","5","6","7","6","7","7","6","6","6","6","3","6","6","6","7","1","6","5","1","5","5","6","2","7","6","6","6","1","5","6","6","5","7","5","6","6","6","5","7","5","5","6","3","6","6","6","6","6","7","772056166992973826","侯","46","Female","[""坏她"",""好她"",""好我"",""坏我""]","[""弱她"",""强她"",""强我"",""弱我""]","","","","","","","","9","","","","","","","","","SRET","SRET_math_calculate","","key","9","9.919809677419366","586.9333333333333","380","","","","","18/2= ?","9","1","","","","","","","",""
"2375","","3","psychophysics","117","283298","0.0-7.0-5.0-0.14","6","5","6","7","5","5","2","5","5","4","5","1","-1","1","1","1","2","1","2","5","4","5","4","4","5","4","5","5","4","6","5","6","7","6","7","7","6","6","6","6","3","6","6","6","7","1","6","5","1","5","5","6","2","7","6","6","6","1","5","6","6","5","7","5","6","6","6","5","7","5","5","6","3","6","6","6","6","6","7","772056166992973826","侯","46","Female","[""坏她"",""好她"",""好我"",""坏我""]","[""弱她"",""强她"",""强我"",""弱我""]","","","","","","","","3","","","","","","","","","SRET","SRET_math_calculate","","key","3","8.931011320754692","586.9333333333333","380","","","","","8-6= ?","2","0","","","","","","","",""
"3006","","2","psychophysics","118","286314","0.0-7.0-5.0-0.15","6","5","6","7","5","5","2","5","5","4","5","1","-1","1","1","1","2","1","2","5","4","5","4","4","5","4","5","5","4","6","5","6","7","6","7","7","6","6","6","6","3","6","6","6","7","1","6","5","1","5","5","6","2","7","6","6","6","1","5","6","6","5","7","5","6","6","6","5","7","5","5","6","3","6","6","6","6","6","7","772056166992973826","侯","46","Female","[""坏她"",""好她"",""好我"",""坏我""]","[""弱她"",""强她"",""强我"",""弱我""]","","","","","","","","2","","","","","","","","","SRET","SRET_math_calculate","","key","2","9.81372697368428","586.9333333333333","380","","","","","19-17= ?","2","1","","","","","","","",""
"3740","","5","psychophysics","119","290064","0.0-7.0-5.0-0.16","6","5","6","7","5","5","2","5","5","4","5","1","-1","1","1","1","2","1","2","5","4","5","4","4","5","4","5","5","4","6","5","6","7","6","7","7","6","6","6","6","3","6","6","6","7","1","6","5","1","5","5","6","2","7","6","6","6","1","5","6","6","5","7","5","6","6","6","5","7","5","5","6","3","6","6","6","6","6","7","772056166992973826","侯","46","Female","[""坏她"",""好她"",""好我"",""坏我""]","[""弱她"",""强她"",""强我"",""弱我""]","","","","","","","","5","","","","","","","","","SRET","SRET_math_calculate","","key","5","10.673504297994311","586.9333333333333","380","","","","","16-11= ?","5","1","","","","","","","",""
"2165","","1","psychophysics","120","292238","0.0-7.0-5.0-0.17","6","5","6","7","5","5","2","5","5","4","5","1","-1","1","1","1","2","1","2","5","4","5","4","4","5","4","5","5","4","6","5","6","7","6","7","7","6","6","6","6","3","6","6","6","7","1","6","5","1","5","5","6","2","7","6","6","6","1","5","6","6","5","7","5","6","6","6","5","7","5","5","6","3","6","6","6","6","6","7","772056166992973826","侯","46","Female","[""坏她"",""好她"",""好我"",""坏我""]","[""弱她"",""强她"",""强我"",""弱我""]","","","","","","","","1","","","","","","","","","SRET","SRET_math_calculate","","key","1","8.464109803921561","586.9333333333333","380","","","","","9-8= ?","1","1","","","","","","","",""
"3138","","9","psychophysics","121","295382","0.0-7.0-5.0-0.18","6","5","6","7","5","5","2","5","5","4","5","1","-1","1","1","1","2","1","2","5","4","5","4","4","5","4","5","5","4","6","5","6","7","6","7","7","6","6","6","6","3","6","6","6","7","1","6","5","1","5","5","6","2","7","6","6","6","1","5","6","6","5","7","5","6","6","6","5","7","5","5","6","3","6","6","6","6","6","7","772056166992973826","侯","46","Female","[""坏她"",""好她"",""好我"",""坏我""]","[""弱她"",""强她"",""强我"",""弱我""]","","","","","","","","9","","","","","","","","","SRET","SRET_math_calculate","","key","9","10.059582524271915","586.9333333333333","380","","","","","43-34= ?","9","1","","","","","","","",""
"2737","","4","psychophysics","122","298131","0.0-7.0-5.0-0.19","6","5","6","7","5","5","2","5","5","4","5","1","-1","1","1","1","2","1","2","5","4","5","4","4","5","4","5","5","4","6","5","6","7","6","7","7","6","6","6","6","3","6","6","6","7","1","6","5","1","5","5","6","2","7","6","6","6","1","5","6","6","5","7","5","6","6","6","5","7","5","5","6","3","6","6","6","6","6","7","772056166992973826","侯","46","Female","[""坏她"",""好她"",""好我"",""坏我""]","[""弱她"",""强她"",""强我"",""弱我""]","","","","","","","","4","","","","","","","","","SRET","SRET_math_calculate","","key","4","9.528188811188729","586.9333333333333","380","","","","","9-5= ?","4","1","","","","","","","",""
"2692","","3","psychophysics","123","300833","0.0-7.0-5.0-0.20","6","5","6","7","5","5","2","5","5","4","5","1","-1","1","1","1","2","1","2","5","4","5","4","4","5","4","5","5","4","6","5","6","7","6","7","7","6","6","6","6","3","6","6","6","7","1","6","5","1","5","5","6","2","7","6","6","6","1","5","6","6","5","7","5","6","6","6","5","7","5","5","6","3","6","6","6","6","6","7","772056166992973826","侯","46","Female","[""坏她"",""好她"",""好我"",""坏我""]","[""弱她"",""强她"",""强我"",""弱我""]","","","","","","","","3","","","","","","","","","SRET","SRET_math_calculate","","key","3","9.44850352112676","586.9333333333333","380","","","","","11-8= ?","3","1","","","","","","","",""
"3490","","2","psychophysics","124","304331","0.0-7.0-5.0-0.21","6","5","6","7","5","5","2","5","5","4","5","1","-1","1","1","1","2","1","2","5","4","5","4","4","5","4","5","5","4","6","5","6","7","6","7","7","6","6","6","6","3","6","6","6","7","1","6","5","1","5","5","6","2","7","6","6","6","1","5","6","6","5","7","5","6","6","6","5","7","5","5","6","3","6","6","6","6","6","7","772056166992973826","侯","46","Female","[""坏她"",""好她"",""好我"",""坏我""]","[""弱她"",""强她"",""强我"",""弱我""]","","","","","","","","2","","","","","","","","","SRET","SRET_math_calculate","","key","2","10.50517575757571","586.9333333333333","380","","","","","90/45= ?","2","1","","","","","","","",""
"3800","","5","psychophysics","125","308140","0.0-7.0-5.0-0.22","6","5","6","7","5","5","2","5","5","4","5","1","-1","1","1","1","2","1","2","5","4","5","4","4","5","4","5","5","4","6","5","6","7","6","7","7","6","6","6","6","3","6","6","6","7","1","6","5","1","5","5","6","2","7","6","6","6","1","5","6","6","5","7","5","6","6","6","5","7","5","5","6","3","6","6","6","6","6","7","772056166992973826","侯","46","Female","[""坏她"",""好她"",""好我"",""坏我""]","[""弱她"",""强她"",""强我"",""弱我""]","","","","","","","","5","","","","","","","","","SRET","SRET_math_calculate","","key","5","10.771948863636267","586.9333333333333","380","","","","","5/1= ?","5","1","","","","","","","",""
"2342","","5","psychophysics","126","310492","0.0-7.0-5.0-0.23","6","5","6","7","5","5","2","5","5","4","5","1","-1","1","1","1","2","1","2","5","4","5","4","4","5","4","5","5","4","6","5","6","7","6","7","7","6","6","6","6","3","6","6","6","7","1","6","5","1","5","5","6","2","7","6","6","6","1","5","6","6","5","7","5","6","6","6","5","7","5","5","6","3","6","6","6","6","6","7","772056166992973826","侯","46","Female","[""坏她"",""好她"",""好我"",""坏我""]","[""弱她"",""强她"",""强我"",""弱我""]","","","","","","","","5","","","","","","","","","SRET","SRET_math_calculate","","key","5","8.775208333333438","586.9333333333333","380","","","","","9-4= ?","5","1","","","","","","","",""
"2210","","3","psychophysics","127","312715","0.0-7.0-5.0-0.24","6","5","6","7","5","5","2","5","5","4","5","1","-1","1","1","1","2","1","2","5","4","5","4","4","5","4","5","5","4","6","5","6","7","6","7","7","6","6","6","6","3","6","6","6","7","1","6","5","1","5","5","6","2","7","6","6","6","1","5","6","6","5","7","5","6","6","6","5","7","5","5","6","3","6","6","6","6","6","7","772056166992973826","侯","46","Female","[""坏她"",""好她"",""好我"",""坏我""]","[""弱她"",""强她"",""强我"",""弱我""]","","","","","","","","3","","","","","","","","","SRET","SRET_math_calculate","","key","3","8.627218749999884","586.9333333333333","380","","","","","21/7=  ?","3","1","","","","","","","",""
"2976","","6","psychophysics","128","315742","0.0-7.0-5.0-0.25","6","5","6","7","5","5","2","5","5","4","5","1","-1","1","1","1","2","1","2","5","4","5","4","4","5","4","5","5","4","6","5","6","7","6","7","7","6","6","6","6","3","6","6","6","7","1","6","5","1","5","5","6","2","7","6","6","6","1","5","6","6","5","7","5","6","6","6","5","7","5","5","6","3","6","6","6","6","6","7","772056166992973826","侯","46","Female","[""坏她"",""好她"",""好我"",""坏我""]","[""弱她"",""强她"",""强我"",""弱我""]","","","","","","","","6","","","","","","","","","SRET","SRET_math_calculate","","key","6","9.994950166112895","586.9333333333333","380","","","","","2*3= ?","6","1","","","","","","","",""
"2105","","0","psychophysics","129","317856","0.0-7.0-5.0-0.26","6","5","6","7","5","5","2","5","5","4","5","1","-1","1","1","1","2","1","2","5","4","5","4","4","5","4","5","5","4","6","5","6","7","6","7","7","6","6","6","6","3","6","6","6","7","1","6","5","1","5","5","6","2","7","6","6","6","1","5","6","6","5","7","5","6","6","6","5","7","5","5","6","3","6","6","6","6","6","7","772056166992973826","侯","46","Female","[""坏她"",""好她"",""好我"",""坏我""]","[""弱她"",""强她"",""强我"",""弱我""]","","","","","","","","0","","","","","","","","","SRET","SRET_math_calculate","","key","0","8.434520161290317","586.9333333333333","380","","","","","9-9= ?","0","1","","","","","","","",""
"2491","","8","psychophysics","130","320375","0.0-7.0-5.0-0.27","6","5","6","7","5","5","2","5","5","4","5","1","-1","1","1","1","2","1","2","5","4","5","4","4","5","4","5","5","4","6","5","6","7","6","7","7","6","6","6","6","3","6","6","6","7","1","6","5","1","5","5","6","2","7","6","6","6","1","5","6","6","5","7","5","6","6","6","5","7","5","5","6","3","6","6","6","6","6","7","772056166992973826","侯","46","Female","[""坏她"",""好她"",""好我"",""坏我""]","[""弱她"",""强她"",""强我"",""弱我""]","","","","","","","","8","","","","","","","","","SRET","SRET_math_calculate","","key","8","9.129628676470661","586.9333333333333","380","","","","","4+4= ?","8","1","","","","","","","",""
"3441","","1","psychophysics","131","323858","0.0-7.0-5.0-0.28","6","5","6","7","5","5","2","5","5","4","5","1","-1","1","1","1","2","1","2","5","4","5","4","4","5","4","5","5","4","6","5","6","7","6","7","7","6","6","6","6","3","6","6","6","7","1","6","5","1","5","5","6","2","7","6","6","6","1","5","6","6","5","7","5","6","6","6","5","7","5","5","6","3","6","6","6","6","6","7","772056166992973826","侯","46","Female","[""坏她"",""好她"",""好我"",""坏我""]","[""弱她"",""强她"",""强我"",""弱我""]","","","","","","","","1","","","","","","","","","SRET","SRET_math_calculate","","key","1","10.530530303030337","586.9333333333333","380","","","","","4/4= ?","1","1","","","","","","","",""
"2101","","5","psychophysics","132","325971","0.0-7.0-5.0-0.29","6","5","6","7","5","5","2","5","5","4","5","1","-1","1","1","1","2","1","2","5","4","5","4","4","5","4","5","5","4","6","5","6","7","6","7","7","6","6","6","6","3","6","6","6","7","1","6","5","1","5","5","6","2","7","6","6","6","1","5","6","6","5","7","5","6","6","6","5","7","5","5","6","3","6","6","6","6","6","7","772056166992973826","侯","46","Female","[""坏她"",""好她"",""好我"",""坏我""]","[""弱她"",""强她"",""强我"",""弱我""]","","","","","","","","5","","","","","","","","","SRET","SRET_math_calculate","","key","5","8.366479999999981","586.9333333333333","380","","","","","4+1= ?","5","1","","","","","","","",""
"2005","","0","psychophysics","133","328012","0.0-7.0-5.0-0.30","6","5","6","7","5","5","2","5","5","4","5","1","-1","1","1","1","2","1","2","5","4","5","4","4","5","4","5","5","4","6","5","6","7","6","7","7","6","6","6","6","3","6","6","6","7","1","6","5","1","5","5","6","2","7","6","6","6","1","5","6","6","5","7","5","6","6","6","5","7","5","5","6","3","6","6","6","6","6","7","772056166992973826","侯","46","Female","[""坏她"",""好她"",""好我"",""坏我""]","[""弱她"",""强她"",""强我"",""弱我""]","","","","","","","","0","","","","","","","","","SRET","SRET_math_calculate","","key","0","8.402140495867645","586.9333333333333","380","","","","","1-1= ?","0","1","","","","","","","",""
"2152","","6","psychophysics","134","330201","0.0-7.0-5.0-0.31","6","5","6","7","5","5","2","5","5","4","5","1","-1","1","1","1","2","1","2","5","4","5","4","4","5","4","5","5","4","6","5","6","7","6","7","7","6","6","6","6","3","6","6","6","7","1","6","5","1","5","5","6","2","7","6","6","6","1","5","6","6","5","7","5","6","6","6","5","7","5","5","6","3","6","6","6","6","6","7","772056166992973826","侯","46","Female","[""坏她"",""好她"",""好我"",""坏我""]","[""弱她"",""强她"",""强我"",""弱我""]","","","","","","","","6","","","","","","","","","SRET","SRET_math_calculate","","key","6","8.597387351778753","586.9333333333333","380","","","","","8-2= ?","6","1","","","","","","","",""
"3130","","8","psychophysics","135","333340","0.0-7.0-5.0-0.32","6","5","6","7","5","5","2","5","5","4","5","1","-1","1","1","1","2","1","2","5","4","5","4","4","5","4","5","5","4","6","5","6","7","6","7","7","6","6","6","6","3","6","6","6","7","1","6","5","1","5","5","6","2","7","6","6","6","1","5","6","6","5","7","5","6","6","6","5","7","5","5","6","3","6","6","6","6","6","7","772056166992973826","侯","46","Female","[""坏她"",""好她"",""好我"",""坏我""]","[""弱她"",""强她"",""强我"",""弱我""]","","","","","","","","8","","","","","","","","","SRET","SRET_math_calculate","","key","8","10.08650485436906","586.9333333333333","380","","","","","8*1= ?","8","1","","","","","","","",""
"2393","","8","psychophysics","136","335741","0.0-7.0-5.0-0.33","6","5","6","7","5","5","2","5","5","4","5","1","-1","1","1","1","2","1","2","5","4","5","4","4","5","4","5","5","4","6","5","6","7","6","7","7","6","6","6","6","3","6","6","6","7","1","6","5","1","5","5","6","2","7","6","6","6","1","5","6","6","5","7","5","6","6","6","5","7","5","5","6","3","6","6","6","6","6","7","772056166992973826","侯","46","Female","[""坏她"",""好她"",""好我"",""坏我""]","[""弱她"",""强她"",""强我"",""弱我""]","","","","","","","","8","","","","","","","","","SRET","SRET_math_calculate","","key","8","8.9625283018866","586.9333333333333","380","","","","","50-42= ?","8","1","","","","","","","",""
"2255","","8","psychophysics","137","338005","0.0-7.0-5.0-0.34","6","5","6","7","5","5","2","5","5","4","5","1","-1","1","1","1","2","1","2","5","4","5","4","4","5","4","5","5","4","6","5","6","7","6","7","7","6","6","6","6","3","6","6","6","7","1","6","5","1","5","5","6","2","7","6","6","6","1","5","6","6","5","7","5","6","6","6","5","7","5","5","6","3","6","6","6","6","6","7","772056166992973826","侯","46","Female","[""坏她"",""好她"",""好我"",""坏我""]","[""弱她"",""强她"",""强我"",""弱我""]","","","","","","","","8","","","","","","","","","SRET","SRET_math_calculate","","key","8","8.724011718750035","586.9333333333333","380","","","","","1+7= ?","8","1","","","","","","","",""
"2284","","3","psychophysics","138","340331","0.0-7.0-5.0-0.35","6","5","6","7","5","5","2","5","5","4","5","1","-1","1","1","1","2","1","2","5","4","5","4","4","5","4","5","5","4","6","5","6","7","6","7","7","6","6","6","6","3","6","6","6","7","1","6","5","1","5","5","6","2","7","6","6","6","1","5","6","6","5","7","5","6","6","6","5","7","5","5","6","3","6","6","6","6","6","7","772056166992973826","侯","46","Female","[""坏她"",""好她"",""好我"",""坏我""]","[""弱她"",""强她"",""强我"",""弱我""]","","","","","","","","3","","","","","","","","","SRET","SRET_math_calculate","","key","3","8.880277992277874","586.9333333333333","380","","","","","2+1= ?","3","1","","","","","","","",""
"2449","","8","psychophysics","139","342788","0.0-7.0-5.0-0.36","6","5","6","7","5","5","2","5","5","4","5","1","-1","1","1","1","2","1","2","5","4","5","4","4","5","4","5","5","4","6","5","6","7","6","7","7","6","6","6","6","3","6","6","6","7","1","6","5","1","5","5","6","2","7","6","6","6","1","5","6","6","5","7","5","6","6","6","5","7","5","5","6","3","6","6","6","6","6","7","772056166992973826","侯","46","Female","[""坏她"",""好她"",""好我"",""坏我""]","[""弱她"",""强她"",""强我"",""弱我""]","","","","","","","","8","","","","","","","","","SRET","SRET_math_calculate","","key","8","8.880777372262717","586.9333333333333","380","","","","","2*4= ?","8","1","","","","","","","",""
"2359","","6","psychophysics","140","345157","0.0-7.0-5.0-0.37","6","5","6","7","5","5","2","5","5","4","5","1","-1","1","1","1","2","1","2","5","4","5","4","4","5","4","5","5","4","6","5","6","7","6","7","7","6","6","6","6","3","6","6","6","7","1","6","5","1","5","5","6","2","7","6","6","6","1","5","6","6","5","7","5","6","6","6","5","7","5","5","6","3","6","6","6","6","6","7","772056166992973826","侯","46","Female","[""坏她"",""好她"",""好我"",""坏我""]","[""弱她"",""强她"",""强我"",""弱我""]","","","","","","","","6","","","","","","","","","SRET","SRET_math_calculate","","key","6","8.935326996197643","586.9333333333333","380","","","","","11-5= ?","6","1","","","","","","","",""
