"rt","stimulus","response","trial_type","trial_index","time_elapsed","internal_node_id","swb_1","swb_2","swb_3","swb_4","swb_5","LOT_1","LOT_2","LOT_3","LOT_4","LOT_5","LOT_6","IPC_1","IPC_2","IPC_3","IPC_4","IPC_5","IPC_6","IPC_7","IPC_8","MorIden_1","MorIden_2","MorIden_3","MorIden_4","MorIden_5","MorIden_6","MorIden_7","MorIden_8","MorIden_9","MorIden_10","moralSeImag_1","moralSeImag_2","moralSeImag_3","moralSeImag_4","moralSeImag_5","moralSeImag_6","moralSeImag_7","moralSeImag_8","moralSeImag_9","sde_1","sde_2","sde_3","sde_4","sde_5","sde_6","sde_7","sde_8","sde_9","sde_10","trap2","sde_11","sde_12","sde_13","sde_14","sde_15","sde_16","sde_17","sde_18","sde_19","sde_20","IM_1","IM_2","IM_3","IM_4","IM_5","IM_6","IM_7","IM_8","IM_9","IM_10","IM_11","IM_12","IM_13","IM_14","IM_15","IM_16","IM_17","IM_18","IM_19","IM_20","subj_idx","friend_name","ParticipantID","Sex","Word","Word2","value","success","timeout","failed_images","failed_audio","failed_video","user_agent","responses","item_order","radio_event_ids","radio_event_times","key_event_times","mouse_event_times","straightlining","zigzagging","honeypot","task_id","screen_id","time_stamp","response_type","key_press","avg_frame_time","center_x","center_y","person","word","valence","domain","math","correct_response","correct","status","view_history","identity","duration","Image","condition","question_order","trap2_item"
"20595","
   <p><div style='color:white; font-size: 25px'>您好，欢迎参加本次实验。</div></p>
   <p><div style='color:white; font-size: 25px'>为充分保障您的权利，请确保您已经知晓并同意《参与实验同意书》以及《数据公开知情同意书》。</div></p>
   <p><div style='color:white; font-size: 25px'>如果您未见过上述内容，请咨询实验员。</div></p>
   <p style='color:white; font-size: 25px'>如果您选择继续实验，则表示您已经清楚两份知情同意书的内容并同意。</p>
   <p><div style = ""color: pink;font-size:30px;"">请确保您记得day0的实验编号，您将在本次实验输入该编号，若您忘记，请咨询实验员后作答。</div></p>
   <p><div style = ""color:lightblue;font-size:25px;"">请您尽可能认真地作答，我们将依据您在各问卷和按键任务中的作答质量发放报酬。</div></p>
   <p> <div style = ""color: green""><按空格键至下页></div> </p>
   "," ","html-keyboard-response","0","20597","0.0-0.0","7","6","6","7","6","5","4","4","5","5","5","1","2","1","-3","1","2","1","2","5","5","5","4","5","4","5","4","5","4","7","8","8","8","7","9","3","8","9","6","5","6","1","6","3","7","7","6","6","1","3","1","3","1","3","6","6","6","7","2","2","7","2","2","1","6","5","7","5","6","6","6","2","2","1","6","1","7","3","2","777135417253433345","李","272","Male","[""坏我"",""好他"",""好我"",""坏他""]","[""弱我"",""强他"",""强我"",""弱他""]","","","","","","","","","","","","","","","","","","","","","","","","","","","","","","","","","","","","","","",""
"","","","call-function","1","20597","0.0-1.0-0.0","7","6","6","7","6","5","4","4","5","5","5","1","2","1","-3","1","2","1","2","5","5","5","4","5","4","5","4","5","4","7","8","8","8","7","9","3","8","9","6","5","6","1","6","3","7","7","6","6","1","3","1","3","1","3","6","6","6","7","2","2","7","2","2","1","6","5","7","5","6","6","6","2","2","1","6","1","7","3","2","777135417253433345","李","272","Male","[""坏我"",""好他"",""好我"",""坏他""]","[""弱我"",""强他"",""强我"",""弱他""]","","","","","","","","","","","","","","","","","","","","","","","","","","","","","","","","","","","","","","",""
"18935","","[{""name"":""friend_name"",""value"":""李""},{""name"":""ParticipantID"",""value"":""272""}]","survey-html-form","2","39533","0.0-1.0-1.0","7","6","6","7","6","5","4","4","5","5","5","1","2","1","-3","1","2","1","2","5","5","5","4","5","4","5","4","5","4","7","8","8","8","7","9","3","8","9","6","5","6","1","6","3","7","7","6","6","1","3","1","3","1","3","6","6","6","7","2","2","7","2","2","1","6","5","7","5","6","6","6","2","2","1","6","1","7","3","2","777135417253433345","李","272","Male","[""坏我"",""好他"",""好我"",""坏他""]","[""弱我"",""强他"",""强我"",""弱他""]","","","","","","","","","","","","","","","","","","","","","","","","","","","","","","","","","","","","","","",""
"","","","preload","3","40130","0.0-2.0","7","6","6","7","6","5","4","4","5","5","5","1","2","1","-3","1","2","1","2","5","5","5","4","5","4","5","4","5","4","7","8","8","8","7","9","3","8","9","6","5","6","1","6","3","7","7","6","6","1","3","1","3","1","3","6","6","6","7","2","2","7","2","2","1","6","5","7","5","6","6","6","2","2","1","6","1","7","3","2","777135417253433345","李","272","Male","[""坏我"",""好他"",""好我"",""坏他""]","[""弱我"",""强他"",""强我"",""弱他""]","","true","false","[]","[]","[]","","","","","","","","","","","","","","","","","","","","","","","","","","","","","","","","",""
"","","","fullscreen","4","45908","0.0-3.0","7","6","6","7","6","5","4","4","5","5","5","1","2","1","-3","1","2","1","2","5","5","5","4","5","4","5","4","5","4","7","8","8","8","7","9","3","8","9","6","5","6","1","6","3","7","7","6","6","1","3","1","3","1","3","6","6","6","7","2","2","7","2","2","1","6","5","7","5","6","6","6","2","2","1","6","1","7","3","2","777135417253433345","李","272","Male","[""坏我"",""好他"",""好我"",""坏他""]","[""弱我"",""强他"",""强我"",""弱他""]","","true","","","","","{}","","","","","","","","","","","","","","","","","","","","","","","","","","","","","","","",""
"16904.700000047684","","{""Q01"":""7"",""Q02"":""6"",""Q03"":""6"",""Q04"":""7"",""Q05"":""6""}","survey-template","5","62827","0.0-4.0","7","6","6","7","6","5","4","4","5","5","5","1","2","1","-3","1","2","1","2","5","5","5","4","5","4","5","4","5","4","7","8","8","8","7","9","3","8","9","6","5","6","1","6","3","7","7","6","6","1","3","1","3","1","3","6","6","6","7","2","2","7","2","2","1","6","5","7","5","6","6","6","2","2","1","6","1","7","3","2","777135417253433345","李","272","Male","[""坏我"",""好他"",""好我"",""坏他""]","[""弱我"",""强他"",""强我"",""弱他""]","","","","","","","","{""Q01"":""7"",""Q02"":""6"",""Q03"":""6"",""Q04"":""7"",""Q05"":""6""}","[0,1,2,3,4]","[""Q01"",""Q02"",""Q03"",""Q04"",""Q05""]","[5977.799999952316,7071.599999904633,10391.599999904633,14119.5,16135.599999904633]","[]","[5977.799999952316,7071.599999904633,10391.599999904633,14119.5,16135.599999904633,16903.700000047684]","0.6","0.75","0","","","","","","","","","","","","","","","","","","","","","","",""
"28235.700000047684","","{""Q01"":""5"",""Q02"":""4"",""Q03"":""4"",""Q04"":""5"",""Q05"":""5"",""Q06"":""5""}","survey-template","6","91066","0.0-5.0","7","6","6","7","6","5","4","4","5","5","5","1","2","1","-3","1","2","1","2","5","5","5","4","5","4","5","4","5","4","7","8","8","8","7","9","3","8","9","6","5","6","1","6","3","7","7","6","6","1","3","1","3","1","3","6","6","6","7","2","2","7","2","2","1","6","5","7","5","6","6","6","2","2","1","6","1","7","3","2","777135417253433345","李","272","Male","[""坏我"",""好他"",""好我"",""坏他""]","[""弱我"",""强他"",""强我"",""弱他""]","","","","","","","","{""Q01"":""5"",""Q02"":""4"",""Q03"":""4"",""Q04"":""5"",""Q05"":""5"",""Q06"":""5""}","[0,1,2,3,4,5]","[""Q01"",""Q02"",""Q03"",""Q03"",""Q04"",""Q03"",""Q05"",""Q06""]","[5051,12267.200000047684,13763.799999952316,16531,18611.099999904633,24499.400000095367,26043,27451.200000047684]","[]","[5051,12267.200000047684,13763.799999952316,16531,18611.099999904633,24499.400000095367,26043,27451.200000047684,28235.099999904633]","0.3333333333333333","0.2","0","","","","","","","","","","","","","","","","","","","","","","",""
"19293.700000047684","","{""Q01"":""1"",""Q02"":""2"",""Q03"":""1"",""Q04"":""-3"",""Q05"":""1"",""Q06"":""2"",""Q07"":""1"",""Q08"":""2""}","survey-template","7","110363","0.0-6.0","7","6","6","7","6","5","4","4","5","5","5","1","2","1","-3","1","2","1","2","5","5","5","4","5","4","5","4","5","4","7","8","8","8","7","9","3","8","9","6","5","6","1","6","3","7","7","6","6","1","3","1","3","1","3","6","6","6","7","2","2","7","2","2","1","6","5","7","5","6","6","6","2","2","1","6","1","7","3","2","777135417253433345","李","272","Male","[""坏我"",""好他"",""好我"",""坏他""]","[""弱我"",""强他"",""强我"",""弱他""]","","","","","","","","{""Q01"":""1"",""Q02"":""2"",""Q03"":""1"",""Q04"":""-3"",""Q05"":""1"",""Q06"":""2"",""Q07"":""1"",""Q08"":""2""}","[0,1,2,3,4,5,6,7]","[""Q01"",""Q02"",""Q03"",""Q04"",""Q05"",""Q06"",""Q07"",""Q08""]","[3756.899999856949,7364.700000047684,8764.899999856949,13110.599999904633,14300.799999952316,15628.799999952316,17404.799999952316,18660.89999985695]","[]","[3756.899999856949,7364.700000047684,8764.899999856949,13110.599999904633,14300.799999952316,15628.799999952316,17404.799999952316,18660.89999985695,19292.799999952316]","0.5","0.7142857142857143","0","","","","","","","","","","","","","","","","","","","","","","",""
"24821","
    <p><div style='color:white;font-size:35px; line-height:20px;'>词汇评估任务</div></p><br>
    <p><div style='color:white;font-size:25px; line-height:20px;'>请再次回忆该亲密的朋友，你们至少2年前就认识了，并且最近2年经常见面。</div></p>
    <p><div style='color:white;font-size:25px; line-height:20px;'>在本实验中，您将会看到一些形容词。</div></p>
    <p><div style='color:yellow;font-size:25px; line-height:20px;'>您的任务是判断这些形容词是否符合对您自己或您的朋友的描述。</div></p><p style='font-size:35px'>符合按<span style=""color:lightgreen""> f 键</span>，不符合按<span style=""color:red""> j 键</span></p>","0","html-button-response","8","135186","0.0-7.0-0.0","7","6","6","7","6","5","4","4","5","5","5","1","2","1","-3","1","2","1","2","5","5","5","4","5","4","5","4","5","4","7","8","8","8","7","9","3","8","9","6","5","6","1","6","3","7","7","6","6","1","3","1","3","1","3","6","6","6","7","2","2","7","2","2","1","6","5","7","5","6","6","6","2","2","1","6","1","7","3","2","777135417253433345","李","272","Male","[""坏我"",""好他"",""好我"",""坏他""]","[""弱我"",""强他"",""强我"",""弱他""]","","","","","","","","","","","","","","","","","SRET_EW","EW_instructions","Thu Jan 11 2024 13:50:02 GMT+0800 (GMT+08:00)","","","","","","","","","","","","","","","","","","","",""
"null","","null","psychophysics","9","138191","0.0-7.0-1.0-0.0","7","6","6","7","6","5","4","4","5","5","5","1","2","1","-3","1","2","1","2","5","5","5","4","5","4","5","4","5","4","7","8","8","8","7","9","3","8","9","6","5","6","1","6","3","7","7","6","6","1","3","1","3","1","3","6","6","6","7","2","2","7","2","2","1","6","5","7","5","6","6","6","2","2","1","6","1","7","3","2","777135417253433345","李","272","Male","[""坏我"",""好他"",""好我"",""坏他""]","[""弱我"",""强他"",""强我"",""弱他""]","","","","","","","","","","","","","","","","","SRET_EW","EW_practice","","key","null","16.666738888888762","768","428","朋友","徇私","Negative","morality","","","","","","","","","","",""
"898","","f","psychophysics","10","140092","0.0-7.0-1.0-0.1","7","6","6","7","6","5","4","4","5","5","5","1","2","1","-3","1","2","1","2","5","5","5","4","5","4","5","4","5","4","7","8","8","8","7","9","3","8","9","6","5","6","1","6","3","7","7","6","6","1","3","1","3","1","3","6","6","6","7","2","2","7","2","2","1","6","5","7","5","6","6","6","2","2","1","6","1","7","3","2","777135417253433345","李","272","Male","[""坏我"",""好他"",""好我"",""坏他""]","[""弱我"",""强他"",""强我"",""弱他""]","","","","","","","","yes","","","","","","","","","SRET_EW","EW_practice","","key","f","16.666631578947232","768","428","自己","严谨","Positive","ability","","","","","","","","","","",""
"703","","j","psychophysics","11","141797","0.0-7.0-1.0-0.2","7","6","6","7","6","5","4","4","5","5","5","1","2","1","-3","1","2","1","2","5","5","5","4","5","4","5","4","5","4","7","8","8","8","7","9","3","8","9","6","5","6","1","6","3","7","7","6","6","1","3","1","3","1","3","6","6","6","7","2","2","7","2","2","1","6","5","7","5","6","6","6","2","2","1","6","1","7","3","2","777135417253433345","李","272","Male","[""坏我"",""好他"",""好我"",""坏他""]","[""弱我"",""强他"",""强我"",""弱他""]","","","","","","","","no","","","","","","","","","SRET_EW","EW_practice","","key","j","16.666900990098902","768","428","自己","刻板","Negative","ability","","","","","","","","","","",""
"636","","f","psychophysics","12","143435","0.0-7.0-1.0-0.3","7","6","6","7","6","5","4","4","5","5","5","1","2","1","-3","1","2","1","2","5","5","5","4","5","4","5","4","5","4","7","8","8","8","7","9","3","8","9","6","5","6","1","6","3","7","7","6","6","1","3","1","3","1","3","6","6","6","7","2","2","7","2","2","1","6","5","7","5","6","6","6","2","2","1","6","1","7","3","2","777135417253433345","李","272","Male","[""坏我"",""好他"",""好我"",""坏他""]","[""弱我"",""强他"",""强我"",""弱他""]","","","","","","","","yes","","","","","","","","","SRET_EW","EW_practice","","key","f","16.66710309278353","768","428","朋友","忠实","Positive","morality","","","","","","","","","","",""
"8126","
    <p><div style='color:white;font-size:35px; line-height:20px;'>请您再次阅读实验要求</div></p><br>
    <p><div style='color:white;font-size:25px; line-height:20px;'>请回忆某一个亲密的朋友，你们至少2年前就认识了，并且最近2年经常见面。</div></p>
    <p><div style='color:white;font-size:25px; line-height:20px;'>在本实验中，您将会看到一些形容词。</div></p>
    <p><div style='color:yellow;font-size:25px; line-height:20px;'>您的任务是判断这些形容词是否符合对您自己或您的朋友的描述。</div></p>
    <p><div class='footer' style='font-size:25px; line-height:20px;'>如果对本实验还有不清楚之处，请立即向实验员咨询。</p><p style='font-size:25px; line-height:20px;'>如果您明白了规则：</p><p style='font-size:22px; line-height:20px;'>请按 继续 进入正式实验</p>
    </div>
    <p style='font-size:35px'>符合按<span style=""color:lightgreen""> f 键</span>，不符合按<span style=""color:red""> j 键</span></p>","0","html-button-response","13","151562","0.0-7.0-2.0","7","6","6","7","6","5","4","4","5","5","5","1","2","1","-3","1","2","1","2","5","5","5","4","5","4","5","4","5","4","7","8","8","8","7","9","3","8","9","6","5","6","1","6","3","7","7","6","6","1","3","1","3","1","3","6","6","6","7","2","2","7","2","2","1","6","5","7","5","6","6","6","2","2","1","6","1","7","3","2","777135417253433345","李","272","Male","[""坏我"",""好他"",""好我"",""坏他""]","[""弱我"",""强他"",""强我"",""弱他""]","","","","","","","","","","","","","","","","","SRET_EW","prac_instructions","Thu Jan 11 2024 13:50:02 GMT+0800 (GMT+08:00)","","","","","","","","","","","","","","","","","","","",""
"732","","j","psychophysics","14","153296","0.0-7.0-3.0-0.0","7","6","6","7","6","5","4","4","5","5","5","1","2","1","-3","1","2","1","2","5","5","5","4","5","4","5","4","5","4","7","8","8","8","7","9","3","8","9","6","5","6","1","6","3","7","7","6","6","1","3","1","3","1","3","6","6","6","7","2","2","7","2","2","1","6","5","7","5","6","6","6","2","2","1","6","1","7","3","2","777135417253433345","李","272","Male","[""坏我"",""好他"",""好我"",""坏他""]","[""弱我"",""强他"",""强我"",""弱他""]","","","","","","","","no","","","","","","","","","SRET","EW_formal","","key","j","16.66685436893191","768","428","朋友","迷糊","Negative","ability","","","","","","","","","","",""
"707","","j","psychophysics","15","155005","0.0-7.0-3.0-0.1","7","6","6","7","6","5","4","4","5","5","5","1","2","1","-3","1","2","1","2","5","5","5","4","5","4","5","4","5","4","7","8","8","8","7","9","3","8","9","6","5","6","1","6","3","7","7","6","6","1","3","1","3","1","3","6","6","6","7","2","2","7","2","2","1","6","5","7","5","6","6","6","2","2","1","6","1","7","3","2","777135417253433345","李","272","Male","[""坏我"",""好他"",""好我"",""坏他""]","[""弱我"",""强他"",""强我"",""弱他""]","","","","","","","","no","","","","","","","","","SRET","EW_formal","","key","j","16.665455445544655","768","428","自己","说谎","Negative","morality","","","","","","","","","","",""
"989","","f","psychophysics","16","156995","0.0-7.0-3.0-0.2","7","6","6","7","6","5","4","4","5","5","5","1","2","1","-3","1","2","1","2","5","5","5","4","5","4","5","4","5","4","7","8","8","8","7","9","3","8","9","6","5","6","1","6","3","7","7","6","6","1","3","1","3","1","3","6","6","6","7","2","2","7","2","2","1","6","5","7","5","6","6","6","2","2","1","6","1","7","3","2","777135417253433345","李","272","Male","[""坏我"",""好他"",""好我"",""坏他""]","[""弱我"",""强他"",""强我"",""弱他""]","","","","","","","","yes","","","","","","","","","SRET","EW_formal","","key","f","16.666672268907586","768","428","朋友","务实","Positive","ability","","","","","","","","","","",""
"573","","f","psychophysics","17","158570","0.0-7.0-3.0-0.3","7","6","6","7","6","5","4","4","5","5","5","1","2","1","-3","1","2","1","2","5","5","5","4","5","4","5","4","5","4","7","8","8","8","7","9","3","8","9","6","5","6","1","6","3","7","7","6","6","1","3","1","3","1","3","6","6","6","7","2","2","7","2","2","1","6","5","7","5","6","6","6","2","2","1","6","1","7","3","2","777135417253433345","李","272","Male","[""坏我"",""好他"",""好我"",""坏他""]","[""弱我"",""强他"",""强我"",""弱他""]","","","","","","","","yes","","","","","","","","","SRET","EW_formal","","key","f","16.666731182795946","768","428","自己","坚贞","Positive","morality","","","","","","","","","","",""
"729","","f","psychophysics","18","160302","0.0-7.0-3.0-0.4","7","6","6","7","6","5","4","4","5","5","5","1","2","1","-3","1","2","1","2","5","5","5","4","5","4","5","4","5","4","7","8","8","8","7","9","3","8","9","6","5","6","1","6","3","7","7","6","6","1","3","1","3","1","3","6","6","6","7","2","2","7","2","2","1","6","5","7","5","6","6","6","2","2","1","6","1","7","3","2","777135417253433345","李","272","Male","[""坏我"",""好他"",""好我"",""坏他""]","[""弱我"",""强他"",""强我"",""弱他""]","","","","","","","","yes","","","","","","","","","SRET","EW_formal","","key","f","16.66646601941727","768","428","自己","善心","Positive","morality","","","","","","","","","","",""
"1263","","j","psychophysics","19","162566","0.0-7.0-3.0-0.5","7","6","6","7","6","5","4","4","5","5","5","1","2","1","-3","1","2","1","2","5","5","5","4","5","4","5","4","5","4","7","8","8","8","7","9","3","8","9","6","5","6","1","6","3","7","7","6","6","1","3","1","3","1","3","6","6","6","7","2","2","7","2","2","1","6","5","7","5","6","6","6","2","2","1","6","1","7","3","2","777135417253433345","李","272","Male","[""坏我"",""好他"",""好我"",""坏他""]","[""弱我"",""强他"",""强我"",""弱他""]","","","","","","","","no","","","","","","","","","SRET","EW_formal","","key","j","16.666459259259323","768","428","自己","屈才","Negative","ability","","","","","","","","","","",""
"759","","f","psychophysics","20","164326","0.0-7.0-3.0-0.6","7","6","6","7","6","5","4","4","5","5","5","1","2","1","-3","1","2","1","2","5","5","5","4","5","4","5","4","5","4","7","8","8","8","7","9","3","8","9","6","5","6","1","6","3","7","7","6","6","1","3","1","3","1","3","6","6","6","7","2","2","7","2","2","1","6","5","7","5","6","6","6","2","2","1","6","1","7","3","2","777135417253433345","李","272","Male","[""坏我"",""好他"",""好我"",""坏他""]","[""弱我"",""强他"",""强我"",""弱他""]","","","","","","","","yes","","","","","","","","","SRET","EW_formal","","key","f","16.66655238095222","768","428","自己","果断","Positive","ability","","","","","","","","","","",""
"1293","","f","psychophysics","21","166622","0.0-7.0-3.0-0.7","7","6","6","7","6","5","4","4","5","5","5","1","2","1","-3","1","2","1","2","5","5","5","4","5","4","5","4","5","4","7","8","8","8","7","9","3","8","9","6","5","6","1","6","3","7","7","6","6","1","3","1","3","1","3","6","6","6","7","2","2","7","2","2","1","6","5","7","5","6","6","6","2","2","1","6","1","7","3","2","777135417253433345","李","272","Male","[""坏我"",""好他"",""好我"",""坏他""]","[""弱我"",""强他"",""强我"",""弱他""]","","","","","","","","yes","","","","","","","","","SRET","EW_formal","","key","f","16.666477941176495","768","428","朋友","顶事","Positive","ability","","","","","","","","","","",""
"821","","j","psychophysics","22","168443","0.0-7.0-3.0-0.8","7","6","6","7","6","5","4","4","5","5","5","1","2","1","-3","1","2","1","2","5","5","5","4","5","4","5","4","5","4","7","8","8","8","7","9","3","8","9","6","5","6","1","6","3","7","7","6","6","1","3","1","3","1","3","6","6","6","7","2","2","7","2","2","1","6","5","7","5","6","6","6","2","2","1","6","1","7","3","2","777135417253433345","李","272","Male","[""坏我"",""好他"",""好我"",""坏他""]","[""弱我"",""强他"",""强我"",""弱他""]","","","","","","","","no","","","","","","","","","SRET","EW_formal","","key","j","16.666467889908162","768","428","自己","草率","Negative","ability","","","","","","","","","","",""
"781","","j","psychophysics","23","170226","0.0-7.0-3.0-0.9","7","6","6","7","6","5","4","4","5","5","5","1","2","1","-3","1","2","1","2","5","5","5","4","5","4","5","4","5","4","7","8","8","8","7","9","3","8","9","6","5","6","1","6","3","7","7","6","6","1","3","1","3","1","3","6","6","6","7","2","2","7","2","2","1","6","5","7","5","6","6","6","2","2","1","6","1","7","3","2","777135417253433345","李","272","Male","[""坏我"",""好他"",""好我"",""坏他""]","[""弱我"",""强他"",""强我"",""弱他""]","","","","","","","","no","","","","","","","","","SRET","EW_formal","","key","j","16.6676132075471","768","428","自己","盲目","Negative","ability","","","","","","","","","","",""
"1125","","f","psychophysics","24","172352","0.0-7.0-3.0-0.10","7","6","6","7","6","5","4","4","5","5","5","1","2","1","-3","1","2","1","2","5","5","5","4","5","4","5","4","5","4","7","8","8","8","7","9","3","8","9","6","5","6","1","6","3","7","7","6","6","1","3","1","3","1","3","6","6","6","7","2","2","7","2","2","1","6","5","7","5","6","6","6","2","2","1","6","1","7","3","2","777135417253433345","李","272","Male","[""坏我"",""好他"",""好我"",""坏他""]","[""弱我"",""强他"",""强我"",""弱他""]","","","","","","","","yes","","","","","","","","","SRET","EW_formal","","key","f","16.6662063492062","768","428","朋友","清廉","Positive","morality","","","","","","","","","","",""
"723","","j","psychophysics","25","174076","0.0-7.0-3.0-0.11","7","6","6","7","6","5","4","4","5","5","5","1","2","1","-3","1","2","1","2","5","5","5","4","5","4","5","4","5","4","7","8","8","8","7","9","3","8","9","6","5","6","1","6","3","7","7","6","6","1","3","1","3","1","3","6","6","6","7","2","2","7","2","2","1","6","5","7","5","6","6","6","2","2","1","6","1","7","3","2","777135417253433345","李","272","Male","[""坏我"",""好他"",""好我"",""坏他""]","[""弱我"",""强他"",""强我"",""弱他""]","","","","","","","","no","","","","","","","","","SRET","EW_formal","","key","j","16.66766019417476","768","428","朋友","淫乱","Negative","morality","","","","","","","","","","",""
"657","","f","psychophysics","26","175735","0.0-7.0-3.0-0.12","7","6","6","7","6","5","4","4","5","5","5","1","2","1","-3","1","2","1","2","5","5","5","4","5","4","5","4","5","4","7","8","8","8","7","9","3","8","9","6","5","6","1","6","3","7","7","6","6","1","3","1","3","1","3","6","6","6","7","2","2","7","2","2","1","6","5","7","5","6","6","6","2","2","1","6","1","7","3","2","777135417253433345","李","272","Male","[""坏我"",""好他"",""好我"",""坏他""]","[""弱我"",""强他"",""强我"",""弱他""]","","","","","","","","yes","","","","","","","","","SRET","EW_formal","","key","f","16.66482653061245","768","428","自己","厚道","Positive","morality","","","","","","","","","","",""
"776","","j","psychophysics","27","177513","0.0-7.0-3.0-0.13","7","6","6","7","6","5","4","4","5","5","5","1","2","1","-3","1","2","1","2","5","5","5","4","5","4","5","4","5","4","7","8","8","8","7","9","3","8","9","6","5","6","1","6","3","7","7","6","6","1","3","1","3","1","3","6","6","6","7","2","2","7","2","2","1","6","5","7","5","6","6","6","2","2","1","6","1","7","3","2","777135417253433345","李","272","Male","[""坏我"",""好他"",""好我"",""坏他""]","[""弱我"",""强他"",""强我"",""弱他""]","","","","","","","","no","","","","","","","","","SRET","EW_formal","","key","j","16.666933962264217","768","428","朋友","无为","Negative","ability","","","","","","","","","","",""
"1025","","f","psychophysics","28","179539","0.0-7.0-3.0-0.14","7","6","6","7","6","5","4","4","5","5","5","1","2","1","-3","1","2","1","2","5","5","5","4","5","4","5","4","5","4","7","8","8","8","7","9","3","8","9","6","5","6","1","6","3","7","7","6","6","1","3","1","3","1","3","6","6","6","7","2","2","7","2","2","1","6","5","7","5","6","6","6","2","2","1","6","1","7","3","2","777135417253433345","李","272","Male","[""坏我"",""好他"",""好我"",""坏他""]","[""弱我"",""强他"",""强我"",""弱他""]","","","","","","","","yes","","","","","","","","","SRET","EW_formal","","key","f","16.666616666666716","768","428","朋友","淡泊","Positive","morality","","","","","","","","","","",""
"602","","f","psychophysics","29","181144","0.0-7.0-3.0-0.15","7","6","6","7","6","5","4","4","5","5","5","1","2","1","-3","1","2","1","2","5","5","5","4","5","4","5","4","5","4","7","8","8","8","7","9","3","8","9","6","5","6","1","6","3","7","7","6","6","1","3","1","3","1","3","6","6","6","7","2","2","7","2","2","1","6","5","7","5","6","6","6","2","2","1","6","1","7","3","2","777135417253433345","李","272","Male","[""坏我"",""好他"",""好我"",""坏他""]","[""弱我"",""强他"",""强我"",""弱他""]","","","","","","","","yes","","","","","","","","","SRET","EW_formal","","key","f","16.666750000000018","768","428","朋友","上进","Positive","ability","","","","","","","","","","",""
"606","","j","psychophysics","30","182753","0.0-7.0-3.0-0.16","7","6","6","7","6","5","4","4","5","5","5","1","2","1","-3","1","2","1","2","5","5","5","4","5","4","5","4","5","4","7","8","8","8","7","9","3","8","9","6","5","6","1","6","3","7","7","6","6","1","3","1","3","1","3","6","6","6","7","2","2","7","2","2","1","6","5","7","5","6","6","6","2","2","1","6","1","7","3","2","777135417253433345","李","272","Male","[""坏我"",""好他"",""好我"",""坏他""]","[""弱我"",""强他"",""强我"",""弱他""]","","","","","","","","no","","","","","","","","","SRET","EW_formal","","key","j","16.666768421052563","768","428","朋友","罪恶","Negative","morality","","","","","","","","","","",""
"672","","j","psychophysics","31","184426","0.0-7.0-3.0-0.17","7","6","6","7","6","5","4","4","5","5","5","1","2","1","-3","1","2","1","2","5","5","5","4","5","4","5","4","5","4","7","8","8","8","7","9","3","8","9","6","5","6","1","6","3","7","7","6","6","1","3","1","3","1","3","6","6","6","7","2","2","7","2","2","1","6","5","7","5","6","6","6","2","2","1","6","1","7","3","2","777135417253433345","李","272","Male","[""坏我"",""好他"",""好我"",""坏他""]","[""弱我"",""强他"",""强我"",""弱他""]","","","","","","","","no","","","","","","","","","SRET","EW_formal","","key","j","16.667060000000056","768","428","自己","诡诈","Negative","morality","","","","","","","","","","",""
"767","","f","psychophysics","32","186193","0.0-7.0-3.0-0.18","7","6","6","7","6","5","4","4","5","5","5","1","2","1","-3","1","2","1","2","5","5","5","4","5","4","5","4","5","4","7","8","8","8","7","9","3","8","9","6","5","6","1","6","3","7","7","6","6","1","3","1","3","1","3","6","6","6","7","2","2","7","2","2","1","6","5","7","5","6","6","6","2","2","1","6","1","7","3","2","777135417253433345","李","272","Male","[""坏我"",""好他"",""好我"",""坏他""]","[""弱我"",""强他"",""强我"",""弱他""]","","","","","","","","yes","","","","","","","","","SRET","EW_formal","","key","f","16.666723809523752","768","428","自己","勤奋","Positive","ability","","","","","","","","","","",""
"639","","j","psychophysics","33","187834","0.0-7.0-3.0-0.19","7","6","6","7","6","5","4","4","5","5","5","1","2","1","-3","1","2","1","2","5","5","5","4","5","4","5","4","5","4","7","8","8","8","7","9","3","8","9","6","5","6","1","6","3","7","7","6","6","1","3","1","3","1","3","6","6","6","7","2","2","7","2","2","1","6","5","7","5","6","6","6","2","2","1","6","1","7","3","2","777135417253433345","李","272","Male","[""坏我"",""好他"",""好我"",""坏他""]","[""弱我"",""强他"",""强我"",""弱他""]","","","","","","","","no","","","","","","","","","SRET","EW_formal","","key","j","16.666659793814407","768","428","自己","粗心","Negative","ability","","","","","","","","","","",""
"773","","f","psychophysics","34","189608","0.0-7.0-3.0-0.20","7","6","6","7","6","5","4","4","5","5","5","1","2","1","-3","1","2","1","2","5","5","5","4","5","4","5","4","5","4","7","8","8","8","7","9","3","8","9","6","5","6","1","6","3","7","7","6","6","1","3","1","3","1","3","6","6","6","7","2","2","7","2","2","1","6","5","7","5","6","6","6","2","2","1","6","1","7","3","2","777135417253433345","李","272","Male","[""坏我"",""好他"",""好我"",""坏他""]","[""弱我"",""强他"",""强我"",""弱他""]","","","","","","","","yes","","","","","","","","","SRET","EW_formal","","key","f","16.666650943396302","768","428","自己","专注","Positive","ability","","","","","","","","","","",""
"1052","","j","psychophysics","35","191662","0.0-7.0-3.0-0.21","7","6","6","7","6","5","4","4","5","5","5","1","2","1","-3","1","2","1","2","5","5","5","4","5","4","5","4","5","4","7","8","8","8","7","9","3","8","9","6","5","6","1","6","3","7","7","6","6","1","3","1","3","1","3","6","6","6","7","2","2","7","2","2","1","6","5","7","5","6","6","6","2","2","1","6","1","7","3","2","777135417253433345","李","272","Male","[""坏我"",""好他"",""好我"",""坏他""]","[""弱我"",""强他"",""强我"",""弱他""]","","","","","","","","no","","","","","","","","","SRET","EW_formal","","key","j","16.66685245901639","768","428","朋友","守时","Positive","morality","","","","","","","","","","",""
"766","","f","psychophysics","36","193430","0.0-7.0-3.0-0.22","7","6","6","7","6","5","4","4","5","5","5","1","2","1","-3","1","2","1","2","5","5","5","4","5","4","5","4","5","4","7","8","8","8","7","9","3","8","9","6","5","6","1","6","3","7","7","6","6","1","3","1","3","1","3","6","6","6","7","2","2","7","2","2","1","6","5","7","5","6","6","6","2","2","1","6","1","7","3","2","777135417253433345","李","272","Male","[""坏我"",""好他"",""好我"",""坏他""]","[""弱我"",""强他"",""强我"",""弱他""]","","","","","","","","yes","","","","","","","","","SRET","EW_formal","","key","f","16.665314285714356","768","428","自己","忠义","Positive","morality","","","","","","","","","","",""
"1144","","f","psychophysics","37","195576","0.0-7.0-3.0-0.23","7","6","6","7","6","5","4","4","5","5","5","1","2","1","-3","1","2","1","2","5","5","5","4","5","4","5","4","5","4","7","8","8","8","7","9","3","8","9","6","5","6","1","6","3","7","7","6","6","1","3","1","3","1","3","6","6","6","7","2","2","7","2","2","1","6","5","7","5","6","6","6","2","2","1","6","1","7","3","2","777135417253433345","李","272","Male","[""坏我"",""好他"",""好我"",""坏他""]","[""弱我"",""强他"",""强我"",""弱他""]","","","","","","","","yes","","","","","","","","","SRET","EW_formal","","key","f","16.666593750000175","768","428","朋友","侠义","Positive","morality","","","","","","","","","","",""
"598","","f","psychophysics","38","197176","0.0-7.0-3.0-0.24","7","6","6","7","6","5","4","4","5","5","5","1","2","1","-3","1","2","1","2","5","5","5","4","5","4","5","4","5","4","7","8","8","8","7","9","3","8","9","6","5","6","1","6","3","7","7","6","6","1","3","1","3","1","3","6","6","6","7","2","2","7","2","2","1","6","5","7","5","6","6","6","2","2","1","6","1","7","3","2","777135417253433345","李","272","Male","[""坏我"",""好他"",""好我"",""坏他""]","[""弱我"",""强他"",""强我"",""弱他""]","","","","","","","","yes","","","","","","","","","SRET","EW_formal","","key","f","16.667494736842222","768","428","自己","利落","Positive","ability","","","","","","","","","","",""
"551","","f","psychophysics","39","198729","0.0-7.0-3.0-0.25","7","6","6","7","6","5","4","4","5","5","5","1","2","1","-3","1","2","1","2","5","5","5","4","5","4","5","4","5","4","7","8","8","8","7","9","3","8","9","6","5","6","1","6","3","7","7","6","6","1","3","1","3","1","3","6","6","6","7","2","2","7","2","2","1","6","5","7","5","6","6","6","2","2","1","6","1","7","3","2","777135417253433345","李","272","Male","[""坏我"",""好他"",""好我"",""坏他""]","[""弱我"",""强他"",""强我"",""弱他""]","","","","","","","","yes","","","","","","","","","SRET","EW_formal","","key","f","16.667195652174048","768","428","自己","高尚","Positive","morality","","","","","","","","","","",""
"694","","j","psychophysics","40","200425","0.0-7.0-3.0-0.26","7","6","6","7","6","5","4","4","5","5","5","1","2","1","-3","1","2","1","2","5","5","5","4","5","4","5","4","5","4","7","8","8","8","7","9","3","8","9","6","5","6","1","6","3","7","7","6","6","1","3","1","3","1","3","6","6","6","7","2","2","7","2","2","1","6","5","7","5","6","6","6","2","2","1","6","1","7","3","2","777135417253433345","李","272","Male","[""坏我"",""好他"",""好我"",""坏他""]","[""弱我"",""强他"",""强我"",""弱他""]","","","","","","","","no","","","","","","","","","SRET","EW_formal","","key","j","16.665663366336812","768","428","朋友","迂拙","Negative","ability","","","","","","","","","","",""
"752","","f","psychophysics","41","202178","0.0-7.0-3.0-0.27","7","6","6","7","6","5","4","4","5","5","5","1","2","1","-3","1","2","1","2","5","5","5","4","5","4","5","4","5","4","7","8","8","8","7","9","3","8","9","6","5","6","1","6","3","7","7","6","6","1","3","1","3","1","3","6","6","6","7","2","2","7","2","2","1","6","5","7","5","6","6","6","2","2","1","6","1","7","3","2","777135417253433345","李","272","Male","[""坏我"",""好他"",""好我"",""坏他""]","[""弱我"",""强他"",""强我"",""弱他""]","","","","","","","","yes","","","","","","","","","SRET","EW_formal","","key","f","16.66666346153831","768","428","自己","爱国","Positive","morality","","","","","","","","","","",""
"714","","f","psychophysics","42","203894","0.0-7.0-3.0-0.28","7","6","6","7","6","5","4","4","5","5","5","1","2","1","-3","1","2","1","2","5","5","5","4","5","4","5","4","5","4","7","8","8","8","7","9","3","8","9","6","5","6","1","6","3","7","7","6","6","1","3","1","3","1","3","6","6","6","7","2","2","7","2","2","1","6","5","7","5","6","6","6","2","2","1","6","1","7","3","2","777135417253433345","李","272","Male","[""坏我"",""好他"",""好我"",""坏他""]","[""弱我"",""强他"",""强我"",""弱他""]","","","","","","","","yes","","","","","","","","","SRET","EW_formal","","key","f","16.667176470588483","768","428","朋友","谦逊","Positive","morality","","","","","","","","","","",""
"762","","j","psychophysics","43","205658","0.0-7.0-3.0-0.29","7","6","6","7","6","5","4","4","5","5","5","1","2","1","-3","1","2","1","2","5","5","5","4","5","4","5","4","5","4","7","8","8","8","7","9","3","8","9","6","5","6","1","6","3","7","7","6","6","1","3","1","3","1","3","6","6","6","7","2","2","7","2","2","1","6","5","7","5","6","6","6","2","2","1","6","1","7","3","2","777135417253433345","李","272","Male","[""坏我"",""好他"",""好我"",""坏他""]","[""弱我"",""强他"",""强我"",""弱他""]","","","","","","","","no","","","","","","","","","SRET","EW_formal","","key","j","16.666533333333376","768","428","自己","无赖","Negative","morality","","","","","","","","","","",""
"578","","j","psychophysics","44","207238","0.0-7.0-3.0-0.30","7","6","6","7","6","5","4","4","5","5","5","1","2","1","-3","1","2","1","2","5","5","5","4","5","4","5","4","5","4","7","8","8","8","7","9","3","8","9","6","5","6","1","6","3","7","7","6","6","1","3","1","3","1","3","6","6","6","7","2","2","7","2","2","1","6","5","7","5","6","6","6","2","2","1","6","1","7","3","2","777135417253433345","李","272","Male","[""坏我"",""好他"",""好我"",""坏他""]","[""弱我"",""强他"",""强我"",""弱他""]","","","","","","","","no","","","","","","","","","SRET","EW_formal","","key","j","16.667838709677383","768","428","自己","缺德","Negative","morality","","","","","","","","","","",""
"825","","j","psychophysics","45","209065","0.0-7.0-3.0-0.31","7","6","6","7","6","5","4","4","5","5","5","1","2","1","-3","1","2","1","2","5","5","5","4","5","4","5","4","5","4","7","8","8","8","7","9","3","8","9","6","5","6","1","6","3","7","7","6","6","1","3","1","3","1","3","6","6","6","7","2","2","7","2","2","1","6","5","7","5","6","6","6","2","2","1","6","1","7","3","2","777135417253433345","李","272","Male","[""坏我"",""好他"",""好我"",""坏他""]","[""弱我"",""强他"",""强我"",""弱他""]","","","","","","","","no","","","","","","","","","SRET","EW_formal","","key","j","16.667486238532053","768","428","自己","失信","Negative","morality","","","","","","","","","","",""
"810","","j","psychophysics","46","210877","0.0-7.0-3.0-0.32","7","6","6","7","6","5","4","4","5","5","5","1","2","1","-3","1","2","1","2","5","5","5","4","5","4","5","4","5","4","7","8","8","8","7","9","3","8","9","6","5","6","1","6","3","7","7","6","6","1","3","1","3","1","3","6","6","6","7","2","2","7","2","2","1","6","5","7","5","6","6","6","2","2","1","6","1","7","3","2","777135417253433345","李","272","Male","[""坏我"",""好他"",""好我"",""坏他""]","[""弱我"",""强他"",""强我"",""弱他""]","","","","","","","","no","","","","","","","","","SRET","EW_formal","","key","j","16.665657407407437","768","428","朋友","独断","Negative","ability","","","","","","","","","","",""
"757","","j","psychophysics","47","212635","0.0-7.0-3.0-0.33","7","6","6","7","6","5","4","4","5","5","5","1","2","1","-3","1","2","1","2","5","5","5","4","5","4","5","4","5","4","7","8","8","8","7","9","3","8","9","6","5","6","1","6","3","7","7","6","6","1","3","1","3","1","3","6","6","6","7","2","2","7","2","2","1","6","5","7","5","6","6","6","2","2","1","6","1","7","3","2","777135417253433345","李","272","Male","[""坏我"",""好他"",""好我"",""坏他""]","[""弱我"",""强他"",""强我"",""弱他""]","","","","","","","","no","","","","","","","","","SRET","EW_formal","","key","j","16.66674999999976","768","428","朋友","势利","Negative","morality","","","","","","","","","","",""
"915","","j","psychophysics","48","214551","0.0-7.0-3.0-0.34","7","6","6","7","6","5","4","4","5","5","5","1","2","1","-3","1","2","1","2","5","5","5","4","5","4","5","4","5","4","7","8","8","8","7","9","3","8","9","6","5","6","1","6","3","7","7","6","6","1","3","1","3","1","3","6","6","6","7","2","2","7","2","2","1","6","5","7","5","6","6","6","2","2","1","6","1","7","3","2","777135417253433345","李","272","Male","[""坏我"",""好他"",""好我"",""坏他""]","[""弱我"",""强他"",""强我"",""弱他""]","","","","","","","","no","","","","","","","","","SRET","EW_formal","","key","j","16.666570175438608","768","428","自己","无助","Negative","ability","","","","","","","","","","",""
"595","","f","psychophysics","49","216149","0.0-7.0-3.0-0.35","7","6","6","7","6","5","4","4","5","5","5","1","2","1","-3","1","2","1","2","5","5","5","4","5","4","5","4","5","4","7","8","8","8","7","9","3","8","9","6","5","6","1","6","3","7","7","6","6","1","3","1","3","1","3","6","6","6","7","2","2","7","2","2","1","6","5","7","5","6","6","6","2","2","1","6","1","7","3","2","777135417253433345","李","272","Male","[""坏我"",""好他"",""好我"",""坏他""]","[""弱我"",""强他"",""强我"",""弱他""]","","","","","","","","yes","","","","","","","","","SRET","EW_formal","","key","f","16.666599999999896","768","428","朋友","义气","Positive","morality","","","","","","","","","","",""
"934","","f","psychophysics","50","218085","0.0-7.0-3.0-0.36","7","6","6","7","6","5","4","4","5","5","5","1","2","1","-3","1","2","1","2","5","5","5","4","5","4","5","4","5","4","7","8","8","8","7","9","3","8","9","6","5","6","1","6","3","7","7","6","6","1","3","1","3","1","3","6","6","6","7","2","2","7","2","2","1","6","5","7","5","6","6","6","2","2","1","6","1","7","3","2","777135417253433345","李","272","Male","[""坏我"",""好他"",""好我"",""坏他""]","[""弱我"",""强他"",""强我"",""弱他""]","","","","","","","","yes","","","","","","","","","SRET","EW_formal","","key","f","16.666426086956484","768","428","自己","沉着","Positive","ability","","","","","","","","","","",""
"550","","f","psychophysics","51","219637","0.0-7.0-3.0-0.37","7","6","6","7","6","5","4","4","5","5","5","1","2","1","-3","1","2","1","2","5","5","5","4","5","4","5","4","5","4","7","8","8","8","7","9","3","8","9","6","5","6","1","6","3","7","7","6","6","1","3","1","3","1","3","6","6","6","7","2","2","7","2","2","1","6","5","7","5","6","6","6","2","2","1","6","1","7","3","2","777135417253433345","李","272","Male","[""坏我"",""好他"",""好我"",""坏他""]","[""弱我"",""强他"",""强我"",""弱他""]","","","","","","","","yes","","","","","","","","","SRET","EW_formal","","key","f","16.667565217391278","768","428","自己","肯干","Positive","ability","","","","","","","","","","",""
"505","","f","psychophysics","52","221143","0.0-7.0-3.0-0.38","7","6","6","7","6","5","4","4","5","5","5","1","2","1","-3","1","2","1","2","5","5","5","4","5","4","5","4","5","4","7","8","8","8","7","9","3","8","9","6","5","6","1","6","3","7","7","6","6","1","3","1","3","1","3","6","6","6","7","2","2","7","2","2","1","6","5","7","5","6","6","6","2","2","1","6","1","7","3","2","777135417253433345","李","272","Male","[""坏我"",""好他"",""好我"",""坏他""]","[""弱我"",""强他"",""强我"",""弱他""]","","","","","","","","yes","","","","","","","","","SRET","EW_formal","","key","f","16.66651111111116","768","428","自己","学霸","Positive","ability","","","","","","","","","","",""
"735","","j","psychophysics","53","222879","0.0-7.0-3.0-0.39","7","6","6","7","6","5","4","4","5","5","5","1","2","1","-3","1","2","1","2","5","5","5","4","5","4","5","4","5","4","7","8","8","8","7","9","3","8","9","6","5","6","1","6","3","7","7","6","6","1","3","1","3","1","3","6","6","6","7","2","2","7","2","2","1","6","5","7","5","6","6","6","2","2","1","6","1","7","3","2","777135417253433345","李","272","Male","[""坏我"",""好他"",""好我"",""坏他""]","[""弱我"",""强他"",""强我"",""弱他""]","","","","","","","","no","","","","","","","","","SRET","EW_formal","","key","j","16.665970873786137","768","428","自己","笨蛋","Negative","ability","","","","","","","","","","",""
"539","","j","psychophysics","54","224419","0.0-7.0-3.0-0.40","7","6","6","7","6","5","4","4","5","5","5","1","2","1","-3","1","2","1","2","5","5","5","4","5","4","5","4","5","4","7","8","8","8","7","9","3","8","9","6","5","6","1","6","3","7","7","6","6","1","3","1","3","1","3","6","6","6","7","2","2","7","2","2","1","6","5","7","5","6","6","6","2","2","1","6","1","7","3","2","777135417253433345","李","272","Male","[""坏我"",""好他"",""好我"",""坏他""]","[""弱我"",""强他"",""强我"",""弱他""]","","","","","","","","no","","","","","","","","","SRET","EW_formal","","key","j","16.669670329670357","768","428","朋友","混账","Negative","morality","","","","","","","","","","",""
"794","","f","psychophysics","55","226215","0.0-7.0-3.0-0.41","7","6","6","7","6","5","4","4","5","5","5","1","2","1","-3","1","2","1","2","5","5","5","4","5","4","5","4","5","4","7","8","8","8","7","9","3","8","9","6","5","6","1","6","3","7","7","6","6","1","3","1","3","1","3","6","6","6","7","2","2","7","2","2","1","6","5","7","5","6","6","6","2","2","1","6","1","7","3","2","777135417253433345","李","272","Male","[""坏我"",""好他"",""好我"",""坏他""]","[""弱我"",""强他"",""强我"",""弱他""]","","","","","","","","yes","","","","","","","","","SRET","EW_formal","","key","f","16.666663551401722","768","428","朋友","仁厚","Positive","morality","","","","","","","","","","",""
"633","","j","psychophysics","56","227850","0.0-7.0-3.0-0.42","7","6","6","7","6","5","4","4","5","5","5","1","2","1","-3","1","2","1","2","5","5","5","4","5","4","5","4","5","4","7","8","8","8","7","9","3","8","9","6","5","6","1","6","3","7","7","6","6","1","3","1","3","1","3","6","6","6","7","2","2","7","2","2","1","6","5","7","5","6","6","6","2","2","1","6","1","7","3","2","777135417253433345","李","272","Male","[""坏我"",""好他"",""好我"",""坏他""]","[""弱我"",""强他"",""强我"",""弱他""]","","","","","","","","no","","","","","","","","","SRET","EW_formal","","key","j","16.66615463917524","768","428","自己","下流","Negative","morality","","","","","","","","","","",""
"753","","f","psychophysics","57","229605","0.0-7.0-3.0-0.43","7","6","6","7","6","5","4","4","5","5","5","1","2","1","-3","1","2","1","2","5","5","5","4","5","4","5","4","5","4","7","8","8","8","7","9","3","8","9","6","5","6","1","6","3","7","7","6","6","1","3","1","3","1","3","6","6","6","7","2","2","7","2","2","1","6","5","7","5","6","6","6","2","2","1","6","1","7","3","2","777135417253433345","李","272","Male","[""坏我"",""好他"",""好我"",""坏他""]","[""弱我"",""强他"",""强我"",""弱他""]","","","","","","","","yes","","","","","","","","","SRET","EW_formal","","key","f","16.666682692307614","768","428","朋友","远见","Positive","ability","","","","","","","","","","",""
"772","","f","psychophysics","58","231378","0.0-7.0-3.0-0.44","7","6","6","7","6","5","4","4","5","5","5","1","2","1","-3","1","2","1","2","5","5","5","4","5","4","5","4","5","4","7","8","8","8","7","9","3","8","9","6","5","6","1","6","3","7","7","6","6","1","3","1","3","1","3","6","6","6","7","2","2","7","2","2","1","6","5","7","5","6","6","6","2","2","1","6","1","7","3","2","777135417253433345","李","272","Male","[""坏我"",""好他"",""好我"",""坏他""]","[""弱我"",""强他"",""强我"",""弱他""]","","","","","","","","yes","","","","","","","","","SRET","EW_formal","","key","f","16.666660377358465","768","428","自己","依靠","Negative","ability","","","","","","","","","","",""
"592","","f","psychophysics","59","232972","0.0-7.0-3.0-0.45","7","6","6","7","6","5","4","4","5","5","5","1","2","1","-3","1","2","1","2","5","5","5","4","5","4","5","4","5","4","7","8","8","8","7","9","3","8","9","6","5","6","1","6","3","7","7","6","6","1","3","1","3","1","3","6","6","6","7","2","2","7","2","2","1","6","5","7","5","6","6","6","2","2","1","6","1","7","3","2","777135417253433345","李","272","Male","[""坏我"",""好他"",""好我"",""坏他""]","[""弱我"",""强他"",""强我"",""弱他""]","","","","","","","","yes","","","","","","","","","SRET","EW_formal","","key","f","16.666510638297893","768","428","朋友","娴熟","Positive","ability","","","","","","","","","","",""
"520","","f","psychophysics","60","234493","0.0-7.0-3.0-0.46","7","6","6","7","6","5","4","4","5","5","5","1","2","1","-3","1","2","1","2","5","5","5","4","5","4","5","4","5","4","7","8","8","8","7","9","3","8","9","6","5","6","1","6","3","7","7","6","6","1","3","1","3","1","3","6","6","6","7","2","2","7","2","2","1","6","5","7","5","6","6","6","2","2","1","6","1","7","3","2","777135417253433345","李","272","Male","[""坏我"",""好他"",""好我"",""坏他""]","[""弱我"",""强他"",""强我"",""弱他""]","","","","","","","","yes","","","","","","","","","SRET","EW_formal","","key","f","16.66665934065931","768","428","朋友","变通","Positive","ability","","","","","","","","","","",""
"539","","j","psychophysics","61","236033","0.0-7.0-3.0-0.47","7","6","6","7","6","5","4","4","5","5","5","1","2","1","-3","1","2","1","2","5","5","5","4","5","4","5","4","5","4","7","8","8","8","7","9","3","8","9","6","5","6","1","6","3","7","7","6","6","1","3","1","3","1","3","6","6","6","7","2","2","7","2","2","1","6","5","7","5","6","6","6","2","2","1","6","1","7","3","2","777135417253433345","李","272","Male","[""坏我"",""好他"",""好我"",""坏他""]","[""弱我"",""强他"",""强我"",""弱他""]","","","","","","","","no","","","","","","","","","SRET","EW_formal","","key","j","16.66662637362638","768","428","朋友","狡诈","Negative","morality","","","","","","","","","","",""
"638","","j","psychophysics","62","237672","0.0-7.0-3.0-0.48","7","6","6","7","6","5","4","4","5","5","5","1","2","1","-3","1","2","1","2","5","5","5","4","5","4","5","4","5","4","7","8","8","8","7","9","3","8","9","6","5","6","1","6","3","7","7","6","6","1","3","1","3","1","3","6","6","6","7","2","2","7","2","2","1","6","5","7","5","6","6","6","2","2","1","6","1","7","3","2","777135417253433345","李","272","Male","[""坏我"",""好他"",""好我"",""坏他""]","[""弱我"",""强他"",""强我"",""弱他""]","","","","","","","","no","","","","","","","","","SRET","EW_formal","","key","j","16.666680412370887","768","428","朋友","狡狯","Negative","morality","","","","","","","","","","",""
"606","","j","psychophysics","63","239280","0.0-7.0-3.0-0.49","7","6","6","7","6","5","4","4","5","5","5","1","2","1","-3","1","2","1","2","5","5","5","4","5","4","5","4","5","4","7","8","8","8","7","9","3","8","9","6","5","6","1","6","3","7","7","6","6","1","3","1","3","1","3","6","6","6","7","2","2","7","2","2","1","6","5","7","5","6","6","6","2","2","1","6","1","7","3","2","777135417253433345","李","272","Male","[""坏我"",""好他"",""好我"",""坏他""]","[""弱我"",""强他"",""强我"",""弱他""]","","","","","","","","no","","","","","","","","","SRET","EW_formal","","key","j","16.666499999999967","768","428","自己","偏私","Negative","morality","","","","","","","","","","",""
"574","","f","psychophysics","64","240855","0.0-7.0-3.0-0.50","7","6","6","7","6","5","4","4","5","5","5","1","2","1","-3","1","2","1","2","5","5","5","4","5","4","5","4","5","4","7","8","8","8","7","9","3","8","9","6","5","6","1","6","3","7","7","6","6","1","3","1","3","1","3","6","6","6","7","2","2","7","2","2","1","6","5","7","5","6","6","6","2","2","1","6","1","7","3","2","777135417253433345","李","272","Male","[""坏我"",""好他"",""好我"",""坏他""]","[""弱我"",""强他"",""强我"",""弱他""]","","","","","","","","yes","","","","","","","","","SRET","EW_formal","","key","f","16.666301075268663","768","428","朋友","孝顺","Positive","morality","","","","","","","","","","",""
"515","","j","psychophysics","65","242372","0.0-7.0-3.0-0.51","7","6","6","7","6","5","4","4","5","5","5","1","2","1","-3","1","2","1","2","5","5","5","4","5","4","5","4","5","4","7","8","8","8","7","9","3","8","9","6","5","6","1","6","3","7","7","6","6","1","3","1","3","1","3","6","6","6","7","2","2","7","2","2","1","6","5","7","5","6","6","6","2","2","1","6","1","7","3","2","777135417253433345","李","272","Male","[""坏我"",""好他"",""好我"",""坏他""]","[""弱我"",""强他"",""强我"",""弱他""]","","","","","","","","no","","","","","","","","","SRET","EW_formal","","key","j","16.667522222222438","768","428","自己","奸险","Negative","morality","","","","","","","","","","",""
"545","","j","psychophysics","66","243921","0.0-7.0-3.0-0.52","7","6","6","7","6","5","4","4","5","5","5","1","2","1","-3","1","2","1","2","5","5","5","4","5","4","5","4","5","4","7","8","8","8","7","9","3","8","9","6","5","6","1","6","3","7","7","6","6","1","3","1","3","1","3","6","6","6","7","2","2","7","2","2","1","6","5","7","5","6","6","6","2","2","1","6","1","7","3","2","777135417253433345","李","272","Male","[""坏我"",""好他"",""好我"",""坏他""]","[""弱我"",""强他"",""强我"",""弱他""]","","","","","","","","no","","","","","","","","","SRET","EW_formal","","key","j","16.666499999999992","768","428","朋友","废物","Negative","ability","","","","","","","","","","",""
"566","","j","psychophysics","67","245488","0.0-7.0-3.0-0.53","7","6","6","7","6","5","4","4","5","5","5","1","2","1","-3","1","2","1","2","5","5","5","4","5","4","5","4","5","4","7","8","8","8","7","9","3","8","9","6","5","6","1","6","3","7","7","6","6","1","3","1","3","1","3","6","6","6","7","2","2","7","2","2","1","6","5","7","5","6","6","6","2","2","1","6","1","7","3","2","777135417253433345","李","272","Male","[""坏我"",""好他"",""好我"",""坏他""]","[""弱我"",""强他"",""强我"",""弱他""]","","","","","","","","no","","","","","","","","","SRET","EW_formal","","key","j","16.666451612903337","768","428","朋友","无敌","Positive","ability","","","","","","","","","","",""
"648","","j","psychophysics","68","247138","0.0-7.0-3.0-0.54","7","6","6","7","6","5","4","4","5","5","5","1","2","1","-3","1","2","1","2","5","5","5","4","5","4","5","4","5","4","7","8","8","8","7","9","3","8","9","6","5","6","1","6","3","7","7","6","6","1","3","1","3","1","3","6","6","6","7","2","2","7","2","2","1","6","5","7","5","6","6","6","2","2","1","6","1","7","3","2","777135417253433345","李","272","Male","[""坏我"",""好他"",""好我"",""坏他""]","[""弱我"",""强他"",""强我"",""弱他""]","","","","","","","","no","","","","","","","","","SRET","EW_formal","","key","j","16.66666326530626","768","428","自己","弱智","Negative","ability","","","","","","","","","","",""
"586","","j","psychophysics","69","248725","0.0-7.0-3.0-0.55","7","6","6","7","6","5","4","4","5","5","5","1","2","1","-3","1","2","1","2","5","5","5","4","5","4","5","4","5","4","7","8","8","8","7","9","3","8","9","6","5","6","1","6","3","7","7","6","6","1","3","1","3","1","3","6","6","6","7","2","2","7","2","2","1","6","5","7","5","6","6","6","2","2","1","6","1","7","3","2","777135417253433345","李","272","Male","[""坏我"",""好他"",""好我"",""坏他""]","[""弱我"",""强他"",""强我"",""弱他""]","","","","","","","","no","","","","","","","","","SRET","EW_formal","","key","j","16.66736842105257","768","428","自己","低劣","Negative","morality","","","","","","","","","","",""
"546","","f","psychophysics","70","250272","0.0-7.0-3.0-0.56","7","6","6","7","6","5","4","4","5","5","5","1","2","1","-3","1","2","1","2","5","5","5","4","5","4","5","4","5","4","7","8","8","8","7","9","3","8","9","6","5","6","1","6","3","7","7","6","6","1","3","1","3","1","3","6","6","6","7","2","2","7","2","2","1","6","5","7","5","6","6","6","2","2","1","6","1","7","3","2","777135417253433345","李","272","Male","[""坏我"",""好他"",""好我"",""坏他""]","[""弱我"",""强他"",""强我"",""弱他""]","","","","","","","","yes","","","","","","","","","SRET","EW_formal","","key","f","16.667351648351563","768","428","自己","博学","Positive","ability","","","","","","","","","","",""
"776","","f","psychophysics","71","252049","0.0-7.0-3.0-0.57","7","6","6","7","6","5","4","4","5","5","5","1","2","1","-3","1","2","1","2","5","5","5","4","5","4","5","4","5","4","7","8","8","8","7","9","3","8","9","6","5","6","1","6","3","7","7","6","6","1","3","1","3","1","3","6","6","6","7","2","2","7","2","2","1","6","5","7","5","6","6","6","2","2","1","6","1","7","3","2","777135417253433345","李","272","Male","[""坏我"",""好他"",""好我"",""坏他""]","[""弱我"",""强他"",""强我"",""弱他""]","","","","","","","","yes","","","","","","","","","SRET","EW_formal","","key","f","16.666500000000045","768","428","自己","坦荡","Positive","morality","","","","","","","","","","",""
"515","","f","psychophysics","72","253566","0.0-7.0-3.0-0.58","7","6","6","7","6","5","4","4","5","5","5","1","2","1","-3","1","2","1","2","5","5","5","4","5","4","5","4","5","4","7","8","8","8","7","9","3","8","9","6","5","6","1","6","3","7","7","6","6","1","3","1","3","1","3","6","6","6","7","2","2","7","2","2","1","6","5","7","5","6","6","6","2","2","1","6","1","7","3","2","777135417253433345","李","272","Male","[""坏我"",""好他"",""好我"",""坏他""]","[""弱我"",""强他"",""强我"",""弱他""]","","","","","","","","yes","","","","","","","","","SRET","EW_formal","","key","f","16.666377777777637","768","428","自己","有力","Positive","ability","","","","","","","","","","",""
"614","","j","psychophysics","73","255181","0.0-7.0-3.0-0.59","7","6","6","7","6","5","4","4","5","5","5","1","2","1","-3","1","2","1","2","5","5","5","4","5","4","5","4","5","4","7","8","8","8","7","9","3","8","9","6","5","6","1","6","3","7","7","6","6","1","3","1","3","1","3","6","6","6","7","2","2","7","2","2","1","6","5","7","5","6","6","6","2","2","1","6","1","7","3","2","777135417253433345","李","272","Male","[""坏我"",""好他"",""好我"",""坏他""]","[""弱我"",""强他"",""强我"",""弱他""]","","","","","","","","no","","","","","","","","","SRET","EW_formal","","key","j","16.666656249999807","768","428","朋友","毛糙","Negative","ability","","","","","","","","","","",""
"667","","j","psychophysics","74","256849","0.0-7.0-3.0-0.60","7","6","6","7","6","5","4","4","5","5","5","1","2","1","-3","1","2","1","2","5","5","5","4","5","4","5","4","5","4","7","8","8","8","7","9","3","8","9","6","5","6","1","6","3","7","7","6","6","1","3","1","3","1","3","6","6","6","7","2","2","7","2","2","1","6","5","7","5","6","6","6","2","2","1","6","1","7","3","2","777135417253433345","李","272","Male","[""坏我"",""好他"",""好我"",""坏他""]","[""弱我"",""强他"",""强我"",""弱他""]","","","","","","","","no","","","","","","","","","SRET","EW_formal","","key","j","16.666464646464753","768","428","自己","不良","Negative","morality","","","","","","","","","","",""
"617","","j","psychophysics","75","258468","0.0-7.0-3.0-0.61","7","6","6","7","6","5","4","4","5","5","5","1","2","1","-3","1","2","1","2","5","5","5","4","5","4","5","4","5","4","7","8","8","8","7","9","3","8","9","6","5","6","1","6","3","7","7","6","6","1","3","1","3","1","3","6","6","6","7","2","2","7","2","2","1","6","5","7","5","6","6","6","2","2","1","6","1","7","3","2","777135417253433345","李","272","Male","[""坏我"",""好他"",""好我"",""坏他""]","[""弱我"",""强他"",""强我"",""弱他""]","","","","","","","","no","","","","","","","","","SRET","EW_formal","","key","j","16.667218749999847","768","428","朋友","庸碌","Negative","ability","","","","","","","","","","",""
"565","","j","psychophysics","76","260035","0.0-7.0-3.0-0.62","7","6","6","7","6","5","4","4","5","5","5","1","2","1","-3","1","2","1","2","5","5","5","4","5","4","5","4","5","4","7","8","8","8","7","9","3","8","9","6","5","6","1","6","3","7","7","6","6","1","3","1","3","1","3","6","6","6","7","2","2","7","2","2","1","6","5","7","5","6","6","6","2","2","1","6","1","7","3","2","777135417253433345","李","272","Male","[""坏我"",""好他"",""好我"",""坏他""]","[""弱我"",""强他"",""强我"",""弱他""]","","","","","","","","no","","","","","","","","","SRET","EW_formal","","key","j","16.66724731182831","768","428","自己","恶劣","Negative","morality","","","","","","","","","","",""
"680","","f","psychophysics","77","261716","0.0-7.0-3.0-0.63","7","6","6","7","6","5","4","4","5","5","5","1","2","1","-3","1","2","1","2","5","5","5","4","5","4","5","4","5","4","7","8","8","8","7","9","3","8","9","6","5","6","1","6","3","7","7","6","6","1","3","1","3","1","3","6","6","6","7","2","2","7","2","2","1","6","5","7","5","6","6","6","2","2","1","6","1","7","3","2","777135417253433345","李","272","Male","[""坏我"",""好他"",""好我"",""坏他""]","[""弱我"",""强他"",""强我"",""弱他""]","","","","","","","","yes","","","","","","","","","SRET","EW_formal","","key","f","16.666579999999957","768","428","朋友","才尽","Negative","ability","","","","","","","","","","",""
"761","","f","psychophysics","78","263478","0.0-7.0-3.0-0.64","7","6","6","7","6","5","4","4","5","5","5","1","2","1","-3","1","2","1","2","5","5","5","4","5","4","5","4","5","4","7","8","8","8","7","9","3","8","9","6","5","6","1","6","3","7","7","6","6","1","3","1","3","1","3","6","6","6","7","2","2","7","2","2","1","6","5","7","5","6","6","6","2","2","1","6","1","7","3","2","777135417253433345","李","272","Male","[""坏我"",""好他"",""好我"",""坏他""]","[""弱我"",""强他"",""强我"",""弱他""]","","","","","","","","yes","","","","","","","","","SRET","EW_formal","","key","f","16.66777142857124","768","428","朋友","骁勇","Positive","ability","","","","","","","","","","",""
"790","","f","psychophysics","79","265271","0.0-7.0-3.0-0.65","7","6","6","7","6","5","4","4","5","5","5","1","2","1","-3","1","2","1","2","5","5","5","4","5","4","5","4","5","4","7","8","8","8","7","9","3","8","9","6","5","6","1","6","3","7","7","6","6","1","3","1","3","1","3","6","6","6","7","2","2","7","2","2","1","6","5","7","5","6","6","6","2","2","1","6","1","7","3","2","777135417253433345","李","272","Male","[""坏我"",""好他"",""好我"",""坏他""]","[""弱我"",""强他"",""强我"",""弱他""]","","","","","","","","yes","","","","","","","","","SRET","EW_formal","","key","f","16.66413207547157","768","428","自己","果决","Positive","ability","","","","","","","","","","",""
"689","","j","psychophysics","80","266962","0.0-7.0-3.0-0.66","7","6","6","7","6","5","4","4","5","5","5","1","2","1","-3","1","2","1","2","5","5","5","4","5","4","5","4","5","4","7","8","8","8","7","9","3","8","9","6","5","6","1","6","3","7","7","6","6","1","3","1","3","1","3","6","6","6","7","2","2","7","2","2","1","6","5","7","5","6","6","6","2","2","1","6","1","7","3","2","777135417253433345","李","272","Male","[""坏我"",""好他"",""好我"",""坏他""]","[""弱我"",""强他"",""强我"",""弱他""]","","","","","","","","no","","","","","","","","","SRET","EW_formal","","key","j","16.666673267327045","768","428","朋友","虚假","Negative","morality","","","","","","","","","","",""
"582","","j","psychophysics","81","268545","0.0-7.0-3.0-0.67","7","6","6","7","6","5","4","4","5","5","5","1","2","1","-3","1","2","1","2","5","5","5","4","5","4","5","4","5","4","7","8","8","8","7","9","3","8","9","6","5","6","1","6","3","7","7","6","6","1","3","1","3","1","3","6","6","6","7","2","2","7","2","2","1","6","5","7","5","6","6","6","2","2","1","6","1","7","3","2","777135417253433345","李","272","Male","[""坏我"",""好他"",""好我"",""坏他""]","[""弱我"",""强他"",""强我"",""弱他""]","","","","","","","","no","","","","","","","","","SRET","EW_formal","","key","j","16.666670212765506","768","428","朋友","贪腐","Negative","morality","","","","","","","","","","",""
"526","","j","psychophysics","82","270072","0.0-7.0-3.0-0.68","7","6","6","7","6","5","4","4","5","5","5","1","2","1","-3","1","2","1","2","5","5","5","4","5","4","5","4","5","4","7","8","8","8","7","9","3","8","9","6","5","6","1","6","3","7","7","6","6","1","3","1","3","1","3","6","6","6","7","2","2","7","2","2","1","6","5","7","5","6","6","6","2","2","1","6","1","7","3","2","777135417253433345","李","272","Male","[""坏我"",""好他"",""好我"",""坏他""]","[""弱我"",""强他"",""强我"",""弱他""]","","","","","","","","no","","","","","","","","","SRET","EW_formal","","key","j","16.66552222222219","768","428","朋友","拖拉","Negative","ability","","","","","","","","","","",""
"515","","j","psychophysics","83","271589","0.0-7.0-3.0-0.69","7","6","6","7","6","5","4","4","5","5","5","1","2","1","-3","1","2","1","2","5","5","5","4","5","4","5","4","5","4","7","8","8","8","7","9","3","8","9","6","5","6","1","6","3","7","7","6","6","1","3","1","3","1","3","6","6","6","7","2","2","7","2","2","1","6","5","7","5","6","6","6","2","2","1","6","1","7","3","2","777135417253433345","李","272","Male","[""坏我"",""好他"",""好我"",""坏他""]","[""弱我"",""强他"",""强我"",""弱他""]","","","","","","","","no","","","","","","","","","SRET","EW_formal","","key","j","16.66652222222183","768","428","朋友","虚伪","Negative","morality","","","","","","","","","","",""
"569","","j","psychophysics","84","273159","0.0-7.0-3.0-0.70","7","6","6","7","6","5","4","4","5","5","5","1","2","1","-3","1","2","1","2","5","5","5","4","5","4","5","4","5","4","7","8","8","8","7","9","3","8","9","6","5","6","1","6","3","7","7","6","6","1","3","1","3","1","3","6","6","6","7","2","2","7","2","2","1","6","5","7","5","6","6","6","2","2","1","6","1","7","3","2","777135417253433345","李","272","Male","[""坏我"",""好他"",""好我"",""坏他""]","[""弱我"",""强他"",""强我"",""弱他""]","","","","","","","","no","","","","","","","","","SRET","EW_formal","","key","j","16.667159574467966","768","428","自己","愚钝","Negative","ability","","","","","","","","","","",""
"612","","f","psychophysics","85","274772","0.0-7.0-3.0-0.71","7","6","6","7","6","5","4","4","5","5","5","1","2","1","-3","1","2","1","2","5","5","5","4","5","4","5","4","5","4","7","8","8","8","7","9","3","8","9","6","5","6","1","6","3","7","7","6","6","1","3","1","3","1","3","6","6","6","7","2","2","7","2","2","1","6","5","7","5","6","6","6","2","2","1","6","1","7","3","2","777135417253433345","李","272","Male","[""坏我"",""好他"",""好我"",""坏他""]","[""弱我"",""强他"",""强我"",""弱他""]","","","","","","","","yes","","","","","","","","","SRET","EW_formal","","key","f","16.66362105263152","768","428","朋友","热心","Positive","morality","","","","","","","","","","",""
"640","","j","psychophysics","86","276414","0.0-7.0-3.0-0.72","7","6","6","7","6","5","4","4","5","5","5","1","2","1","-3","1","2","1","2","5","5","5","4","5","4","5","4","5","4","7","8","8","8","7","9","3","8","9","6","5","6","1","6","3","7","7","6","6","1","3","1","3","1","3","6","6","6","7","2","2","7","2","2","1","6","5","7","5","6","6","6","2","2","1","6","1","7","3","2","777135417253433345","李","272","Male","[""坏我"",""好他"",""好我"",""坏他""]","[""弱我"",""强他"",""强我"",""弱他""]","","","","","","","","no","","","","","","","","","SRET","EW_formal","","key","j","16.66658163265318","768","428","自己","业余","Negative","ability","","","","","","","","","","",""
"530","","j","psychophysics","87","277945","0.0-7.0-3.0-0.73","7","6","6","7","6","5","4","4","5","5","5","1","2","1","-3","1","2","1","2","5","5","5","4","5","4","5","4","5","4","7","8","8","8","7","9","3","8","9","6","5","6","1","6","3","7","7","6","6","1","3","1","3","1","3","6","6","6","7","2","2","7","2","2","1","6","5","7","5","6","6","6","2","2","1","6","1","7","3","2","777135417253433345","李","272","Male","[""坏我"",""好他"",""好我"",""坏他""]","[""弱我"",""强他"",""强我"",""弱他""]","","","","","","","","no","","","","","","","","","SRET","EW_formal","","key","j","16.667054945054836","768","428","朋友","怠惰","Negative","ability","","","","","","","","","","",""
"545","","j","psychophysics","88","279492","0.0-7.0-3.0-0.74","7","6","6","7","6","5","4","4","5","5","5","1","2","1","-3","1","2","1","2","5","5","5","4","5","4","5","4","5","4","7","8","8","8","7","9","3","8","9","6","5","6","1","6","3","7","7","6","6","1","3","1","3","1","3","6","6","6","7","2","2","7","2","2","1","6","5","7","5","6","6","6","2","2","1","6","1","7","3","2","777135417253433345","李","272","Male","[""坏我"",""好他"",""好我"",""坏他""]","[""弱我"",""强他"",""强我"",""弱他""]","","","","","","","","no","","","","","","","","","SRET","EW_formal","","key","j","16.6663695652172","768","428","朋友","廉明","Positive","morality","","","","","","","","","","",""
"746","","j","psychophysics","89","281239","0.0-7.0-3.0-0.75","7","6","6","7","6","5","4","4","5","5","5","1","2","1","-3","1","2","1","2","5","5","5","4","5","4","5","4","5","4","7","8","8","8","7","9","3","8","9","6","5","6","1","6","3","7","7","6","6","1","3","1","3","1","3","6","6","6","7","2","2","7","2","2","1","6","5","7","5","6","6","6","2","2","1","6","1","7","3","2","777135417253433345","李","272","Male","[""坏我"",""好他"",""好我"",""坏他""]","[""弱我"",""强他"",""强我"",""弱他""]","","","","","","","","no","","","","","","","","","SRET","EW_formal","","key","j","16.666621359222844","768","428","朋友","小人","Negative","morality","","","","","","","","","","",""
"1435","","f","psychophysics","90","283677","0.0-7.0-3.0-0.76","7","6","6","7","6","5","4","4","5","5","5","1","2","1","-3","1","2","1","2","5","5","5","4","5","4","5","4","5","4","7","8","8","8","7","9","3","8","9","6","5","6","1","6","3","7","7","6","6","1","3","1","3","1","3","6","6","6","7","2","2","7","2","2","1","6","5","7","5","6","6","6","2","2","1","6","1","7","3","2","777135417253433345","李","272","Male","[""坏我"",""好他"",""好我"",""坏他""]","[""弱我"",""强他"",""强我"",""弱他""]","","","","","","","","yes","","","","","","","","","SRET","EW_formal","","key","f","16.66665753424654","768","428","朋友","逞强","Negative","ability","","","","","","","","","","",""
"686","","f","psychophysics","91","285364","0.0-7.0-3.0-0.77","7","6","6","7","6","5","4","4","5","5","5","1","2","1","-3","1","2","1","2","5","5","5","4","5","4","5","4","5","4","7","8","8","8","7","9","3","8","9","6","5","6","1","6","3","7","7","6","6","1","3","1","3","1","3","6","6","6","7","2","2","7","2","2","1","6","5","7","5","6","6","6","2","2","1","6","1","7","3","2","777135417253433345","李","272","Male","[""坏我"",""好他"",""好我"",""坏他""]","[""弱我"",""强他"",""强我"",""弱他""]","","","","","","","","yes","","","","","","","","","SRET","EW_formal","","key","f","16.66722000000009","768","428","朋友","细心","Positive","ability","","","","","","","","","","",""
"965","","f","psychophysics","92","287331","0.0-7.0-3.0-0.78","7","6","6","7","6","5","4","4","5","5","5","1","2","1","-3","1","2","1","2","5","5","5","4","5","4","5","4","5","4","7","8","8","8","7","9","3","8","9","6","5","6","1","6","3","7","7","6","6","1","3","1","3","1","3","6","6","6","7","2","2","7","2","2","1","6","5","7","5","6","6","6","2","2","1","6","1","7","3","2","777135417253433345","李","272","Male","[""坏我"",""好他"",""好我"",""坏他""]","[""弱我"",""强他"",""强我"",""弱他""]","","","","","","","","yes","","","","","","","","","SRET","EW_formal","","key","f","16.666794871794494","768","428","朋友","高明","Positive","ability","","","","","","","","","","",""
"637","","f","psychophysics","93","288969","0.0-7.0-3.0-0.79","7","6","6","7","6","5","4","4","5","5","5","1","2","1","-3","1","2","1","2","5","5","5","4","5","4","5","4","5","4","7","8","8","8","7","9","3","8","9","6","5","6","1","6","3","7","7","6","6","1","3","1","3","1","3","6","6","6","7","2","2","7","2","2","1","6","5","7","5","6","6","6","2","2","1","6","1","7","3","2","777135417253433345","李","272","Male","[""坏我"",""好他"",""好我"",""坏他""]","[""弱我"",""强他"",""强我"",""弱他""]","","","","","","","","yes","","","","","","","","","SRET","EW_formal","","key","f","16.664546391752683","768","428","朋友","干练","Positive","ability","","","","","","","","","","",""
"576","","f","psychophysics","94","290546","0.0-7.0-3.0-0.80","7","6","6","7","6","5","4","4","5","5","5","1","2","1","-3","1","2","1","2","5","5","5","4","5","4","5","4","5","4","7","8","8","8","7","9","3","8","9","6","5","6","1","6","3","7","7","6","6","1","3","1","3","1","3","6","6","6","7","2","2","7","2","2","1","6","5","7","5","6","6","6","2","2","1","6","1","7","3","2","777135417253433345","李","272","Male","[""坏我"",""好他"",""好我"",""坏他""]","[""弱我"",""强他"",""强我"",""弱他""]","","","","","","","","yes","","","","","","","","","SRET","EW_formal","","key","f","16.667765957447006","768","428","自己","慷慨","Positive","morality","","","","","","","","","","",""
"948","","f","psychophysics","95","292496","0.0-7.0-3.0-0.81","7","6","6","7","6","5","4","4","5","5","5","1","2","1","-3","1","2","1","2","5","5","5","4","5","4","5","4","5","4","7","8","8","8","7","9","3","8","9","6","5","6","1","6","3","7","7","6","6","1","3","1","3","1","3","6","6","6","7","2","2","7","2","2","1","6","5","7","5","6","6","6","2","2","1","6","1","7","3","2","777135417253433345","李","272","Male","[""坏我"",""好他"",""好我"",""坏他""]","[""弱我"",""强他"",""强我"",""弱他""]","","","","","","","","yes","","","","","","","","","SRET","EW_formal","","key","f","16.665870689655502","768","428","自己","宽容","Positive","morality","","","","","","","","","","",""
"668","","f","psychophysics","96","294166","0.0-7.0-3.0-0.82","7","6","6","7","6","5","4","4","5","5","5","1","2","1","-3","1","2","1","2","5","5","5","4","5","4","5","4","5","4","7","8","8","8","7","9","3","8","9","6","5","6","1","6","3","7","7","6","6","1","3","1","3","1","3","6","6","6","7","2","2","7","2","2","1","6","5","7","5","6","6","6","2","2","1","6","1","7","3","2","777135417253433345","李","272","Male","[""坏我"",""好他"",""好我"",""坏他""]","[""弱我"",""强他"",""强我"",""弱他""]","","","","","","","","yes","","","","","","","","","SRET","EW_formal","","key","f","16.665747474747324","768","428","自己","诚信","Positive","morality","","","","","","","","","","",""
"479","","f","psychophysics","97","295646","0.0-7.0-3.0-0.83","7","6","6","7","6","5","4","4","5","5","5","1","2","1","-3","1","2","1","2","5","5","5","4","5","4","5","4","5","4","7","8","8","8","7","9","3","8","9","6","5","6","1","6","3","7","7","6","6","1","3","1","3","1","3","6","6","6","7","2","2","7","2","2","1","6","5","7","5","6","6","6","2","2","1","6","1","7","3","2","777135417253433345","李","272","Male","[""坏我"",""好他"",""好我"",""坏他""]","[""弱我"",""强他"",""强我"",""弱他""]","","","","","","","","yes","","","","","","","","","SRET","EW_formal","","key","f","16.667511363636798","768","428","自己","勤恳","Positive","morality","","","","","","","","","","",""
"506","","f","psychophysics","98","297154","0.0-7.0-3.0-0.84","7","6","6","7","6","5","4","4","5","5","5","1","2","1","-3","1","2","1","2","5","5","5","4","5","4","5","4","5","4","7","8","8","8","7","9","3","8","9","6","5","6","1","6","3","7","7","6","6","1","3","1","3","1","3","6","6","6","7","2","2","7","2","2","1","6","5","7","5","6","6","6","2","2","1","6","1","7","3","2","777135417253433345","李","272","Male","[""坏我"",""好他"",""好我"",""坏他""]","[""弱我"",""强他"",""强我"",""弱他""]","","","","","","","","yes","","","","","","","","","SRET","EW_formal","","key","f","16.663955056179823","768","428","自己","主见","Positive","ability","","","","","","","","","","",""
"623","","j","psychophysics","99","298779","0.0-7.0-3.0-0.85","7","6","6","7","6","5","4","4","5","5","5","1","2","1","-3","1","2","1","2","5","5","5","4","5","4","5","4","5","4","7","8","8","8","7","9","3","8","9","6","5","6","1","6","3","7","7","6","6","1","3","1","3","1","3","6","6","6","7","2","2","7","2","2","1","6","5","7","5","6","6","6","2","2","1","6","1","7","3","2","777135417253433345","李","272","Male","[""坏我"",""好他"",""好我"",""坏他""]","[""弱我"",""强他"",""强我"",""弱他""]","","","","","","","","no","","","","","","","","","SRET","EW_formal","","key","j","16.666690721650028","768","428","自己","缓慢","Negative","ability","","","","","","","","","","",""
"534","","j","psychophysics","100","300314","0.0-7.0-3.0-0.86","7","6","6","7","6","5","4","4","5","5","5","1","2","1","-3","1","2","1","2","5","5","5","4","5","4","5","4","5","4","7","8","8","8","7","9","3","8","9","6","5","6","1","6","3","7","7","6","6","1","3","1","3","1","3","6","6","6","7","2","2","7","2","2","1","6","5","7","5","6","6","6","2","2","1","6","1","7","3","2","777135417253433345","李","272","Male","[""坏我"",""好他"",""好我"",""坏他""]","[""弱我"",""强他"",""强我"",""弱他""]","","","","","","","","no","","","","","","","","","SRET","EW_formal","","key","j","16.667120879121345","768","428","朋友","低俗","Negative","morality","","","","","","","","","","",""
"701","","f","psychophysics","101","302016","0.0-7.0-3.0-0.87","7","6","6","7","6","5","4","4","5","5","5","1","2","1","-3","1","2","1","2","5","5","5","4","5","4","5","4","5","4","7","8","8","8","7","9","3","8","9","6","5","6","1","6","3","7","7","6","6","1","3","1","3","1","3","6","6","6","7","2","2","7","2","2","1","6","5","7","5","6","6","6","2","2","1","6","1","7","3","2","777135417253433345","李","272","Male","[""坏我"",""好他"",""好我"",""坏他""]","[""弱我"",""强他"",""强我"",""弱他""]","","","","","","","","yes","","","","","","","","","SRET","EW_formal","","key","f","16.665673267326806","768","428","朋友","素养","Positive","morality","","","","","","","","","","",""
"35489","
    <p><div style='color:white;font-size:35px; line-height:20px;'>计算任务</div></p><br>
    <p><div style='color:red;font-size:25px; line-height:20px;'>接下来，您将看到一些四则运算题，<b>请从键盘选择 0-9 进行反应。</b></div></p>
    <p><div style='color:red;font-size:25px; line-height:20px;'>请尽可能快地进行计算，计算的速度和正确率将影响报酬的发放。</div></p>
    <p><div class='footer' style='color:white;font-size:25px; line-height:20px;'>如果对本实验还有不清楚之处，请立即向实验员咨询。</p><p style='color:white;font-size:25px; line-height:20px;'>如果您明白了规则：</p><p style='color:white;font-size:22px; line-height:20px;'>请按 继续 进入练习</p>
    </div>
    ","0","html-button-response","102","337505","0.0-7.0-4.0","7","6","6","7","6","5","4","4","5","5","5","1","2","1","-3","1","2","1","2","5","5","5","4","5","4","5","4","5","4","7","8","8","8","7","9","3","8","9","6","5","6","1","6","3","7","7","6","6","1","3","1","3","1","3","6","6","6","7","2","2","7","2","2","1","6","5","7","5","6","6","6","2","2","1","6","1","7","3","2","777135417253433345","李","272","Male","[""坏我"",""好他"",""好我"",""坏他""]","[""弱我"",""强他"",""强我"",""弱他""]","","","","","","","","","","","","","","","","","SRET_math","math_instructions","Thu Jan 11 2024 13:50:02 GMT+0800 (GMT+08:00)","","","","","","","","","","","","","","","","","","","",""
"1917","","5","psychophysics","103","339425","0.0-7.0-5.0-0.0","7","6","6","7","6","5","4","4","5","5","5","1","2","1","-3","1","2","1","2","5","5","5","4","5","4","5","4","5","4","7","8","8","8","7","9","3","8","9","6","5","6","1","6","3","7","7","6","6","1","3","1","3","1","3","6","6","6","7","2","2","7","2","2","1","6","5","7","5","6","6","6","2","2","1","6","1","7","3","2","777135417253433345","李","272","Male","[""坏我"",""好他"",""好我"",""坏他""]","[""弱我"",""强他"",""强我"",""弱他""]","","","","","","","","5","","","","","","","","","SRET","SRET_math_calculate","","key","5","16.666706896551627","768","428","","","","","9-4= ?","5","1","","","","","","","",""
"1938","","9","psychophysics","104","341364","0.0-7.0-5.0-0.1","7","6","6","7","6","5","4","4","5","5","5","1","2","1","-3","1","2","1","2","5","5","5","4","5","4","5","4","5","4","7","8","8","8","7","9","3","8","9","6","5","6","1","6","3","7","7","6","6","1","3","1","3","1","3","6","6","6","7","2","2","7","2","2","1","6","5","7","5","6","6","6","2","2","1","6","1","7","3","2","777135417253433345","李","272","Male","[""坏我"",""好他"",""好我"",""坏他""]","[""弱我"",""强他"",""强我"",""弱他""]","","","","","","","","9","","","","","","","","","SRET","SRET_math_calculate","","key","9","16.666991304347555","768","428","","","","","8+1= ?","9","1","","","","","","","",""
"2096","","0","psychophysics","105","343461","0.0-7.0-5.0-0.2","7","6","6","7","6","5","4","4","5","5","5","1","2","1","-3","1","2","1","2","5","5","5","4","5","4","5","4","5","4","7","8","8","8","7","9","3","8","9","6","5","6","1","6","3","7","7","6","6","1","3","1","3","1","3","6","6","6","7","2","2","7","2","2","1","6","5","7","5","6","6","6","2","2","1","6","1","7","3","2","777135417253433345","李","272","Male","[""坏我"",""好他"",""好我"",""坏他""]","[""弱我"",""强他"",""强我"",""弱他""]","","","","","","","","0","","","","","","","","","SRET","SRET_math_calculate","","key","0","16.666983999999704","768","428","","","","","12-12= ?","0","1","","","","","","","",""
"2861","","1","psychophysics","106","346323","0.0-7.0-5.0-0.3","7","6","6","7","6","5","4","4","5","5","5","1","2","1","-3","1","2","1","2","5","5","5","4","5","4","5","4","5","4","7","8","8","8","7","9","3","8","9","6","5","6","1","6","3","7","7","6","6","1","3","1","3","1","3","6","6","6","7","2","2","7","2","2","1","6","5","7","5","6","6","6","2","2","1","6","1","7","3","2","777135417253433345","李","272","Male","[""坏我"",""好他"",""好我"",""坏他""]","[""弱我"",""强他"",""强我"",""弱他""]","","","","","","","","1","","","","","","","","","SRET","SRET_math_calculate","","key","1","16.666511764705714","768","428","","","","","30-29= ?","1","1","","","","","","","",""
"624","","1","psychophysics","107","346951","0.0-7.0-5.0-0.4","7","6","6","7","6","5","4","4","5","5","5","1","2","1","-3","1","2","1","2","5","5","5","4","5","4","5","4","5","4","7","8","8","8","7","9","3","8","9","6","5","6","1","6","3","7","7","6","6","1","3","1","3","1","3","6","6","6","7","2","2","7","2","2","1","6","5","7","5","6","6","6","2","2","1","6","1","7","3","2","777135417253433345","李","272","Male","[""坏我"",""好他"",""好我"",""坏他""]","[""弱我"",""强他"",""强我"",""弱他""]","","","","","","","","1","","","","","","","","","SRET","SRET_math_calculate","","key","1","16.669270270269653","768","428","","","","","10-9= ?","1","1","","","","","","","",""
"2003","","4","psychophysics","108","348955","0.0-7.0-5.0-0.5","7","6","6","7","6","5","4","4","5","5","5","1","2","1","-3","1","2","1","2","5","5","5","4","5","4","5","4","5","4","7","8","8","8","7","9","3","8","9","6","5","6","1","6","3","7","7","6","6","1","3","1","3","1","3","6","6","6","7","2","2","7","2","2","1","6","5","7","5","6","6","6","2","2","1","6","1","7","3","2","777135417253433345","李","272","Male","[""坏我"",""好他"",""好我"",""坏他""]","[""弱我"",""强他"",""强我"",""弱他""]","","","","","","","","4","","","","","","","","","SRET","SRET_math_calculate","","key","4","16.666512605042037","768","428","","","","","2+2= ?","4","1","","","","","","","",""
"3335","","8","psychophysics","109","352292","0.0-7.0-5.0-0.6","7","6","6","7","6","5","4","4","5","5","5","1","2","1","-3","1","2","1","2","5","5","5","4","5","4","5","4","5","4","7","8","8","8","7","9","3","8","9","6","5","6","1","6","3","7","7","6","6","1","3","1","3","1","3","6","6","6","7","2","2","7","2","2","1","6","5","7","5","6","6","6","2","2","1","6","1","7","3","2","777135417253433345","李","272","Male","[""坏我"",""好他"",""好我"",""坏他""]","[""弱我"",""强他"",""强我"",""弱他""]","","","","","","","","8","","","","","","","","","SRET","SRET_math_calculate","","key","8","16.666575000000012","768","428","","","","","56/7= ?","8","1","","","","","","","",""
"2072","","9","psychophysics","110","354364","0.0-7.0-5.0-0.7","7","6","6","7","6","5","4","4","5","5","5","1","2","1","-3","1","2","1","2","5","5","5","4","5","4","5","4","5","4","7","8","8","8","7","9","3","8","9","6","5","6","1","6","3","7","7","6","6","1","3","1","3","1","3","6","6","6","7","2","2","7","2","2","1","6","5","7","5","6","6","6","2","2","1","6","1","7","3","2","777135417253433345","李","272","Male","[""坏我"",""好他"",""好我"",""坏他""]","[""弱我"",""强他"",""强我"",""弱他""]","","","","","","","","9","","","","","","","","","SRET","SRET_math_calculate","","key","9","16.665837398373874","768","428","","","","","1*9= ?","9","1","","","","","","","",""
"2085","","7","psychophysics","111","356450","0.0-7.0-5.0-0.8","7","6","6","7","6","5","4","4","5","5","5","1","2","1","-3","1","2","1","2","5","5","5","4","5","4","5","4","5","4","7","8","8","8","7","9","3","8","9","6","5","6","1","6","3","7","7","6","6","1","3","1","3","1","3","6","6","6","7","2","2","7","2","2","1","6","5","7","5","6","6","6","2","2","1","6","1","7","3","2","777135417253433345","李","272","Male","[""坏我"",""好他"",""好我"",""坏他""]","[""弱我"",""强他"",""强我"",""弱他""]","","","","","","","","7","","","","","","","","","SRET","SRET_math_calculate","","key","7","16.666129032257878","768","428","","","","","7*1=  ?","7","1","","","","","","","",""
"1868","","8","psychophysics","112","358319","0.0-7.0-5.0-0.9","7","6","6","7","6","5","4","4","5","5","5","1","2","1","-3","1","2","1","2","5","5","5","4","5","4","5","4","5","4","7","8","8","8","7","9","3","8","9","6","5","6","1","6","3","7","7","6","6","1","3","1","3","1","3","6","6","6","7","2","2","7","2","2","1","6","5","7","5","6","6","6","2","2","1","6","1","7","3","2","777135417253433345","李","272","Male","[""坏我"",""好他"",""好我"",""坏他""]","[""弱我"",""强他"",""强我"",""弱他""]","","","","","","","","8","","","","","","","","","SRET","SRET_math_calculate","","key","8","16.66729729729736","768","428","","","","","8*1= ?","8","1","","","","","","","",""
"2067","","0","psychophysics","113","360387","0.0-7.0-5.0-0.10","7","6","6","7","6","5","4","4","5","5","5","1","2","1","-3","1","2","1","2","5","5","5","4","5","4","5","4","5","4","7","8","8","8","7","9","3","8","9","6","5","6","1","6","3","7","7","6","6","1","3","1","3","1","3","6","6","6","7","2","2","7","2","2","1","6","5","7","5","6","6","6","2","2","1","6","1","7","3","2","777135417253433345","李","272","Male","[""坏我"",""好他"",""好我"",""坏他""]","[""弱我"",""强他"",""强我"",""弱他""]","","","","","","","","0","","","","","","","","","SRET","SRET_math_calculate","","key","0","16.666040650406583","768","428","","","","","22-22= ?","0","1","","","","","","","",""
"2202","","3","psychophysics","114","362597","0.0-7.0-5.0-0.11","7","6","6","7","6","5","4","4","5","5","5","1","2","1","-3","1","2","1","2","5","5","5","4","5","4","5","4","5","4","7","8","8","8","7","9","3","8","9","6","5","6","1","6","3","7","7","6","6","1","3","1","3","1","3","6","6","6","7","2","2","7","2","2","1","6","5","7","5","6","6","6","2","2","1","6","1","7","3","2","777135417253433345","李","272","Male","[""坏我"",""好他"",""好我"",""坏他""]","[""弱我"",""强他"",""强我"",""弱他""]","","","","","","","","3","","","","","","","","","SRET","SRET_math_calculate","","key","3","16.667818181818195","768","428","","","","","3*1= ?","3","1","","","","","","","",""
"2144","","8","psychophysics","115","364743","0.0-7.0-5.0-0.12","7","6","6","7","6","5","4","4","5","5","5","1","2","1","-3","1","2","1","2","5","5","5","4","5","4","5","4","5","4","7","8","8","8","7","9","3","8","9","6","5","6","1","6","3","7","7","6","6","1","3","1","3","1","3","6","6","6","7","2","2","7","2","2","1","6","5","7","5","6","6","6","2","2","1","6","1","7","3","2","777135417253433345","李","272","Male","[""坏我"",""好他"",""好我"",""坏他""]","[""弱我"",""强他"",""强我"",""弱他""]","","","","","","","","8","","","","","","","","","SRET","SRET_math_calculate","","key","8","16.666554687499683","768","428","","","","","11-3= ?","8","1","","","","","","","",""
"1922","","2","psychophysics","116","366665","0.0-7.0-5.0-0.13","7","6","6","7","6","5","4","4","5","5","5","1","2","1","-3","1","2","1","2","5","5","5","4","5","4","5","4","5","4","7","8","8","8","7","9","3","8","9","6","5","6","1","6","3","7","7","6","6","1","3","1","3","1","3","6","6","6","7","2","2","7","2","2","1","6","5","7","5","6","6","6","2","2","1","6","1","7","3","2","777135417253433345","李","272","Male","[""坏我"",""好他"",""好我"",""坏他""]","[""弱我"",""强他"",""强我"",""弱他""]","","","","","","","","2","","","","","","","","","SRET","SRET_math_calculate","","key","2","16.66720175438585","768","428","","","","","5-3= ?","2","1","","","","","","","",""
"1987","","8","psychophysics","117","368653","0.0-7.0-5.0-0.14","7","6","6","7","6","5","4","4","5","5","5","1","2","1","-3","1","2","1","2","5","5","5","4","5","4","5","4","5","4","7","8","8","8","7","9","3","8","9","6","5","6","1","6","3","7","7","6","6","1","3","1","3","1","3","6","6","6","7","2","2","7","2","2","1","6","5","7","5","6","6","6","2","2","1","6","1","7","3","2","777135417253433345","李","272","Male","[""坏我"",""好他"",""好我"",""坏他""]","[""弱我"",""强他"",""强我"",""弱他""]","","","","","","","","8","","","","","","","","","SRET","SRET_math_calculate","","key","8","16.66651694915283","768","428","","","","","6+2= ?","8","1","","","","","","","",""
"1861","","9","psychophysics","118","370515","0.0-7.0-5.0-0.15","7","6","6","7","6","5","4","4","5","5","5","1","2","1","-3","1","2","1","2","5","5","5","4","5","4","5","4","5","4","7","8","8","8","7","9","3","8","9","6","5","6","1","6","3","7","7","6","6","1","3","1","3","1","3","6","6","6","7","2","2","7","2","2","1","6","5","7","5","6","6","6","2","2","1","6","1","7","3","2","777135417253433345","李","272","Male","[""坏我"",""好他"",""好我"",""坏他""]","[""弱我"",""强他"",""强我"",""弱他""]","","","","","","","","9","","","","","","","","","SRET","SRET_math_calculate","","key","9","16.667477477477707","768","428","","","","","2+7= ?","9","1","","","","","","","",""
"2116","","5","psychophysics","119","372633","0.0-7.0-5.0-0.16","7","6","6","7","6","5","4","4","5","5","5","1","2","1","-3","1","2","1","2","5","5","5","4","5","4","5","4","5","4","7","8","8","8","7","9","3","8","9","6","5","6","1","6","3","7","7","6","6","1","3","1","3","1","3","6","6","6","7","2","2","7","2","2","1","6","5","7","5","6","6","6","2","2","1","6","1","7","3","2","777135417253433345","李","272","Male","[""坏我"",""好他"",""好我"",""坏他""]","[""弱我"",""强他"",""强我"",""弱他""]","","","","","","","","5","","","","","","","","","SRET","SRET_math_calculate","","key","5","16.667460317460133","768","428","","","","","15-10= ?","5","1","","","","","","","",""
"2217","","3","psychophysics","120","374851","0.0-7.0-5.0-0.17","7","6","6","7","6","5","4","4","5","5","5","1","2","1","-3","1","2","1","2","5","5","5","4","5","4","5","4","5","4","7","8","8","8","7","9","3","8","9","6","5","6","1","6","3","7","7","6","6","1","3","1","3","1","3","6","6","6","7","2","2","7","2","2","1","6","5","7","5","6","6","6","2","2","1","6","1","7","3","2","777135417253433345","李","272","Male","[""坏我"",""好他"",""好我"",""坏他""]","[""弱我"",""强他"",""强我"",""弱他""]","","","","","","","","3","","","","","","","","","SRET","SRET_math_calculate","","key","3","16.665666666666795","768","428","","","","","1+2= ?","3","1","","","","","","","",""
"2504","","9","psychophysics","121","377356","0.0-7.0-5.0-0.18","7","6","6","7","6","5","4","4","5","5","5","1","2","1","-3","1","2","1","2","5","5","5","4","5","4","5","4","5","4","7","8","8","8","7","9","3","8","9","6","5","6","1","6","3","7","7","6","6","1","3","1","3","1","3","6","6","6","7","2","2","7","2","2","1","6","5","7","5","6","6","6","2","2","1","6","1","7","3","2","777135417253433345","李","272","Male","[""坏我"",""好他"",""好我"",""坏他""]","[""弱我"",""强他"",""强我"",""弱他""]","","","","","","","","9","","","","","","","","","SRET","SRET_math_calculate","","key","9","16.666630872483083","768","428","","","","","13-6= ?","7","0","","","","","","","",""
"2268","","4","psychophysics","122","379629","0.0-7.0-5.0-0.19","7","6","6","7","6","5","4","4","5","5","5","1","2","1","-3","1","2","1","2","5","5","5","4","5","4","5","4","5","4","7","8","8","8","7","9","3","8","9","6","5","6","1","6","3","7","7","6","6","1","3","1","3","1","3","6","6","6","7","2","2","7","2","2","1","6","5","7","5","6","6","6","2","2","1","6","1","7","3","2","777135417253433345","李","272","Male","[""坏我"",""好他"",""好我"",""坏他""]","[""弱我"",""强他"",""强我"",""弱他""]","","","","","","","","4","","","","","","","","","SRET","SRET_math_calculate","","key","4","16.667235294117692","768","428","","","","","4*1= ?","4","1","","","","","","","",""
"2159","","4","psychophysics","123","381789","0.0-7.0-5.0-0.20","7","6","6","7","6","5","4","4","5","5","5","1","2","1","-3","1","2","1","2","5","5","5","4","5","4","5","4","5","4","7","8","8","8","7","9","3","8","9","6","5","6","1","6","3","7","7","6","6","1","3","1","3","1","3","6","6","6","7","2","2","7","2","2","1","6","5","7","5","6","6","6","2","2","1","6","1","7","3","2","777135417253433345","李","272","Male","[""坏我"",""好他"",""好我"",""坏他""]","[""弱我"",""强他"",""强我"",""弱他""]","","","","","","","","4","","","","","","","","","SRET","SRET_math_calculate","","key","4","16.66665624999996","768","428","","","","","20/5= ?","4","1","","","","","","","",""
"1839","","8","psychophysics","124","383631","0.0-7.0-5.0-0.21","7","6","6","7","6","5","4","4","5","5","5","1","2","1","-3","1","2","1","2","5","5","5","4","5","4","5","4","5","4","7","8","8","8","7","9","3","8","9","6","5","6","1","6","3","7","7","6","6","1","3","1","3","1","3","6","6","6","7","2","2","7","2","2","1","6","5","7","5","6","6","6","2","2","1","6","1","7","3","2","777135417253433345","李","272","Male","[""坏我"",""好他"",""好我"",""坏他""]","[""弱我"",""强他"",""强我"",""弱他""]","","","","","","","","8","","","","","","","","","SRET","SRET_math_calculate","","key","8","16.66647272727304","768","428","","","","","1*8= ?","8","1","","","","","","","",""
"1860","","8","psychophysics","125","385492","0.0-7.0-5.0-0.22","7","6","6","7","6","5","4","4","5","5","5","1","2","1","-3","1","2","1","2","5","5","5","4","5","4","5","4","5","4","7","8","8","8","7","9","3","8","9","6","5","6","1","6","3","7","7","6","6","1","3","1","3","1","3","6","6","6","7","2","2","7","2","2","1","6","5","7","5","6","6","6","2","2","1","6","1","7","3","2","777135417253433345","李","272","Male","[""坏我"",""好他"",""好我"",""坏他""]","[""弱我"",""强他"",""强我"",""弱他""]","","","","","","","","8","","","","","","","","","SRET","SRET_math_calculate","","key","8","16.66605405405432","768","428","","","","","4+4= ?","8","1","","","","","","","",""
"2092","","6","psychophysics","126","387585","0.0-7.0-5.0-0.23","7","6","6","7","6","5","4","4","5","5","5","1","2","1","-3","1","2","1","2","5","5","5","4","5","4","5","4","5","4","7","8","8","8","7","9","3","8","9","6","5","6","1","6","3","7","7","6","6","1","3","1","3","1","3","6","6","6","7","2","2","7","2","2","1","6","5","7","5","6","6","6","2","2","1","6","1","7","3","2","777135417253433345","李","272","Male","[""坏我"",""好他"",""好我"",""坏他""]","[""弱我"",""强他"",""强我"",""弱他""]","","","","","","","","6","","","","","","","","","SRET","SRET_math_calculate","","key","6","16.66649193548402","768","428","","","","","2*3= ?","6","1","","","","","","","",""
"2396","","9","psychophysics","127","389982","0.0-7.0-5.0-0.24","7","6","6","7","6","5","4","4","5","5","5","1","2","1","-3","1","2","1","2","5","5","5","4","5","4","5","4","5","4","7","8","8","8","7","9","3","8","9","6","5","6","1","6","3","7","7","6","6","1","3","1","3","1","3","6","6","6","7","2","2","7","2","2","1","6","5","7","5","6","6","6","2","2","1","6","1","7","3","2","777135417253433345","李","272","Male","[""坏我"",""好他"",""好我"",""坏他""]","[""弱我"",""强他"",""强我"",""弱他""]","","","","","","","","9","","","","","","","","","SRET","SRET_math_calculate","","key","9","16.666566433566558","768","428","","","","","43-34= ?","9","1","","","","","","","",""
"2140","","5","psychophysics","128","392123","0.0-7.0-5.0-0.25","7","6","6","7","6","5","4","4","5","5","5","1","2","1","-3","1","2","1","2","5","5","5","4","5","4","5","4","5","4","7","8","8","8","7","9","3","8","9","6","5","6","1","6","3","7","7","6","6","1","3","1","3","1","3","6","6","6","7","2","2","7","2","2","1","6","5","7","5","6","6","6","2","2","1","6","1","7","3","2","777135417253433345","李","272","Male","[""坏我"",""好他"",""好我"",""坏他""]","[""弱我"",""强他"",""强我"",""弱他""]","","","","","","","","5","","","","","","","","","SRET","SRET_math_calculate","","key","5","16.665779527559085","768","428","","","","","14-9= ?","5","1","","","","","","","",""
"2977","","3","psychophysics","129","395104","0.0-7.0-5.0-0.26","7","6","6","7","6","5","4","4","5","5","5","1","2","1","-3","1","2","1","2","5","5","5","4","5","4","5","4","5","4","7","8","8","8","7","9","3","8","9","6","5","6","1","6","3","7","7","6","6","1","3","1","3","1","3","6","6","6","7","2","2","7","2","2","1","6","5","7","5","6","6","6","2","2","1","6","1","7","3","2","777135417253433345","李","272","Male","[""坏我"",""好他"",""好我"",""坏他""]","[""弱我"",""强他"",""强我"",""弱他""]","","","","","","","","3","","","","","","","","","SRET","SRET_math_calculate","","key","3","16.66718539325854","768","428","","","","","11-8= ?","3","1","","","","","","","",""
"2389","","2","psychophysics","130","397494","0.0-7.0-5.0-0.27","7","6","6","7","6","5","4","4","5","5","5","1","2","1","-3","1","2","1","2","5","5","5","4","5","4","5","4","5","4","7","8","8","8","7","9","3","8","9","6","5","6","1","6","3","7","7","6","6","1","3","1","3","1","3","6","6","6","7","2","2","7","2","2","1","6","5","7","5","6","6","6","2","2","1","6","1","7","3","2","777135417253433345","李","272","Male","[""坏我"",""好他"",""好我"",""坏他""]","[""弱我"",""强他"",""强我"",""弱他""]","","","","","","","","2","","","","","","","","","SRET","SRET_math_calculate","","key","2","16.667202797203025","768","428","","","","","29-27= ?","2","1","","","","","","","",""
"1981","","3","psychophysics","131","399475","0.0-7.0-5.0-0.28","7","6","6","7","6","5","4","4","5","5","5","1","2","1","-3","1","2","1","2","5","5","5","4","5","4","5","4","5","4","7","8","8","8","7","9","3","8","9","6","5","6","1","6","3","7","7","6","6","1","3","1","3","1","3","6","6","6","7","2","2","7","2","2","1","6","5","7","5","6","6","6","2","2","1","6","1","7","3","2","777135417253433345","李","272","Male","[""坏我"",""好他"",""好我"",""坏他""]","[""弱我"",""强他"",""强我"",""弱他""]","","","","","","","","3","","","","","","","","","SRET","SRET_math_calculate","","key","3","16.66661864406798","768","428","","","","","9-6= ?","3","1","","","","","","","",""
"1970","","8","psychophysics","132","401446","0.0-7.0-5.0-0.29","7","6","6","7","6","5","4","4","5","5","5","1","2","1","-3","1","2","1","2","5","5","5","4","5","4","5","4","5","4","7","8","8","8","7","9","3","8","9","6","5","6","1","6","3","7","7","6","6","1","3","1","3","1","3","6","6","6","7","2","2","7","2","2","1","6","5","7","5","6","6","6","2","2","1","6","1","7","3","2","777135417253433345","李","272","Male","[""坏我"",""好他"",""好我"",""坏他""]","[""弱我"",""强他"",""强我"",""弱他""]","","","","","","","","8","","","","","","","","","SRET","SRET_math_calculate","","key","8","16.666700854700984","768","428","","","","","9-1= ?","8","1","","","","","","","",""
"4195","","2","psychophysics","133","405643","0.0-7.0-5.0-0.30","7","6","6","7","6","5","4","4","5","5","5","1","2","1","-3","1","2","1","2","5","5","5","4","5","4","5","4","5","4","7","8","8","8","7","9","3","8","9","6","5","6","1","6","3","7","7","6","6","1","3","1","3","1","3","6","6","6","7","2","2","7","2","2","1","6","5","7","5","6","6","6","2","2","1","6","1","7","3","2","777135417253433345","李","272","Male","[""坏我"",""好他"",""好我"",""坏他""]","[""弱我"",""强他"",""强我"",""弱他""]","","","","","","","","2","","","","","","","","","SRET","SRET_math_calculate","","key","2","16.666808764940264","768","428","","","","","18/9= ?","2","1","","","","","","","",""
"2655","","1","psychophysics","134","408299","0.0-7.0-5.0-0.31","7","6","6","7","6","5","4","4","5","5","5","1","2","1","-3","1","2","1","2","5","5","5","4","5","4","5","4","5","4","7","8","8","8","7","9","3","8","9","6","5","6","1","6","3","7","7","6","6","1","3","1","3","1","3","6","6","6","7","2","2","7","2","2","1","6","5","7","5","6","6","6","2","2","1","6","1","7","3","2","777135417253433345","李","272","Male","[""坏我"",""好他"",""好我"",""坏他""]","[""弱我"",""强他"",""强我"",""弱他""]","","","","","","","","1","","","","","","","","","SRET","SRET_math_calculate","","key","1","16.66625949367107","768","428","","","","","4/4= ?","1","1","","","","","","","",""
"2193","","9","psychophysics","135","410494","0.0-7.0-5.0-0.32","7","6","6","7","6","5","4","4","5","5","5","1","2","1","-3","1","2","1","2","5","5","5","4","5","4","5","4","5","4","7","8","8","8","7","9","3","8","9","6","5","6","1","6","3","7","7","6","6","1","3","1","3","1","3","6","6","6","7","2","2","7","2","2","1","6","5","7","5","6","6","6","2","2","1","6","1","7","3","2","777135417253433345","李","272","Male","[""坏我"",""好他"",""好我"",""坏他""]","[""弱我"",""强他"",""强我"",""弱他""]","","","","","","","","9","","","","","","","","","SRET","SRET_math_calculate","","key","9","16.666480916030597","768","428","","","","","7+2= ?","9","1","","","","","","","",""
"2458","","3","psychophysics","136","412953","0.0-7.0-5.0-0.33","7","6","6","7","6","5","4","4","5","5","5","1","2","1","-3","1","2","1","2","5","5","5","4","5","4","5","4","5","4","7","8","8","8","7","9","3","8","9","6","5","6","1","6","3","7","7","6","6","1","3","1","3","1","3","6","6","6","7","2","2","7","2","2","1","6","5","7","5","6","6","6","2","2","1","6","1","7","3","2","777135417253433345","李","272","Male","[""坏我"",""好他"",""好我"",""坏他""]","[""弱我"",""强他"",""强我"",""弱他""]","","","","","","","","3","","","","","","","","","SRET","SRET_math_calculate","","key","3","16.666650684931547","768","428","","","","","8-5= ?","3","1","","","","","","","",""
"2414","","8","psychophysics","137","415367","0.0-7.0-5.0-0.34","7","6","6","7","6","5","4","4","5","5","5","1","2","1","-3","1","2","1","2","5","5","5","4","5","4","5","4","5","4","7","8","8","8","7","9","3","8","9","6","5","6","1","6","3","7","7","6","6","1","3","1","3","1","3","6","6","6","7","2","2","7","2","2","1","6","5","7","5","6","6","6","2","2","1","6","1","7","3","2","777135417253433345","李","272","Male","[""坏我"",""好他"",""好我"",""坏他""]","[""弱我"",""强他"",""强我"",""弱他""]","","","","","","","","8","","","","","","","","","SRET","SRET_math_calculate","","key","8","16.66659722222216","768","428","","","","","72/9= ?","8","1","","","","","","","",""
"2781","","2","psychophysics","138","418150","0.0-7.0-5.0-0.35","7","6","6","7","6","5","4","4","5","5","5","1","2","1","-3","1","2","1","2","5","5","5","4","5","4","5","4","5","4","7","8","8","8","7","9","3","8","9","6","5","6","1","6","3","7","7","6","6","1","3","1","3","1","3","6","6","6","7","2","2","7","2","2","1","6","5","7","5","6","6","6","2","2","1","6","1","7","3","2","777135417253433345","李","272","Male","[""坏我"",""好他"",""好我"",""坏他""]","[""弱我"",""强他"",""强我"",""弱他""]","","","","","","","","2","","","","","","","","","SRET","SRET_math_calculate","","key","2","16.666626506023942","768","428","","","","","90/45= ?","2","1","","","","","","","",""
"2148","","7","psychophysics","139","420299","0.0-7.0-5.0-0.36","7","6","6","7","6","5","4","4","5","5","5","1","2","1","-3","1","2","1","2","5","5","5","4","5","4","5","4","5","4","7","8","8","8","7","9","3","8","9","6","5","6","1","6","3","7","7","6","6","1","3","1","3","1","3","6","6","6","7","2","2","7","2","2","1","6","5","7","5","6","6","6","2","2","1","6","1","7","3","2","777135417253433345","李","272","Male","[""坏我"",""好他"",""好我"",""坏他""]","[""弱我"",""强他"",""强我"",""弱他""]","","","","","","","","7","","","","","","","","","SRET","SRET_math_calculate","","key","7","16.666601562499636","768","428","","","","","12-5= ?","7","1","","","","","","","",""
"2266","","7","psychophysics","140","422566","0.0-7.0-5.0-0.37","7","6","6","7","6","5","4","4","5","5","5","1","2","1","-3","1","2","1","2","5","5","5","4","5","4","5","4","5","4","7","8","8","8","7","9","3","8","9","6","5","6","1","6","3","7","7","6","6","1","3","1","3","1","3","6","6","6","7","2","2","7","2","2","1","6","5","7","5","6","6","6","2","2","1","6","1","7","3","2","777135417253433345","李","272","Male","[""坏我"",""好他"",""好我"",""坏他""]","[""弱我"",""强他"",""强我"",""弱他""]","","","","","","","","7","","","","","","","","","SRET","SRET_math_calculate","","key","7","16.666755555555465","768","428","","","","","9-2= ?","7","1","","","","","","","",""
"2289","","9","psychophysics","141","424856","0.0-7.0-5.0-0.38","7","6","6","7","6","5","4","4","5","5","5","1","2","1","-3","1","2","1","2","5","5","5","4","5","4","5","4","5","4","7","8","8","8","7","9","3","8","9","6","5","6","1","6","3","7","7","6","6","1","3","1","3","1","3","6","6","6","7","2","2","7","2","2","1","6","5","7","5","6","6","6","2","2","1","6","1","7","3","2","777135417253433345","李","272","Male","[""坏我"",""好他"",""好我"",""坏他""]","[""弱我"",""强他"",""强我"",""弱他""]","","","","","","","","9","","","","","","","","","SRET","SRET_math_calculate","","key","9","16.66665441176498","768","428","","","","","1+8= ?","9","1","","","","","","","",""
"1897","","6","psychophysics","142","426754","0.0-7.0-5.0-0.39","7","6","6","7","6","5","4","4","5","5","5","1","2","1","-3","1","2","1","2","5","5","5","4","5","4","5","4","5","4","7","8","8","8","7","9","3","8","9","6","5","6","1","6","3","7","7","6","6","1","3","1","3","1","3","6","6","6","7","2","2","7","2","2","1","6","5","7","5","6","6","6","2","2","1","6","1","7","3","2","777135417253433345","李","272","Male","[""坏我"",""好他"",""好我"",""坏他""]","[""弱我"",""强他"",""强我"",""弱他""]","","","","","","","","6","","","","","","","","","SRET","SRET_math_calculate","","key","6","16.666265486725667","768","428","","","","","2+4= ?","6","1","","","","","","","",""
