"rt","stimulus","response","trial_type","trial_index","time_elapsed","internal_node_id","swb_1","swb_2","swb_3","swb_4","swb_5","LOT_1","LOT_2","LOT_3","LOT_4","LOT_5","LOT_6","IPC_1","IPC_2","IPC_3","IPC_4","IPC_5","IPC_6","IPC_7","IPC_8","MorIden_1","MorIden_2","MorIden_3","MorIden_4","MorIden_5","MorIden_6","MorIden_7","MorIden_8","MorIden_9","MorIden_10","moralSeImag_1","moralSeImag_2","moralSeImag_3","moralSeImag_4","moralSeImag_5","moralSeImag_6","moralSeImag_7","moralSeImag_8","moralSeImag_9","sde_1","sde_2","sde_3","sde_4","sde_5","sde_6","sde_7","sde_8","sde_9","sde_10","trap2","sde_11","sde_12","sde_13","sde_14","sde_15","sde_16","sde_17","sde_18","sde_19","sde_20","IM_1","IM_2","IM_3","IM_4","IM_5","IM_6","IM_7","IM_8","IM_9","IM_10","IM_11","IM_12","IM_13","IM_14","IM_15","IM_16","IM_17","IM_18","IM_19","IM_20","subj_idx","friend_name","ParticipantID","Sex","Word","Word2","value","success","timeout","failed_images","failed_audio","failed_video","user_agent","responses","item_order","radio_event_ids","radio_event_times","key_event_times","mouse_event_times","straightlining","zigzagging","honeypot","task_id","screen_id","time_stamp","response_type","key_press","avg_frame_time","center_x","center_y","person","word","valence","domain","math","correct_response","correct","status","identity","view_history","duration","Image","condition","question_order","trap2_item"
"3014","
   <p><div style='color:white; font-size: 25px'>您好，欢迎参加本次实验。</div></p>
   <p><div style='color:white; font-size: 25px'>为充分保障您的权利，请确保您已经知晓并同意《参与实验同意书》以及《数据公开知情同意书》。</div></p>
   <p><div style='color:white; font-size: 25px'>如果您未见过上述内容，请咨询实验员。</div></p>
   <p style='color:white; font-size: 25px'>如果您选择继续实验，则表示您已经清楚两份知情同意书的内容并同意。</p>
   <p><div style = ""color: pink;font-size:30px;"">请确保您记得day0的实验编号，您将在本次实验输入该编号，若您忘记，请咨询实验员后作答。</div></p>
   <p><div style = ""color:lightblue;font-size:25px;"">请您尽可能认真地作答，我们将依据您在各问卷和按键任务中的作答质量发放报酬。</div></p>
   <p> <div style = ""color: green""><按空格键至下页></div> </p>
   "," ","html-keyboard-response","0","3018","0.0-0.0","3","4","3","2","1","4","2","3","4","5","5","0","1","1","0","1","2","1","0","3","5","5","4","5","4","4","5","4","5","6","8","5","7","8","6","7","6","8","5","4","5","4","3","2","5","1","6","3","1","4","3","6","2","3","4","5","4","5","2","3","6","2","3","4","5","2","5","5","7","5","3","4","5","2","6","3","7","2","4","796468599748435970","李","529","Female","[""好我"",""坏我"",""坏她"",""好她""]","[""强我"",""弱我"",""弱她"",""强她""]","","","","","","","","","","","","","","","","","","","","","","","","","","","","","","","","","","","","","","",""
"","","","call-function","1","3019","0.0-1.0-0.0","3","4","3","2","1","4","2","3","4","5","5","0","1","1","0","1","2","1","0","3","5","5","4","5","4","4","5","4","5","6","8","5","7","8","6","7","6","8","5","4","5","4","3","2","5","1","6","3","1","4","3","6","2","3","4","5","4","5","2","3","6","2","3","4","5","2","5","5","7","5","3","4","5","2","6","3","7","2","4","796468599748435970","李","529","Female","[""好我"",""坏我"",""坏她"",""好她""]","[""强我"",""弱我"",""弱她"",""强她""]","","","","","","","","","","","","","","","","","","","","","","","","","","","","","","","","","","","","","","",""
"8863","","[{""name"":""Sex"",""value"":""1""},{""name"":""friend_name"",""value"":""李""},{""name"":""ParticipantID"",""value"":""529""}]","survey-html-form","2","11883","0.0-1.0-1.0","3","4","3","2","1","4","2","3","4","5","5","0","1","1","0","1","2","1","0","3","5","5","4","5","4","4","5","4","5","6","8","5","7","8","6","7","6","8","5","4","5","4","3","2","5","1","6","3","1","4","3","6","2","3","4","5","4","5","2","3","6","2","3","4","5","2","5","5","7","5","3","4","5","2","6","3","7","2","4","796468599748435970","李","529","Female","[""好我"",""坏我"",""坏她"",""好她""]","[""强我"",""弱我"",""弱她"",""强她""]","","","","","","","","","","","","","","","","","","","","","","","","","","","","","","","","","","","","","","",""
"","","","preload","3","12331","0.0-2.0","3","4","3","2","1","4","2","3","4","5","5","0","1","1","0","1","2","1","0","3","5","5","4","5","4","4","5","4","5","6","8","5","7","8","6","7","6","8","5","4","5","4","3","2","5","1","6","3","1","4","3","6","2","3","4","5","4","5","2","3","6","2","3","4","5","2","5","5","7","5","3","4","5","2","6","3","7","2","4","796468599748435970","李","529","Female","[""好我"",""坏我"",""坏她"",""好她""]","[""强我"",""弱我"",""弱她"",""强她""]","","true","false","[]","[]","[]","","","","","","","","","","","","","","","","","","","","","","","","","","","","","","","","",""
"","","","fullscreen","4","27369","0.0-3.0","3","4","3","2","1","4","2","3","4","5","5","0","1","1","0","1","2","1","0","3","5","5","4","5","4","4","5","4","5","6","8","5","7","8","6","7","6","8","5","4","5","4","3","2","5","1","6","3","1","4","3","6","2","3","4","5","4","5","2","3","6","2","3","4","5","2","5","5","7","5","3","4","5","2","6","3","7","2","4","796468599748435970","李","529","Female","[""好我"",""坏我"",""坏她"",""好她""]","[""强我"",""弱我"",""弱她"",""强她""]","","true","","","","","","","","","","","","","","","","","","","","","","","","","","","","","","","","","","","","",""
"10020.004999998491","","{""Q01"":""3"",""Q02"":""4"",""Q03"":""3"",""Q04"":""2"",""Q05"":""1""}","survey-template","5","37394","0.0-4.0","3","4","3","2","1","4","2","3","4","5","5","0","1","1","0","1","2","1","0","3","5","5","4","5","4","4","5","4","5","6","8","5","7","8","6","7","6","8","5","4","5","4","3","2","5","1","6","3","1","4","3","6","2","3","4","5","4","5","2","3","6","2","3","4","5","2","5","5","7","5","3","4","5","2","6","3","7","2","4","796468599748435970","李","529","Female","[""好我"",""坏我"",""坏她"",""好她""]","[""强我"",""弱我"",""弱她"",""强她""]","","","","","","","","{""Q01"":""3"",""Q02"":""4"",""Q03"":""3"",""Q04"":""2"",""Q05"":""1""}","[0,1,2,3,4]","[""Q01"",""Q02"",""Q03"",""Q03"",""Q04"",""Q05""]","[1927.93000000529,3072.3200000065845,4528.0849999981,6008.289999997942,8183.935000008205,9145.315000001574]","[]","[1927.93000000529,3072.3200000065845,4528.0849999981,6008.289999997942,8183.935000008205,9145.315000001574,10016.25500000955]","0.4","1","0","","","","","","","","","","","","","","","","","","","","","","",""
"16710.46000000206","","{""Q01"":""4"",""Q02"":""2"",""Q03"":""3"",""Q04"":""4"",""Q05"":""5"",""Q06"":""5""}","survey-template","6","54116","0.0-5.0","3","4","3","2","1","4","2","3","4","5","5","0","1","1","0","1","2","1","0","3","5","5","4","5","4","4","5","4","5","6","8","5","7","8","6","7","6","8","5","4","5","4","3","2","5","1","6","3","1","4","3","6","2","3","4","5","4","5","2","3","6","2","3","4","5","2","5","5","7","5","3","4","5","2","6","3","7","2","4","796468599748435970","李","529","Female","[""好我"",""坏我"",""坏她"",""好她""]","[""强我"",""弱我"",""弱她"",""强她""]","","","","","","","","{""Q01"":""4"",""Q02"":""2"",""Q03"":""3"",""Q04"":""4"",""Q05"":""5"",""Q06"":""5""}","[0,1,2,3,4,5]","[""Q01"",""Q01"",""Q02"",""Q03"",""Q04"",""Q05"",""Q06""]","[3238.2650000072317,8693.780000001425,9285.440000006929,10887.040000001434,13030.785000009928,14838.99499999825,16143.81000000867]","[]","[1853.8150000094902,3238.2650000072317,7398.020000007818,8038.014999998268,8693.780000001425,9285.440000006929,10887.040000001434,13030.785000009928,14838.99499999825,16143.81000000867,16709.484999999404]","0.3333333333333333","0.8","0","","","","","","","","","","","","","","","","","","","","","","",""
"21005.05500000145","","{""Q01"":""0"",""Q02"":""1"",""Q03"":""1"",""Q04"":""0"",""Q05"":""1"",""Q06"":""2"",""Q07"":""1"",""Q08"":""0""}","survey-template","7","75126","0.0-6.0","3","4","3","2","1","4","2","3","4","5","5","0","1","1","0","1","2","1","0","3","5","5","4","5","4","4","5","4","5","6","8","5","7","8","6","7","6","8","5","4","5","4","3","2","5","1","6","3","1","4","3","6","2","3","4","5","4","5","2","3","6","2","3","4","5","2","5","5","7","5","3","4","5","2","6","3","7","2","4","796468599748435970","李","529","Female","[""好我"",""坏我"",""坏她"",""好她""]","[""强我"",""弱我"",""弱她"",""强她""]","","","","","","","","{""Q01"":""0"",""Q02"":""1"",""Q03"":""1"",""Q04"":""0"",""Q05"":""1"",""Q06"":""2"",""Q07"":""1"",""Q08"":""0""}","[0,1,2,3,4,5,6,7]","[""Q01"",""Q02"",""Q03"",""Q04"",""Q05"",""Q06"",""Q07"",""Q08"",""Q05"",""Q06""]","[1738.4400000009919,2569.9750000057975,3745.810000007623,5762.679999999818,7914.735000013025,9345.665000000736,11698.840000011842,13146.285000009811,17722.460000004503,19682.330000010552]","[]","[1738.4400000009919,2569.9750000057975,3745.810000007623,5762.679999999818,7418.195000005653,7914.735000013025,9345.665000000736,11698.840000011842,13146.285000009811,17722.460000004503,19682.330000010552,21002.425000013318]","0.5","0.8571428571428571","0","","","","","","","","","","","","","","","","","","","","","","",""
"6130","
    <p><div style='color:white;font-size:35px; line-height:20px;'>词汇评估任务</div></p><br>
    <p><div style='color:white;font-size:25px; line-height:20px;'>请再次回忆该亲密的朋友，你们至少2年前就认识了，并且最近2年经常见面。</div></p>
    <p><div style='color:white;font-size:25px; line-height:20px;'>在本实验中，您将会看到一些形容词。</div></p>
    <p><div style='color:yellow;font-size:25px; line-height:20px;'>您的任务是判断这些形容词是否符合对您自己或您的朋友的描述。</div></p><p style='font-size:35px'>符合按<span style=""color:lightgreen""> j 键</span>，不符合按<span style=""color:red""> f 键</span></p>","0","html-button-response","8","81261","0.0-7.0-0.0","3","4","3","2","1","4","2","3","4","5","5","0","1","1","0","1","2","1","0","3","5","5","4","5","4","4","5","4","5","6","8","5","7","8","6","7","6","8","5","4","5","4","3","2","5","1","6","3","1","4","3","6","2","3","4","5","4","5","2","3","6","2","3","4","5","2","5","5","7","5","3","4","5","2","6","3","7","2","4","796468599748435970","李","529","Female","[""好我"",""坏我"",""坏她"",""好她""]","[""强我"",""弱我"",""弱她"",""强她""]","","","","","","","","","","","","","","","","","SRET_EW","EW_instructions","Thu Jan 11 2024 16:56:42 GMT+0800 (中国标准时间)","","","","","","","","","","","","","","","","","","","",""
"1243","","f","psychophysics","9","83510","0.0-7.0-1.0-0.0","3","4","3","2","1","4","2","3","4","5","5","0","1","1","0","1","2","1","0","3","5","5","4","5","4","4","5","4","5","6","8","5","7","8","6","7","6","8","5","4","5","4","3","2","5","1","6","3","1","4","3","6","2","3","4","5","4","5","2","3","6","2","3","4","5","2","5","5","7","5","3","4","5","2","6","3","7","2","4","796468599748435970","李","529","Female","[""好我"",""坏我"",""坏她"",""好她""]","[""强我"",""弱我"",""弱她"",""强她""]","","","","","","","","no","","","","","","","","","SRET_EW","EW_practice","","key","f","16.796676691729314","853.3333333333334","476","自己","刻板","Negative","ability","","","","","","","","","","",""
"772","","j","psychophysics","10","85287","0.0-7.0-1.0-0.1","3","4","3","2","1","4","2","3","4","5","5","0","1","1","0","1","2","1","0","3","5","5","4","5","4","4","5","4","5","6","8","5","7","8","6","7","6","8","5","4","5","4","3","2","5","1","6","3","1","4","3","6","2","3","4","5","4","5","2","3","6","2","3","4","5","2","5","5","7","5","3","4","5","2","6","3","7","2","4","796468599748435970","李","529","Female","[""好我"",""坏我"",""坏她"",""好她""]","[""强我"",""弱我"",""弱她"",""强她""]","","","","","","","","yes","","","","","","","","","SRET_EW","EW_practice","","key","j","16.67094339622637","853.3333333333334","476","自己","严谨","Positive","ability","","","","","","","","","","",""
"null","","null","psychophysics","11","88294","0.0-7.0-1.0-0.2","3","4","3","2","1","4","2","3","4","5","5","0","1","1","0","1","2","1","0","3","5","5","4","5","4","4","5","4","5","6","8","5","7","8","6","7","6","8","5","4","5","4","3","2","5","1","6","3","1","4","3","6","2","3","4","5","4","5","2","3","6","2","3","4","5","2","5","5","7","5","3","4","5","2","6","3","7","2","4","796468599748435970","李","529","Female","[""好我"",""坏我"",""坏她"",""好她""]","[""强我"",""弱我"",""弱她"",""强她""]","","","","","","","","","","","","","","","","","SRET_EW","EW_practice","","key","null","16.671379888268135","853.3333333333334","476","朋友","忠实","Positive","morality","","","","","","","","","","",""
"996","","j","psychophysics","12","90299","0.0-7.0-1.0-0.3","3","4","3","2","1","4","2","3","4","5","5","0","1","1","0","1","2","1","0","3","5","5","4","5","4","4","5","4","5","6","8","5","7","8","6","7","6","8","5","4","5","4","3","2","5","1","6","3","1","4","3","6","2","3","4","5","4","5","2","3","6","2","3","4","5","2","5","5","7","5","3","4","5","2","6","3","7","2","4","796468599748435970","李","529","Female","[""好我"",""坏我"",""坏她"",""好她""]","[""强我"",""弱我"",""弱她"",""强她""]","","","","","","","","yes","","","","","","","","","SRET_EW","EW_practice","","key","j","16.670933333333355","853.3333333333334","476","朋友","徇私","Negative","morality","","","","","","","","","","",""
"22941","
    <p><div style='color:white;font-size:35px; line-height:20px;'>请您再次阅读实验要求</div></p><br>
    <p><div style='color:white;font-size:25px; line-height:20px;'>请回忆某一个亲密的朋友，你们至少2年前就认识了，并且最近2年经常见面。</div></p>
    <p><div style='color:white;font-size:25px; line-height:20px;'>在本实验中，您将会看到一些形容词。</div></p>
    <p><div style='color:yellow;font-size:25px; line-height:20px;'>您的任务是判断这些形容词是否符合对您自己或您的朋友的描述。</div></p>
    <p><div class='footer' style='font-size:25px; line-height:20px;'>如果对本实验还有不清楚之处，请立即向实验员咨询。</p><p style='font-size:25px; line-height:20px;'>如果您明白了规则：</p><p style='font-size:22px; line-height:20px;'>请按 继续 进入正式实验</p>
    </div>
    <p style='font-size:35px'>符合按<span style=""color:lightgreen""> j 键</span>，不符合按<span style=""color:red""> f 键</span></p>","0","html-button-response","13","113244","0.0-7.0-2.0","3","4","3","2","1","4","2","3","4","5","5","0","1","1","0","1","2","1","0","3","5","5","4","5","4","4","5","4","5","6","8","5","7","8","6","7","6","8","5","4","5","4","3","2","5","1","6","3","1","4","3","6","2","3","4","5","4","5","2","3","6","2","3","4","5","2","5","5","7","5","3","4","5","2","6","3","7","2","4","796468599748435970","李","529","Female","[""好我"",""坏我"",""坏她"",""好她""]","[""强我"",""弱我"",""弱她"",""强她""]","","","","","","","","","","","","","","","","","SRET_EW","prac_instructions","Thu Jan 11 2024 16:56:42 GMT+0800 (中国标准时间)","","","","","","","","","","","","","","","","","","","",""
"658","","f","psychophysics","14","114904","0.0-7.0-3.0-0.0","3","4","3","2","1","4","2","3","4","5","5","0","1","1","0","1","2","1","0","3","5","5","4","5","4","4","5","4","5","6","8","5","7","8","6","7","6","8","5","4","5","4","3","2","5","1","6","3","1","4","3","6","2","3","4","5","4","5","2","3","6","2","3","4","5","2","5","5","7","5","3","4","5","2","6","3","7","2","4","796468599748435970","李","529","Female","[""好我"",""坏我"",""坏她"",""好她""]","[""强我"",""弱我"",""弱她"",""强她""]","","","","","","","","no","","","","","","","","","SRET","EW_formal","","key","f","16.66755000000005","853.3333333333334","476","自己","说谎","Negative","morality","","","","","","","","","","",""
"651","","j","psychophysics","15","116557","0.0-7.0-3.0-0.1","3","4","3","2","1","4","2","3","4","5","5","0","1","1","0","1","2","1","0","3","5","5","4","5","4","4","5","4","5","6","8","5","7","8","6","7","6","8","5","4","5","4","3","2","5","1","6","3","1","4","3","6","2","3","4","5","4","5","2","3","6","2","3","4","5","2","5","5","7","5","3","4","5","2","6","3","7","2","4","796468599748435970","李","529","Female","[""好我"",""坏我"",""坏她"",""好她""]","[""强我"",""弱我"",""弱她"",""强她""]","","","","","","","","yes","","","","","","","","","SRET","EW_formal","","key","j","16.67183673469384","853.3333333333334","476","自己","坚贞","Positive","morality","","","","","","","","","","",""
"938","","f","psychophysics","16","118498","0.0-7.0-3.0-0.2","3","4","3","2","1","4","2","3","4","5","5","0","1","1","0","1","2","1","0","3","5","5","4","5","4","4","5","4","5","6","8","5","7","8","6","7","6","8","5","4","5","4","3","2","5","1","6","3","1","4","3","6","2","3","4","5","4","5","2","3","6","2","3","4","5","2","5","5","7","5","3","4","5","2","6","3","7","2","4","796468599748435970","李","529","Female","[""好我"",""坏我"",""坏她"",""好她""]","[""强我"",""弱我"",""弱她"",""强她""]","","","","","","","","no","","","","","","","","","SRET","EW_formal","","key","f","16.67063478260863","853.3333333333334","476","朋友","迷糊","Negative","ability","","","","","","","","","","",""
"1059","","j","psychophysics","17","120560","0.0-7.0-3.0-0.3","3","4","3","2","1","4","2","3","4","5","5","0","1","1","0","1","2","1","0","3","5","5","4","5","4","4","5","4","5","6","8","5","7","8","6","7","6","8","5","4","5","4","3","2","5","1","6","3","1","4","3","6","2","3","4","5","4","5","2","3","6","2","3","4","5","2","5","5","7","5","3","4","5","2","6","3","7","2","4","796468599748435970","李","529","Female","[""好我"",""坏我"",""坏她"",""好她""]","[""强我"",""弱我"",""弱她"",""强她""]","","","","","","","","yes","","","","","","","","","SRET","EW_formal","","key","j","16.671219512195105","853.3333333333334","476","朋友","务实","Positive","ability","","","","","","","","","","",""
"1155","","f","psychophysics","18","122719","0.0-7.0-3.0-0.4","3","4","3","2","1","4","2","3","4","5","5","0","1","1","0","1","2","1","0","3","5","5","4","5","4","4","5","4","5","6","8","5","7","8","6","7","6","8","5","4","5","4","3","2","5","1","6","3","1","4","3","6","2","3","4","5","4","5","2","3","6","2","3","4","5","2","5","5","7","5","3","4","5","2","6","3","7","2","4","796468599748435970","李","529","Female","[""好我"",""坏我"",""坏她"",""好她""]","[""强我"",""弱我"",""弱她"",""强她""]","","","","","","","","no","","","","","","","","","SRET","EW_formal","","key","f","16.67067187500004","853.3333333333334","476","朋友","短浅","Negative","ability","","","","","","","","","","",""
"760","","f","psychophysics","19","124482","0.0-7.0-3.0-0.5","3","4","3","2","1","4","2","3","4","5","5","0","1","1","0","1","2","1","0","3","5","5","4","5","4","4","5","4","5","6","8","5","7","8","6","7","6","8","5","4","5","4","3","2","5","1","6","3","1","4","3","6","2","3","4","5","4","5","2","3","6","2","3","4","5","2","5","5","7","5","3","4","5","2","6","3","7","2","4","796468599748435970","李","529","Female","[""好我"",""坏我"",""坏她"",""好她""]","[""强我"",""弱我"",""弱她"",""强她""]","","","","","","","","no","","","","","","","","","SRET","EW_formal","","key","f","16.67154285714288","853.3333333333334","476","自己","虚伪","Negative","morality","","","","","","","","","","",""
"829","","j","psychophysics","20","126313","0.0-7.0-3.0-0.6","3","4","3","2","1","4","2","3","4","5","5","0","1","1","0","1","2","1","0","3","5","5","4","5","4","4","5","4","5","6","8","5","7","8","6","7","6","8","5","4","5","4","3","2","5","1","6","3","1","4","3","6","2","3","4","5","4","5","2","3","6","2","3","4","5","2","5","5","7","5","3","4","5","2","6","3","7","2","4","796468599748435970","李","529","Female","[""好我"",""坏我"",""坏她"",""好她""]","[""强我"",""弱我"",""弱她"",""强她""]","","","","","","","","yes","","","","","","","","","SRET","EW_formal","","key","j","16.671036697247672","853.3333333333334","476","朋友","有力","Positive","ability","","","","","","","","","","",""
"595","","f","psychophysics","21","127911","0.0-7.0-3.0-0.7","3","4","3","2","1","4","2","3","4","5","5","0","1","1","0","1","2","1","0","3","5","5","4","5","4","4","5","4","5","6","8","5","7","8","6","7","6","8","5","4","5","4","3","2","5","1","6","3","1","4","3","6","2","3","4","5","4","5","2","3","6","2","3","4","5","2","5","5","7","5","3","4","5","2","6","3","7","2","4","796468599748435970","李","529","Female","[""好我"",""坏我"",""坏她"",""好她""]","[""强我"",""弱我"",""弱她"",""强她""]","","","","","","","","no","","","","","","","","","SRET","EW_formal","","key","f","16.670515789473612","853.3333333333334","476","自己","混账","Negative","morality","","","","","","","","","","",""
"1236","","f","psychophysics","22","130149","0.0-7.0-3.0-0.8","3","4","3","2","1","4","2","3","4","5","5","0","1","1","0","1","2","1","0","3","5","5","4","5","4","4","5","4","5","6","8","5","7","8","6","7","6","8","5","4","5","4","3","2","5","1","6","3","1","4","3","6","2","3","4","5","4","5","2","3","6","2","3","4","5","2","5","5","7","5","3","4","5","2","6","3","7","2","4","796468599748435970","李","529","Female","[""好我"",""坏我"",""坏她"",""好她""]","[""强我"",""弱我"",""弱她"",""强她""]","","","","","","","","no","","","","","","","","","SRET","EW_formal","","key","f","16.671481203007524","853.3333333333334","476","自己","敬业","Positive","morality","","","","","","","","","","",""
"638","","j","psychophysics","23","131788","0.0-7.0-3.0-0.9","3","4","3","2","1","4","2","3","4","5","5","0","1","1","0","1","2","1","0","3","5","5","4","5","4","4","5","4","5","6","8","5","7","8","6","7","6","8","5","4","5","4","3","2","5","1","6","3","1","4","3","6","2","3","4","5","4","5","2","3","6","2","3","4","5","2","5","5","7","5","3","4","5","2","6","3","7","2","4","796468599748435970","李","529","Female","[""好我"",""坏我"",""坏她"",""好她""]","[""强我"",""弱我"",""弱她"",""强她""]","","","","","","","","yes","","","","","","","","","SRET","EW_formal","","key","j","16.67063917525769","853.3333333333334","476","朋友","文明","Positive","morality","","","","","","","","","","",""
"1882","","f","psychophysics","24","134678","0.0-7.0-3.0-0.10","3","4","3","2","1","4","2","3","4","5","5","0","1","1","0","1","2","1","0","3","5","5","4","5","4","4","5","4","5","6","8","5","7","8","6","7","6","8","5","4","5","4","3","2","5","1","6","3","1","4","3","6","2","3","4","5","4","5","2","3","6","2","3","4","5","2","5","5","7","5","3","4","5","2","6","3","7","2","4","796468599748435970","李","529","Female","[""好我"",""坏我"",""坏她"",""好她""]","[""强我"",""弱我"",""弱她"",""强她""]","","","","","","","","no","","","","","","","","","SRET","EW_formal","","key","f","16.671381502890203","853.3333333333334","476","自己","贪腐","Negative","morality","","","","","","","","","","",""
"640","","j","psychophysics","25","136322","0.0-7.0-3.0-0.11","3","4","3","2","1","4","2","3","4","5","5","0","1","1","0","1","2","1","0","3","5","5","4","5","4","4","5","4","5","6","8","5","7","8","6","7","6","8","5","4","5","4","3","2","5","1","6","3","1","4","3","6","2","3","4","5","4","5","2","3","6","2","3","4","5","2","5","5","7","5","3","4","5","2","6","3","7","2","4","796468599748435970","李","529","Female","[""好我"",""坏我"",""坏她"",""好她""]","[""强我"",""弱我"",""弱她"",""强她""]","","","","","","","","yes","","","","","","","","","SRET","EW_formal","","key","j","16.670979381443214","853.3333333333334","476","自己","沉着","Positive","ability","","","","","","","","","","",""
"785","","j","psychophysics","26","138120","0.0-7.0-3.0-0.12","3","4","3","2","1","4","2","3","4","5","5","0","1","1","0","1","2","1","0","3","5","5","4","5","4","4","5","4","5","6","8","5","7","8","6","7","6","8","5","4","5","4","3","2","5","1","6","3","1","4","3","6","2","3","4","5","4","5","2","3","6","2","3","4","5","2","5","5","7","5","3","4","5","2","6","3","7","2","4","796468599748435970","李","529","Female","[""好我"",""坏我"",""坏她"",""好她""]","[""强我"",""弱我"",""弱她"",""强她""]","","","","","","","","yes","","","","","","","","","SRET","EW_formal","","key","j","16.67076635514016","853.3333333333334","476","自己","骁勇","Positive","ability","","","","","","","","","","",""
"890","","f","psychophysics","27","140014","0.0-7.0-3.0-0.13","3","4","3","2","1","4","2","3","4","5","5","0","1","1","0","1","2","1","0","3","5","5","4","5","4","4","5","4","5","6","8","5","7","8","6","7","6","8","5","4","5","4","3","2","5","1","6","3","1","4","3","6","2","3","4","5","4","5","2","3","6","2","3","4","5","2","5","5","7","5","3","4","5","2","6","3","7","2","4","796468599748435970","李","529","Female","[""好我"",""坏我"",""坏她"",""好她""]","[""强我"",""弱我"",""弱她"",""强她""]","","","","","","","","no","","","","","","","","","SRET","EW_formal","","key","f","16.671424778760926","853.3333333333334","476","自己","逞强","Negative","ability","","","","","","","","","","",""
"651","","f","psychophysics","28","141668","0.0-7.0-3.0-0.14","3","4","3","2","1","4","2","3","4","5","5","0","1","1","0","1","2","1","0","3","5","5","4","5","4","4","5","4","5","6","8","5","7","8","6","7","6","8","5","4","5","4","3","2","5","1","6","3","1","4","3","6","2","3","4","5","4","5","2","3","6","2","3","4","5","2","5","5","7","5","3","4","5","2","6","3","7","2","4","796468599748435970","李","529","Female","[""好我"",""坏我"",""坏她"",""好她""]","[""强我"",""弱我"",""弱她"",""强她""]","","","","","","","","no","","","","","","","","","SRET","EW_formal","","key","f","16.670846938775384","853.3333333333334","476","自己","刻苦","Positive","ability","","","","","","","","","","",""
"827","","j","psychophysics","29","143497","0.0-7.0-3.0-0.15","3","4","3","2","1","4","2","3","4","5","5","0","1","1","0","1","2","1","0","3","5","5","4","5","4","4","5","4","5","6","8","5","7","8","6","7","6","8","5","4","5","4","3","2","5","1","6","3","1","4","3","6","2","3","4","5","4","5","2","3","6","2","3","4","5","2","5","5","7","5","3","4","5","2","6","3","7","2","4","796468599748435970","李","529","Female","[""好我"",""坏我"",""坏她"",""好她""]","[""强我"",""弱我"",""弱她"",""强她""]","","","","","","","","yes","","","","","","","","","SRET","EW_formal","","key","j","16.67069724770642","853.3333333333334","476","自己","淡泊","Positive","morality","","","","","","","","","","",""
"1154","","j","psychophysics","30","145654","0.0-7.0-3.0-0.16","3","4","3","2","1","4","2","3","4","5","5","0","1","1","0","1","2","1","0","3","5","5","4","5","4","4","5","4","5","6","8","5","7","8","6","7","6","8","5","4","5","4","3","2","5","1","6","3","1","4","3","6","2","3","4","5","4","5","2","3","6","2","3","4","5","2","5","5","7","5","3","4","5","2","6","3","7","2","4","796468599748435970","李","529","Female","[""好我"",""坏我"",""坏她"",""好她""]","[""强我"",""弱我"",""弱她"",""强她""]","","","","","","","","yes","","","","","","","","","SRET","EW_formal","","key","j","16.671078125000122","853.3333333333334","476","朋友","好心","Positive","morality","","","","","","","","","","",""
"653","","j","psychophysics","31","147308","0.0-7.0-3.0-0.17","3","4","3","2","1","4","2","3","4","5","5","0","1","1","0","1","2","1","0","3","5","5","4","5","4","4","5","4","5","6","8","5","7","8","6","7","6","8","5","4","5","4","3","2","5","1","6","3","1","4","3","6","2","3","4","5","4","5","2","3","6","2","3","4","5","2","5","5","7","5","3","4","5","2","6","3","7","2","4","796468599748435970","李","529","Female","[""好我"",""坏我"",""坏她"",""好她""]","[""强我"",""弱我"",""弱她"",""强她""]","","","","","","","","yes","","","","","","","","","SRET","EW_formal","","key","j","16.671030612244884","853.3333333333334","476","朋友","善心","Positive","morality","","","","","","","","","","",""
"672","","f","psychophysics","32","148982","0.0-7.0-3.0-0.18","3","4","3","2","1","4","2","3","4","5","5","0","1","1","0","1","2","1","0","3","5","5","4","5","4","4","5","4","5","6","8","5","7","8","6","7","6","8","5","4","5","4","3","2","5","1","6","3","1","4","3","6","2","3","4","5","4","5","2","3","6","2","3","4","5","2","5","5","7","5","3","4","5","2","6","3","7","2","4","796468599748435970","李","529","Female","[""好我"",""坏我"",""坏她"",""好她""]","[""强我"",""弱我"",""弱她"",""强她""]","","","","","","","","no","","","","","","","","","SRET","EW_formal","","key","f","16.67159000000014","853.3333333333334","476","自己","小人","Negative","morality","","","","","","","","","","",""
"939","","j","psychophysics","33","150923","0.0-7.0-3.0-0.19","3","4","3","2","1","4","2","3","4","5","5","0","1","1","0","1","2","1","0","3","5","5","4","5","4","4","5","4","5","6","8","5","7","8","6","7","6","8","5","4","5","4","3","2","5","1","6","3","1","4","3","6","2","3","4","5","4","5","2","3","6","2","3","4","5","2","5","5","7","5","3","4","5","2","6","3","7","2","4","796468599748435970","李","529","Female","[""好我"",""坏我"",""坏她"",""好她""]","[""强我"",""弱我"",""弱她"",""强她""]","","","","","","","","yes","","","","","","","","","SRET","EW_formal","","key","j","16.670939130434746","853.3333333333334","476","自己","全才","Positive","ability","","","","","","","","","","",""
"623","","j","psychophysics","34","152550","0.0-7.0-3.0-0.20","3","4","3","2","1","4","2","3","4","5","5","0","1","1","0","1","2","1","0","3","5","5","4","5","4","4","5","4","5","6","8","5","7","8","6","7","6","8","5","4","5","4","3","2","5","1","6","3","1","4","3","6","2","3","4","5","4","5","2","3","6","2","3","4","5","2","5","5","7","5","3","4","5","2","6","3","7","2","4","796468599748435970","李","529","Female","[""好我"",""坏我"",""坏她"",""好她""]","[""强我"",""弱我"",""弱她"",""强她""]","","","","","","","","yes","","","","","","","","","SRET","EW_formal","","key","j","16.670587628865892","853.3333333333334","476","自己","智慧","Positive","ability","","","","","","","","","","",""
"604","","f","psychophysics","35","154157","0.0-7.0-3.0-0.21","3","4","3","2","1","4","2","3","4","5","5","0","1","1","0","1","2","1","0","3","5","5","4","5","4","4","5","4","5","6","8","5","7","8","6","7","6","8","5","4","5","4","3","2","5","1","6","3","1","4","3","6","2","3","4","5","4","5","2","3","6","2","3","4","5","2","5","5","7","5","3","4","5","2","6","3","7","2","4","796468599748435970","李","529","Female","[""好我"",""坏我"",""坏她"",""好她""]","[""强我"",""弱我"",""弱她"",""强她""]","","","","","","","","no","","","","","","","","","SRET","EW_formal","","key","f","16.671494736841964","853.3333333333334","476","朋友","阴毒","Negative","morality","","","","","","","","","","",""
"691","","f","psychophysics","36","155851","0.0-7.0-3.0-0.22","3","4","3","2","1","4","2","3","4","5","5","0","1","1","0","1","2","1","0","3","5","5","4","5","4","4","5","4","5","6","8","5","7","8","6","7","6","8","5","4","5","4","3","2","5","1","6","3","1","4","3","6","2","3","4","5","4","5","2","3","6","2","3","4","5","2","5","5","7","5","3","4","5","2","6","3","7","2","4","796468599748435970","李","529","Female","[""好我"",""坏我"",""坏她"",""好她""]","[""强我"",""弱我"",""弱她"",""强她""]","","","","","","","","no","","","","","","","","","SRET","EW_formal","","key","f","16.671158415841408","853.3333333333334","476","朋友","盲目","Negative","ability","","","","","","","","","","",""
"703","","j","psychophysics","37","157557","0.0-7.0-3.0-0.23","3","4","3","2","1","4","2","3","4","5","5","0","1","1","0","1","2","1","0","3","5","5","4","5","4","4","5","4","5","6","8","5","7","8","6","7","6","8","5","4","5","4","3","2","5","1","6","3","1","4","3","6","2","3","4","5","4","5","2","3","6","2","3","4","5","2","5","5","7","5","3","4","5","2","6","3","7","2","4","796468599748435970","李","529","Female","[""好我"",""坏我"",""坏她"",""好她""]","[""强我"",""弱我"",""弱她"",""强她""]","","","","","","","","yes","","","","","","","","","SRET","EW_formal","","key","j","16.670891089109002","853.3333333333334","476","朋友","毅力","Positive","ability","","","","","","","","","","",""
"535","","j","psychophysics","38","159094","0.0-7.0-3.0-0.24","3","4","3","2","1","4","2","3","4","5","5","0","1","1","0","1","2","1","0","3","5","5","4","5","4","4","5","4","5","6","8","5","7","8","6","7","6","8","5","4","5","4","3","2","5","1","6","3","1","4","3","6","2","3","4","5","4","5","2","3","6","2","3","4","5","2","5","5","7","5","3","4","5","2","6","3","7","2","4","796468599748435970","李","529","Female","[""好我"",""坏我"",""坏她"",""好她""]","[""强我"",""弱我"",""弱她"",""强她""]","","","","","","","","yes","","","","","","","","","SRET","EW_formal","","key","j","16.67058241758259","853.3333333333334","476","自己","仁厚","Positive","morality","","","","","","","","","","",""
"1049","","j","psychophysics","39","161145","0.0-7.0-3.0-0.25","3","4","3","2","1","4","2","3","4","5","5","0","1","1","0","1","2","1","0","3","5","5","4","5","4","4","5","4","5","6","8","5","7","8","6","7","6","8","5","4","5","4","3","2","5","1","6","3","1","4","3","6","2","3","4","5","4","5","2","3","6","2","3","4","5","2","5","5","7","5","3","4","5","2","6","3","7","2","4","796468599748435970","李","529","Female","[""好我"",""坏我"",""坏她"",""好她""]","[""强我"",""弱我"",""弱她"",""强她""]","","","","","","","","yes","","","","","","","","","SRET","EW_formal","","key","j","16.67127049180319","853.3333333333334","476","朋友","努力","Positive","ability","","","","","","","","","","",""
"627","","f","psychophysics","40","162773","0.0-7.0-3.0-0.26","3","4","3","2","1","4","2","3","4","5","5","0","1","1","0","1","2","1","0","3","5","5","4","5","4","4","5","4","5","6","8","5","7","8","6","7","6","8","5","4","5","4","3","2","5","1","6","3","1","4","3","6","2","3","4","5","4","5","2","3","6","2","3","4","5","2","5","5","7","5","3","4","5","2","6","3","7","2","4","796468599748435970","李","529","Female","[""好我"",""坏我"",""坏她"",""好她""]","[""强我"",""弱我"",""弱她"",""强她""]","","","","","","","","no","","","","","","","","","SRET","EW_formal","","key","f","16.6713092783505","853.3333333333334","476","自己","无耻","Negative","morality","","","","","","","","","","",""
"983","","f","psychophysics","41","164759","0.0-7.0-3.0-0.27","3","4","3","2","1","4","2","3","4","5","5","0","1","1","0","1","2","1","0","3","5","5","4","5","4","4","5","4","5","6","8","5","7","8","6","7","6","8","5","4","5","4","3","2","5","1","6","3","1","4","3","6","2","3","4","5","4","5","2","3","6","2","3","4","5","2","5","5","7","5","3","4","5","2","6","3","7","2","4","796468599748435970","李","529","Female","[""好我"",""坏我"",""坏她"",""好她""]","[""强我"",""弱我"",""弱她"",""强她""]","","","","","","","","no","","","","","","","","","SRET","EW_formal","","key","f","16.671127118644062","853.3333333333334","476","朋友","贪污","Negative","morality","","","","","","","","","","",""
"1124","","f","psychophysics","42","166886","0.0-7.0-3.0-0.28","3","4","3","2","1","4","2","3","4","5","5","0","1","1","0","1","2","1","0","3","5","5","4","5","4","4","5","4","5","6","8","5","7","8","6","7","6","8","5","4","5","4","3","2","5","1","6","3","1","4","3","6","2","3","4","5","4","5","2","3","6","2","3","4","5","2","5","5","7","5","3","4","5","2","6","3","7","2","4","796468599748435970","李","529","Female","[""好我"",""坏我"",""坏她"",""好她""]","[""强我"",""弱我"",""弱她"",""强她""]","","","","","","","","no","","","","","","","","","SRET","EW_formal","","key","f","16.670874015748037","853.3333333333334","476","自己","粗心","Negative","ability","","","","","","","","","","",""
"1223","","f","psychophysics","43","169111","0.0-7.0-3.0-0.29","3","4","3","2","1","4","2","3","4","5","5","0","1","1","0","1","2","1","0","3","5","5","4","5","4","4","5","4","5","6","8","5","7","8","6","7","6","8","5","4","5","4","3","2","5","1","6","3","1","4","3","6","2","3","4","5","4","5","2","3","6","2","3","4","5","2","5","5","7","5","3","4","5","2","6","3","7","2","4","796468599748435970","李","529","Female","[""好我"",""坏我"",""坏她"",""好她""]","[""强我"",""弱我"",""弱她"",""强她""]","","","","","","","","no","","","","","","","","","SRET","EW_formal","","key","f","16.671371212121315","853.3333333333334","476","朋友","愚钝","Negative","ability","","","","","","","","","","",""
"767","","f","psychophysics","44","170881","0.0-7.0-3.0-0.30","3","4","3","2","1","4","2","3","4","5","5","0","1","1","0","1","2","1","0","3","5","5","4","5","4","4","5","4","5","6","8","5","7","8","6","7","6","8","5","4","5","4","3","2","5","1","6","3","1","4","3","6","2","3","4","5","4","5","2","3","6","2","3","4","5","2","5","5","7","5","3","4","5","2","6","3","7","2","4","796468599748435970","李","529","Female","[""好我"",""坏我"",""坏她"",""好她""]","[""强我"",""弱我"",""弱她"",""强她""]","","","","","","","","no","","","","","","","","","SRET","EW_formal","","key","f","16.670838095238043","853.3333333333334","476","自己","腐败","Negative","morality","","","","","","","","","","",""
"956","","j","psychophysics","45","172838","0.0-7.0-3.0-0.31","3","4","3","2","1","4","2","3","4","5","5","0","1","1","0","1","2","1","0","3","5","5","4","5","4","4","5","4","5","6","8","5","7","8","6","7","6","8","5","4","5","4","3","2","5","1","6","3","1","4","3","6","2","3","4","5","4","5","2","3","6","2","3","4","5","2","5","5","7","5","3","4","5","2","6","3","7","2","4","796468599748435970","李","529","Female","[""好我"",""坏我"",""坏她"",""好她""]","[""强我"",""弱我"",""弱她"",""强她""]","","","","","","","","yes","","","","","","","","","SRET","EW_formal","","key","j","16.671461538461674","853.3333333333334","476","朋友","高洁","Positive","morality","","","","","","","","","","",""
"754","","f","psychophysics","46","174595","0.0-7.0-3.0-0.32","3","4","3","2","1","4","2","3","4","5","5","0","1","1","0","1","2","1","0","3","5","5","4","5","4","4","5","4","5","6","8","5","7","8","6","7","6","8","5","4","5","4","3","2","5","1","6","3","1","4","3","6","2","3","4","5","4","5","2","3","6","2","3","4","5","2","5","5","7","5","3","4","5","2","6","3","7","2","4","796468599748435970","李","529","Female","[""好我"",""坏我"",""坏她"",""好她""]","[""强我"",""弱我"",""弱她"",""强她""]","","","","","","","","no","","","","","","","","","SRET","EW_formal","","key","f","16.670961538461526","853.3333333333334","476","朋友","无能","Negative","ability","","","","","","","","","","",""
"1162","","j","psychophysics","47","176759","0.0-7.0-3.0-0.33","3","4","3","2","1","4","2","3","4","5","5","0","1","1","0","1","2","1","0","3","5","5","4","5","4","4","5","4","5","6","8","5","7","8","6","7","6","8","5","4","5","4","3","2","5","1","6","3","1","4","3","6","2","3","4","5","4","5","2","3","6","2","3","4","5","2","5","5","7","5","3","4","5","2","6","3","7","2","4","796468599748435970","李","529","Female","[""好我"",""坏我"",""坏她"",""好她""]","[""强我"",""弱我"",""弱她"",""强她""]","","","","","","","","yes","","","","","","","","","SRET","EW_formal","","key","j","16.67134108527134","853.3333333333334","476","朋友","诚信","Positive","morality","","","","","","","","","","",""
"575","","f","psychophysics","48","178338","0.0-7.0-3.0-0.34","3","4","3","2","1","4","2","3","4","5","5","0","1","1","0","1","2","1","0","3","5","5","4","5","4","4","5","4","5","6","8","5","7","8","6","7","6","8","5","4","5","4","3","2","5","1","6","3","1","4","3","6","2","3","4","5","4","5","2","3","6","2","3","4","5","2","5","5","7","5","3","4","5","2","6","3","7","2","4","796468599748435970","李","529","Female","[""好我"",""坏我"",""坏她"",""好她""]","[""强我"",""弱我"",""弱她"",""强她""]","","","","","","","","no","","","","","","","","","SRET","EW_formal","","key","f","16.67105319148934","853.3333333333334","476","自己","龌龊","Negative","morality","","","","","","","","","","",""
"694","","f","psychophysics","49","180035","0.0-7.0-3.0-0.35","3","4","3","2","1","4","2","3","4","5","5","0","1","1","0","1","2","1","0","3","5","5","4","5","4","4","5","4","5","6","8","5","7","8","6","7","6","8","5","4","5","4","3","2","5","1","6","3","1","4","3","6","2","3","4","5","4","5","2","3","6","2","3","4","5","2","5","5","7","5","3","4","5","2","6","3","7","2","4","796468599748435970","李","529","Female","[""好我"",""坏我"",""坏她"",""好她""]","[""强我"",""弱我"",""弱她"",""强她""]","","","","","","","","no","","","","","","","","","SRET","EW_formal","","key","f","16.670239999999758","853.3333333333334","476","自己","卑鄙","Negative","morality","","","","","","","","","","",""
"1022","","j","psychophysics","50","182059","0.0-7.0-3.0-0.36","3","4","3","2","1","4","2","3","4","5","5","0","1","1","0","1","2","1","0","3","5","5","4","5","4","4","5","4","5","6","8","5","7","8","6","7","6","8","5","4","5","4","3","2","5","1","6","3","1","4","3","6","2","3","4","5","4","5","2","3","6","2","3","4","5","2","5","5","7","5","3","4","5","2","6","3","7","2","4","796468599748435970","李","529","Female","[""好我"",""坏我"",""坏她"",""好她""]","[""强我"",""弱我"",""弱她"",""强她""]","","","","","","","","yes","","","","","","","","","SRET","EW_formal","","key","j","16.671247933884217","853.3333333333334","476","朋友","干练","Positive","ability","","","","","","","","","","",""
"604","","f","psychophysics","51","183664","0.0-7.0-3.0-0.37","3","4","3","2","1","4","2","3","4","5","5","0","1","1","0","1","2","1","0","3","5","5","4","5","4","4","5","4","5","6","8","5","7","8","6","7","6","8","5","4","5","4","3","2","5","1","6","3","1","4","3","6","2","3","4","5","4","5","2","3","6","2","3","4","5","2","5","5","7","5","3","4","5","2","6","3","7","2","4","796468599748435970","李","529","Female","[""好我"",""坏我"",""坏她"",""好她""]","[""强我"",""弱我"",""弱她"",""强她""]","","","","","","","","no","","","","","","","","","SRET","EW_formal","","key","f","16.671410526315633","853.3333333333334","476","自己","势利","Negative","morality","","","","","","","","","","",""
"876","","f","psychophysics","52","185542","0.0-7.0-3.0-0.38","3","4","3","2","1","4","2","3","4","5","5","0","1","1","0","1","2","1","0","3","5","5","4","5","4","4","5","4","5","6","8","5","7","8","6","7","6","8","5","4","5","4","3","2","5","1","6","3","1","4","3","6","2","3","4","5","4","5","2","3","6","2","3","4","5","2","5","5","7","5","3","4","5","2","6","3","7","2","4","796468599748435970","李","529","Female","[""好我"",""坏我"",""坏她"",""好她""]","[""强我"",""弱我"",""弱她"",""强她""]","","","","","","","","no","","","","","","","","","SRET","EW_formal","","key","f","16.67108035714305","853.3333333333334","476","朋友","黑心","Negative","morality","","","","","","","","","","",""
"840","","j","psychophysics","53","187383","0.0-7.0-3.0-0.39","3","4","3","2","1","4","2","3","4","5","5","0","1","1","0","1","2","1","0","3","5","5","4","5","4","4","5","4","5","6","8","5","7","8","6","7","6","8","5","4","5","4","3","2","5","1","6","3","1","4","3","6","2","3","4","5","4","5","2","3","6","2","3","4","5","2","5","5","7","5","3","4","5","2","6","3","7","2","4","796468599748435970","李","529","Female","[""好我"",""坏我"",""坏她"",""好她""]","[""强我"",""弱我"",""弱她"",""强她""]","","","","","","","","yes","","","","","","","","","SRET","EW_formal","","key","j","16.671376146788926","853.3333333333334","476","自己","娴熟","Positive","ability","","","","","","","","","","",""
"563","","f","psychophysics","54","188949","0.0-7.0-3.0-0.40","3","4","3","2","1","4","2","3","4","5","5","0","1","1","0","1","2","1","0","3","5","5","4","5","4","4","5","4","5","6","8","5","7","8","6","7","6","8","5","4","5","4","3","2","5","1","6","3","1","4","3","6","2","3","4","5","4","5","2","3","6","2","3","4","5","2","5","5","7","5","3","4","5","2","6","3","7","2","4","796468599748435970","李","529","Female","[""好我"",""坏我"",""坏她"",""好她""]","[""强我"",""弱我"",""弱她"",""强她""]","","","","","","","","no","","","","","","","","","SRET","EW_formal","","key","f","16.67087096774197","853.3333333333334","476","自己","差生","Negative","ability","","","","","","","","","","",""
"759","","j","psychophysics","55","190712","0.0-7.0-3.0-0.41","3","4","3","2","1","4","2","3","4","5","5","0","1","1","0","1","2","1","0","3","5","5","4","5","4","4","5","4","5","6","8","5","7","8","6","7","6","8","5","4","5","4","3","2","5","1","6","3","1","4","3","6","2","3","4","5","4","5","2","3","6","2","3","4","5","2","5","5","7","5","3","4","5","2","6","3","7","2","4","796468599748435970","李","529","Female","[""好我"",""坏我"",""坏她"",""好她""]","[""强我"",""弱我"",""弱她"",""强她""]","","","","","","","","yes","","","","","","","","","SRET","EW_formal","","key","j","16.670980952381033","853.3333333333334","476","朋友","肯干","Positive","ability","","","","","","","","","","",""
"663","","f","psychophysics","56","192377","0.0-7.0-3.0-0.42","3","4","3","2","1","4","2","3","4","5","5","0","1","1","0","1","2","1","0","3","5","5","4","5","4","4","5","4","5","6","8","5","7","8","6","7","6","8","5","4","5","4","3","2","5","1","6","3","1","4","3","6","2","3","4","5","4","5","2","3","6","2","3","4","5","2","5","5","7","5","3","4","5","2","6","3","7","2","4","796468599748435970","李","529","Female","[""好我"",""坏我"",""坏她"",""好她""]","[""强我"",""弱我"",""弱她"",""强她""]","","","","","","","","no","","","","","","","","","SRET","EW_formal","","key","f","16.671111111111134","853.3333333333334","476","自己","才尽","Negative","ability","","","","","","","","","","",""
"1112","","f","psychophysics","57","194493","0.0-7.0-3.0-0.43","3","4","3","2","1","4","2","3","4","5","5","0","1","1","0","1","2","1","0","3","5","5","4","5","4","4","5","4","5","6","8","5","7","8","6","7","6","8","5","4","5","4","3","2","5","1","6","3","1","4","3","6","2","3","4","5","4","5","2","3","6","2","3","4","5","2","5","5","7","5","3","4","5","2","6","3","7","2","4","796468599748435970","李","529","Female","[""好我"",""坏我"",""坏她"",""好她""]","[""强我"",""弱我"",""弱她"",""强她""]","","","","","","","","no","","","","","","","","","SRET","EW_formal","","key","f","16.670952380952446","853.3333333333334","476","朋友","恶劣","Negative","morality","","","","","","","","","","",""
"944","","f","psychophysics","58","196439","0.0-7.0-3.0-0.44","3","4","3","2","1","4","2","3","4","5","5","0","1","1","0","1","2","1","0","3","5","5","4","5","4","4","5","4","5","6","8","5","7","8","6","7","6","8","5","4","5","4","3","2","5","1","6","3","1","4","3","6","2","3","4","5","4","5","2","3","6","2","3","4","5","2","5","5","7","5","3","4","5","2","6","3","7","2","4","796468599748435970","李","529","Female","[""好我"",""坏我"",""坏她"",""好她""]","[""强我"",""弱我"",""弱她"",""强她""]","","","","","","","","no","","","","","","","","","SRET","EW_formal","","key","f","16.671660869565297","853.3333333333334","476","朋友","奸险","Negative","morality","","","","","","","","","","",""
"1244","","j","psychophysics","59","198688","0.0-7.0-3.0-0.45","3","4","3","2","1","4","2","3","4","5","5","0","1","1","0","1","2","1","0","3","5","5","4","5","4","4","5","4","5","6","8","5","7","8","6","7","6","8","5","4","5","4","3","2","5","1","6","3","1","4","3","6","2","3","4","5","4","5","2","3","6","2","3","4","5","2","5","5","7","5","3","4","5","2","6","3","7","2","4","796468599748435970","李","529","Female","[""好我"",""坏我"",""坏她"",""好她""]","[""强我"",""弱我"",""弱她"",""强她""]","","","","","","","","yes","","","","","","","","","SRET","EW_formal","","key","j","16.670917910447695","853.3333333333334","476","朋友","聪明","Positive","ability","","","","","","","","","","",""
"635","","j","psychophysics","60","200329","0.0-7.0-3.0-0.46","3","4","3","2","1","4","2","3","4","5","5","0","1","1","0","1","2","1","0","3","5","5","4","5","4","4","5","4","5","6","8","5","7","8","6","7","6","8","5","4","5","4","3","2","5","1","6","3","1","4","3","6","2","3","4","5","4","5","2","3","6","2","3","4","5","2","5","5","7","5","3","4","5","2","6","3","7","2","4","796468599748435970","李","529","Female","[""好我"",""坏我"",""坏她"",""好她""]","[""强我"",""弱我"",""弱她"",""强她""]","","","","","","","","yes","","","","","","","","","SRET","EW_formal","","key","j","16.671081632652797","853.3333333333334","476","朋友","周到","Positive","ability","","","","","","","","","","",""
"902","","j","psychophysics","61","202235","0.0-7.0-3.0-0.47","3","4","3","2","1","4","2","3","4","5","5","0","1","1","0","1","2","1","0","3","5","5","4","5","4","4","5","4","5","6","8","5","7","8","6","7","6","8","5","4","5","4","3","2","5","1","6","3","1","4","3","6","2","3","4","5","4","5","2","3","6","2","3","4","5","2","5","5","7","5","3","4","5","2","6","3","7","2","4","796468599748435970","李","529","Female","[""好我"",""坏我"",""坏她"",""好她""]","[""强我"",""弱我"",""弱她"",""强她""]","","","","","","","","yes","","","","","","","","","SRET","EW_formal","","key","j","16.671044247787428","853.3333333333334","476","自己","外行","Negative","ability","","","","","","","","","","",""
"614","","j","psychophysics","62","203849","0.0-7.0-3.0-0.48","3","4","3","2","1","4","2","3","4","5","5","0","1","1","0","1","2","1","0","3","5","5","4","5","4","4","5","4","5","6","8","5","7","8","6","7","6","8","5","4","5","4","3","2","5","1","6","3","1","4","3","6","2","3","4","5","4","5","2","3","6","2","3","4","5","2","5","5","7","5","3","4","5","2","6","3","7","2","4","796468599748435970","李","529","Female","[""好我"",""坏我"",""坏她"",""好她""]","[""强我"",""弱我"",""弱她"",""强她""]","","","","","","","","yes","","","","","","","","","SRET","EW_formal","","key","j","16.670906249999764","853.3333333333334","476","朋友","忠勇","Positive","morality","","","","","","","","","","",""
"651","","f","psychophysics","63","205503","0.0-7.0-3.0-0.49","3","4","3","2","1","4","2","3","4","5","5","0","1","1","0","1","2","1","0","3","5","5","4","5","4","4","5","4","5","6","8","5","7","8","6","7","6","8","5","4","5","4","3","2","5","1","6","3","1","4","3","6","2","3","4","5","4","5","2","3","6","2","3","4","5","2","5","5","7","5","3","4","5","2","6","3","7","2","4","796468599748435970","李","529","Female","[""好我"",""坏我"",""坏她"",""好她""]","[""强我"",""弱我"",""弱她"",""强她""]","","","","","","","","no","","","","","","","","","SRET","EW_formal","","key","f","16.671642857143116","853.3333333333334","476","朋友","低劣","Negative","morality","","","","","","","","","","",""
"668","","j","psychophysics","64","207175","0.0-7.0-3.0-0.50","3","4","3","2","1","4","2","3","4","5","5","0","1","1","0","1","2","1","0","3","5","5","4","5","4","4","5","4","5","6","8","5","7","8","6","7","6","8","5","4","5","4","3","2","5","1","6","3","1","4","3","6","2","3","4","5","4","5","2","3","6","2","3","4","5","2","5","5","7","5","3","4","5","2","6","3","7","2","4","796468599748435970","李","529","Female","[""好我"",""坏我"",""坏她"",""好她""]","[""强我"",""弱我"",""弱她"",""强她""]","","","","","","","","yes","","","","","","","","","SRET","EW_formal","","key","j","16.67119191919196","853.3333333333334","476","自己","守法","Positive","morality","","","","","","","","","","",""
"646","","f","psychophysics","65","208834","0.0-7.0-3.0-0.51","3","4","3","2","1","4","2","3","4","5","5","0","1","1","0","1","2","1","0","3","5","5","4","5","4","4","5","4","5","6","8","5","7","8","6","7","6","8","5","4","5","4","3","2","5","1","6","3","1","4","3","6","2","3","4","5","4","5","2","3","6","2","3","4","5","2","5","5","7","5","3","4","5","2","6","3","7","2","4","796468599748435970","李","529","Female","[""好我"",""坏我"",""坏她"",""好她""]","[""强我"",""弱我"",""弱她"",""强她""]","","","","","","","","no","","","","","","","","","SRET","EW_formal","","key","f","16.670030303030437","853.3333333333334","476","朋友","背叛","Negative","morality","","","","","","","","","","",""
"799","","j","psychophysics","66","210635","0.0-7.0-3.0-0.52","3","4","3","2","1","4","2","3","4","5","5","0","1","1","0","1","2","1","0","3","5","5","4","5","4","4","5","4","5","6","8","5","7","8","6","7","6","8","5","4","5","4","3","2","5","1","6","3","1","4","3","6","2","3","4","5","4","5","2","3","6","2","3","4","5","2","5","5","7","5","3","4","5","2","6","3","7","2","4","796468599748435970","李","529","Female","[""好我"",""坏我"",""坏她"",""好她""]","[""强我"",""弱我"",""弱她"",""强她""]","","","","","","","","yes","","","","","","","","","SRET","EW_formal","","key","j","16.671542056074863","853.3333333333334","476","自己","中用","Positive","ability","","","","","","","","","","",""
"810","","j","psychophysics","67","212448","0.0-7.0-3.0-0.53","3","4","3","2","1","4","2","3","4","5","5","0","1","1","0","1","2","1","0","3","5","5","4","5","4","4","5","4","5","6","8","5","7","8","6","7","6","8","5","4","5","4","3","2","5","1","6","3","1","4","3","6","2","3","4","5","4","5","2","3","6","2","3","4","5","2","5","5","7","5","3","4","5","2","6","3","7","2","4","796468599748435970","李","529","Female","[""好我"",""坏我"",""坏她"",""好她""]","[""强我"",""弱我"",""弱她"",""强她""]","","","","","","","","yes","","","","","","","","","SRET","EW_formal","","key","j","16.671259259259116","853.3333333333334","476","自己","新手","Negative","ability","","","","","","","","","","",""
"625","","f","psychophysics","68","214076","0.0-7.0-3.0-0.54","3","4","3","2","1","4","2","3","4","5","5","0","1","1","0","1","2","1","0","3","5","5","4","5","4","4","5","4","5","6","8","5","7","8","6","7","6","8","5","4","5","4","3","2","5","1","6","3","1","4","3","6","2","3","4","5","4","5","2","3","6","2","3","4","5","2","5","5","7","5","3","4","5","2","6","3","7","2","4","796468599748435970","李","529","Female","[""好我"",""坏我"",""坏她"",""好她""]","[""强我"",""弱我"",""弱她"",""强她""]","","","","","","","","no","","","","","","","","","SRET","EW_formal","","key","f","16.670312500000062","853.3333333333334","476","朋友","歹毒","Negative","morality","","","","","","","","","","",""
"451","","j","psychophysics","69","215529","0.0-7.0-3.0-0.55","3","4","3","2","1","4","2","3","4","5","5","0","1","1","0","1","2","1","0","3","5","5","4","5","4","4","5","4","5","6","8","5","7","8","6","7","6","8","5","4","5","4","3","2","5","1","6","3","1","4","3","6","2","3","4","5","4","5","2","3","6","2","3","4","5","2","5","5","7","5","3","4","5","2","6","3","7","2","4","796468599748435970","李","529","Female","[""好我"",""坏我"",""坏她"",""好她""]","[""强我"",""弱我"",""弱她"",""强她""]","","","","","","","","yes","","","","","","","","","SRET","EW_formal","","key","j","16.671848837209076","853.3333333333334","476","自己","热心","Positive","morality","","","","","","","","","","",""
"667","","j","psychophysics","70","217200","0.0-7.0-3.0-0.56","3","4","3","2","1","4","2","3","4","5","5","0","1","1","0","1","2","1","0","3","5","5","4","5","4","4","5","4","5","6","8","5","7","8","6","7","6","8","5","4","5","4","3","2","5","1","6","3","1","4","3","6","2","3","4","5","4","5","2","3","6","2","3","4","5","2","5","5","7","5","3","4","5","2","6","3","7","2","4","796468599748435970","李","529","Female","[""好我"",""坏我"",""坏她"",""好她""]","[""强我"",""弱我"",""弱她"",""强她""]","","","","","","","","yes","","","","","","","","","SRET","EW_formal","","key","j","16.67118999999977","853.3333333333334","476","自己","刻薄","Negative","morality","","","","","","","","","","",""
"580","","f","psychophysics","71","218784","0.0-7.0-3.0-0.57","3","4","3","2","1","4","2","3","4","5","5","0","1","1","0","1","2","1","0","3","5","5","4","5","4","4","5","4","5","6","8","5","7","8","6","7","6","8","5","4","5","4","3","2","5","1","6","3","1","4","3","6","2","3","4","5","4","5","2","3","6","2","3","4","5","2","5","5","7","5","3","4","5","2","6","3","7","2","4","796468599748435970","李","529","Female","[""好我"",""坏我"",""坏她"",""好她""]","[""强我"",""弱我"",""弱她"",""强她""]","","","","","","","","no","","","","","","","","","SRET","EW_formal","","key","f","16.67080851063811","853.3333333333334","476","朋友","屈才","Negative","ability","","","","","","","","","","",""
"1255","","f","psychophysics","72","221042","0.0-7.0-3.0-0.58","3","4","3","2","1","4","2","3","4","5","5","0","1","1","0","1","2","1","0","3","5","5","4","5","4","4","5","4","5","6","8","5","7","8","6","7","6","8","5","4","5","4","3","2","5","1","6","3","1","4","3","6","2","3","4","5","4","5","2","3","6","2","3","4","5","2","5","5","7","5","3","4","5","2","6","3","7","2","4","796468599748435970","李","529","Female","[""好我"",""坏我"",""坏她"",""好她""]","[""强我"",""弱我"",""弱她"",""强她""]","","","","","","","","no","","","","","","","","","SRET","EW_formal","","key","f","16.671014925373115","853.3333333333334","476","朋友","草率","Negative","ability","","","","","","","","","","",""
"605","","f","psychophysics","73","222650","0.0-7.0-3.0-0.59","3","4","3","2","1","4","2","3","4","5","5","0","1","1","0","1","2","1","0","3","5","5","4","5","4","4","5","4","5","6","8","5","7","8","6","7","6","8","5","4","5","4","3","2","5","1","6","3","1","4","3","6","2","3","4","5","4","5","2","3","6","2","3","4","5","2","5","5","7","5","3","4","5","2","6","3","7","2","4","796468599748435970","李","529","Female","[""好我"",""坏我"",""坏她"",""好她""]","[""强我"",""弱我"",""弱她"",""强她""]","","","","","","","","no","","","","","","","","","SRET","EW_formal","","key","f","16.671364583333343","853.3333333333334","476","自己","弱智","Negative","ability","","","","","","","","","","",""
"539","","j","psychophysics","74","224193","0.0-7.0-3.0-0.60","3","4","3","2","1","4","2","3","4","5","5","0","1","1","0","1","2","1","0","3","5","5","4","5","4","4","5","4","5","6","8","5","7","8","6","7","6","8","5","4","5","4","3","2","5","1","6","3","1","4","3","6","2","3","4","5","4","5","2","3","6","2","3","4","5","2","5","5","7","5","3","4","5","2","6","3","7","2","4","796468599748435970","李","529","Female","[""好我"",""坏我"",""坏她"",""好她""]","[""强我"",""弱我"",""弱她"",""强她""]","","","","","","","","yes","","","","","","","","","SRET","EW_formal","","key","j","16.67102197802192","853.3333333333334","476","朋友","上进","Positive","ability","","","","","","","","","","",""
"593","","f","psychophysics","75","225789","0.0-7.0-3.0-0.61","3","4","3","2","1","4","2","3","4","5","5","0","1","1","0","1","2","1","0","3","5","5","4","5","4","4","5","4","5","6","8","5","7","8","6","7","6","8","5","4","5","4","3","2","5","1","6","3","1","4","3","6","2","3","4","5","4","5","2","3","6","2","3","4","5","2","5","5","7","5","3","4","5","2","6","3","7","2","4","796468599748435970","李","529","Female","[""好我"",""坏我"",""坏她"",""好她""]","[""强我"",""弱我"",""弱她"",""强她""]","","","","","","","","no","","","","","","","","","SRET","EW_formal","","key","f","16.670578947368593","853.3333333333334","476","自己","拖延","Negative","ability","","","","","","","","","","",""
"1029","","j","psychophysics","76","227819","0.0-7.0-3.0-0.62","3","4","3","2","1","4","2","3","4","5","5","0","1","1","0","1","2","1","0","3","5","5","4","5","4","4","5","4","5","6","8","5","7","8","6","7","6","8","5","4","5","4","3","2","5","1","6","3","1","4","3","6","2","3","4","5","4","5","2","3","6","2","3","4","5","2","5","5","7","5","3","4","5","2","6","3","7","2","4","796468599748435970","李","529","Female","[""好我"",""坏我"",""坏她"",""好她""]","[""强我"",""弱我"",""弱她"",""强她""]","","","","","","","","yes","","","","","","","","","SRET","EW_formal","","key","j","16.671702479338705","853.3333333333334","476","朋友","君子","Positive","morality","","","","","","","","","","",""
"801","","j","psychophysics","77","229622","0.0-7.0-3.0-0.63","3","4","3","2","1","4","2","3","4","5","5","0","1","1","0","1","2","1","0","3","5","5","4","5","4","4","5","4","5","6","8","5","7","8","6","7","6","8","5","4","5","4","3","2","5","1","6","3","1","4","3","6","2","3","4","5","4","5","2","3","6","2","3","4","5","2","5","5","7","5","3","4","5","2","6","3","7","2","4","796468599748435970","李","529","Female","[""好我"",""坏我"",""坏她"",""好她""]","[""强我"",""弱我"",""弱她"",""强她""]","","","","","","","","yes","","","","","","","","","SRET","EW_formal","","key","j","16.670644859813","853.3333333333334","476","朋友","高效","Positive","ability","","","","","","","","","","",""
"622","","j","psychophysics","78","231246","0.0-7.0-3.0-0.64","3","4","3","2","1","4","2","3","4","5","5","0","1","1","0","1","2","1","0","3","5","5","4","5","4","4","5","4","5","6","8","5","7","8","6","7","6","8","5","4","5","4","3","2","5","1","6","3","1","4","3","6","2","3","4","5","4","5","2","3","6","2","3","4","5","2","5","5","7","5","3","4","5","2","6","3","7","2","4","796468599748435970","李","529","Female","[""好我"",""坏我"",""坏她"",""好她""]","[""强我"",""弱我"",""弱她"",""强她""]","","","","","","","","yes","","","","","","","","","SRET","EW_formal","","key","j","16.671885416666555","853.3333333333334","476","朋友","宽容","Positive","morality","","","","","","","","","","",""
"940","","j","psychophysics","79","233189","0.0-7.0-3.0-0.65","3","4","3","2","1","4","2","3","4","5","5","0","1","1","0","1","2","1","0","3","5","5","4","5","4","4","5","4","5","6","8","5","7","8","6","7","6","8","5","4","5","4","3","2","5","1","6","3","1","4","3","6","2","3","4","5","4","5","2","3","6","2","3","4","5","2","5","5","7","5","3","4","5","2","6","3","7","2","4","796468599748435970","李","529","Female","[""好我"",""坏我"",""坏她"",""好她""]","[""强我"",""弱我"",""弱她"",""强她""]","","","","","","","","yes","","","","","","","","","SRET","EW_formal","","key","j","16.671431034482747","853.3333333333334","476","自己","守时","Positive","morality","","","","","","","","","","",""
"648","","f","psychophysics","80","234840","0.0-7.0-3.0-0.66","3","4","3","2","1","4","2","3","4","5","5","0","1","1","0","1","2","1","0","3","5","5","4","5","4","4","5","4","5","6","8","5","7","8","6","7","6","8","5","4","5","4","3","2","5","1","6","3","1","4","3","6","2","3","4","5","4","5","2","3","6","2","3","4","5","2","5","5","7","5","3","4","5","2","6","3","7","2","4","796468599748435970","李","529","Female","[""好我"",""坏我"",""坏她"",""好她""]","[""强我"",""弱我"",""弱她"",""强她""]","","","","","","","","no","","","","","","","","","SRET","EW_formal","","key","f","16.67047959183668","853.3333333333334","476","朋友","畏难","Negative","ability","","","","","","","","","","",""
"647","","f","psychophysics","81","236489","0.0-7.0-3.0-0.67","3","4","3","2","1","4","2","3","4","5","5","0","1","1","0","1","2","1","0","3","5","5","4","5","4","4","5","4","5","6","8","5","7","8","6","7","6","8","5","4","5","4","3","2","5","1","6","3","1","4","3","6","2","3","4","5","4","5","2","3","6","2","3","4","5","2","5","5","7","5","3","4","5","2","6","3","7","2","4","796468599748435970","李","529","Female","[""好我"",""坏我"",""坏她"",""好她""]","[""强我"",""弱我"",""弱她"",""强她""]","","","","","","","","no","","","","","","","","","SRET","EW_formal","","key","f","16.671714285714373","853.3333333333334","476","朋友","驽钝","Negative","ability","","","","","","","","","","",""
"1488","","j","psychophysics","82","238977","0.0-7.0-3.0-0.68","3","4","3","2","1","4","2","3","4","5","5","0","1","1","0","1","2","1","0","3","5","5","4","5","4","4","5","4","5","6","8","5","7","8","6","7","6","8","5","4","5","4","3","2","5","1","6","3","1","4","3","6","2","3","4","5","4","5","2","3","6","2","3","4","5","2","5","5","7","5","3","4","5","2","6","3","7","2","4","796468599748435970","李","529","Female","[""好我"",""坏我"",""坏她"",""好她""]","[""强我"",""弱我"",""弱她"",""强她""]","","","","","","","","yes","","","","","","","","","SRET","EW_formal","","key","j","16.671054054053997","853.3333333333334","476","朋友","懂行","Positive","ability","","","","","","","","","","",""
"1121","","j","psychophysics","83","241100","0.0-7.0-3.0-0.69","3","4","3","2","1","4","2","3","4","5","5","0","1","1","0","1","2","1","0","3","5","5","4","5","4","4","5","4","5","6","8","5","7","8","6","7","6","8","5","4","5","4","3","2","5","1","6","3","1","4","3","6","2","3","4","5","4","5","2","3","6","2","3","4","5","2","5","5","7","5","3","4","5","2","6","3","7","2","4","796468599748435970","李","529","Female","[""好我"",""坏我"",""坏她"",""好她""]","[""强我"",""弱我"",""弱她"",""强她""]","","","","","","","","yes","","","","","","","","","SRET","EW_formal","","key","j","16.67071428571436","853.3333333333334","476","自己","奉献","Positive","morality","","","","","","","","","","",""
"505","","f","psychophysics","84","242613","0.0-7.0-3.0-0.70","3","4","3","2","1","4","2","3","4","5","5","0","1","1","0","1","2","1","0","3","5","5","4","5","4","4","5","4","5","6","8","5","7","8","6","7","6","8","5","4","5","4","3","2","5","1","6","3","1","4","3","6","2","3","4","5","4","5","2","3","6","2","3","4","5","2","5","5","7","5","3","4","5","2","6","3","7","2","4","796468599748435970","李","529","Female","[""好我"",""坏我"",""坏她"",""好她""]","[""强我"",""弱我"",""弱她"",""强她""]","","","","","","","","no","","","","","","","","","SRET","EW_formal","","key","f","16.670444444444406","853.3333333333334","476","朋友","不良","Negative","morality","","","","","","","","","","",""
"642","","f","psychophysics","85","244257","0.0-7.0-3.0-0.71","3","4","3","2","1","4","2","3","4","5","5","0","1","1","0","1","2","1","0","3","5","5","4","5","4","4","5","4","5","6","8","5","7","8","6","7","6","8","5","4","5","4","3","2","5","1","6","3","1","4","3","6","2","3","4","5","4","5","2","3","6","2","3","4","5","2","5","5","7","5","3","4","5","2","6","3","7","2","4","796468599748435970","李","529","Female","[""好我"",""坏我"",""坏她"",""好她""]","[""强我"",""弱我"",""弱她"",""强她""]","","","","","","","","no","","","","","","","","","SRET","EW_formal","","key","f","16.671897959183575","853.3333333333334","476","朋友","浅薄","Negative","ability","","","","","","","","","","",""
"707","","j","psychophysics","86","245967","0.0-7.0-3.0-0.72","3","4","3","2","1","4","2","3","4","5","5","0","1","1","0","1","2","1","0","3","5","5","4","5","4","4","5","4","5","6","8","5","7","8","6","7","6","8","5","4","5","4","3","2","5","1","6","3","1","4","3","6","2","3","4","5","4","5","2","3","6","2","3","4","5","2","5","5","7","5","3","4","5","2","6","3","7","2","4","796468599748435970","李","529","Female","[""好我"",""坏我"",""坏她"",""好她""]","[""强我"",""弱我"",""弱她"",""强她""]","","","","","","","","yes","","","","","","","","","SRET","EW_formal","","key","j","16.67131683168331","853.3333333333334","476","自己","专注","Positive","ability","","","","","","","","","","",""
"670","","j","psychophysics","87","247647","0.0-7.0-3.0-0.73","3","4","3","2","1","4","2","3","4","5","5","0","1","1","0","1","2","1","0","3","5","5","4","5","4","4","5","4","5","6","8","5","7","8","6","7","6","8","5","4","5","4","3","2","5","1","6","3","1","4","3","6","2","3","4","5","4","5","2","3","6","2","3","4","5","2","5","5","7","5","3","4","5","2","6","3","7","2","4","796468599748435970","李","529","Female","[""好我"",""坏我"",""坏她"",""好她""]","[""强我"",""弱我"",""弱她"",""强她""]","","","","","","","","yes","","","","","","","","","SRET","EW_formal","","key","j","16.670510000000068","853.3333333333334","476","朋友","孝顺","Positive","morality","","","","","","","","","","",""
"568","","f","psychophysics","88","249216","0.0-7.0-3.0-0.74","3","4","3","2","1","4","2","3","4","5","5","0","1","1","0","1","2","1","0","3","5","5","4","5","4","4","5","4","5","6","8","5","7","8","6","7","6","8","5","4","5","4","3","2","5","1","6","3","1","4","3","6","2","3","4","5","4","5","2","3","6","2","3","4","5","2","5","5","7","5","3","4","5","2","6","3","7","2","4","796468599748435970","李","529","Female","[""好我"",""坏我"",""坏她"",""好她""]","[""强我"",""弱我"",""弱她"",""强她""]","","","","","","","","no","","","","","","","","","SRET","EW_formal","","key","f","16.67129032258057","853.3333333333334","476","自己","短视","Negative","ability","","","","","","","","","","",""
"622","","f","psychophysics","89","250840","0.0-7.0-3.0-0.75","3","4","3","2","1","4","2","3","4","5","5","0","1","1","0","1","2","1","0","3","5","5","4","5","4","4","5","4","5","6","8","5","7","8","6","7","6","8","5","4","5","4","3","2","5","1","6","3","1","4","3","6","2","3","4","5","4","5","2","3","6","2","3","4","5","2","5","5","7","5","3","4","5","2","6","3","7","2","4","796468599748435970","李","529","Female","[""好我"",""坏我"",""坏她"",""好她""]","[""强我"",""弱我"",""弱她"",""强她""]","","","","","","","","no","","","","","","","","","SRET","EW_formal","","key","f","16.67139175257732","853.3333333333334","476","自己","怠惰","Negative","ability","","","","","","","","","","",""
"549","","j","psychophysics","90","252393","0.0-7.0-3.0-0.76","3","4","3","2","1","4","2","3","4","5","5","0","1","1","0","1","2","1","0","3","5","5","4","5","4","4","5","4","5","6","8","5","7","8","6","7","6","8","5","4","5","4","3","2","5","1","6","3","1","4","3","6","2","3","4","5","4","5","2","3","6","2","3","4","5","2","5","5","7","5","3","4","5","2","6","3","7","2","4","796468599748435970","李","529","Female","[""好我"",""坏我"",""坏她"",""好她""]","[""强我"",""弱我"",""弱她"",""强她""]","","","","","","","","yes","","","","","","","","","SRET","EW_formal","","key","j","16.671130434782675","853.3333333333334","476","自己","勤恳","Positive","morality","","","","","","","","","","",""
"566","","f","psychophysics","91","253962","0.0-7.0-3.0-0.77","3","4","3","2","1","4","2","3","4","5","5","0","1","1","0","1","2","1","0","3","5","5","4","5","4","4","5","4","5","6","8","5","7","8","6","7","6","8","5","4","5","4","3","2","5","1","6","3","1","4","3","6","2","3","4","5","4","5","2","3","6","2","3","4","5","2","5","5","7","5","3","4","5","2","6","3","7","2","4","796468599748435970","李","529","Female","[""好我"",""坏我"",""坏她"",""好她""]","[""强我"",""弱我"",""弱她"",""强她""]","","","","","","","","no","","","","","","","","","SRET","EW_formal","","key","f","16.671182795698748","853.3333333333334","476","朋友","失信","Negative","morality","","","","","","","","","","",""
"663","","j","psychophysics","92","255628","0.0-7.0-3.0-0.78","3","4","3","2","1","4","2","3","4","5","5","0","1","1","0","1","2","1","0","3","5","5","4","5","4","4","5","4","5","6","8","5","7","8","6","7","6","8","5","4","5","4","3","2","5","1","6","3","1","4","3","6","2","3","4","5","4","5","2","3","6","2","3","4","5","2","5","5","7","5","3","4","5","2","6","3","7","2","4","796468599748435970","李","529","Female","[""好我"",""坏我"",""坏她"",""好她""]","[""强我"",""弱我"",""弱她"",""强她""]","","","","","","","","yes","","","","","","","","","SRET","EW_formal","","key","j","16.72472727272749","853.3333333333334","476","自己","顶事","Positive","ability","","","","","","","","","","",""
"584","","j","psychophysics","93","257213","0.0-7.0-3.0-0.79","3","4","3","2","1","4","2","3","4","5","5","0","1","1","0","1","2","1","0","3","5","5","4","5","4","4","5","4","5","6","8","5","7","8","6","7","6","8","5","4","5","4","3","2","5","1","6","3","1","4","3","6","2","3","4","5","4","5","2","3","6","2","3","4","5","2","5","5","7","5","3","4","5","2","6","3","7","2","4","796468599748435970","李","529","Female","[""好我"",""坏我"",""坏她"",""好她""]","[""强我"",""弱我"",""弱她"",""强她""]","","","","","","","","yes","","","","","","","","","SRET","EW_formal","","key","j","16.90296739130439","853.3333333333334","476","自己","博识","Positive","ability","","","","","","","","","","",""
"825","","j","psychophysics","94","259042","0.0-7.0-3.0-0.80","3","4","3","2","1","4","2","3","4","5","5","0","1","1","0","1","2","1","0","3","5","5","4","5","4","4","5","4","5","6","8","5","7","8","6","7","6","8","5","4","5","4","3","2","5","1","6","3","1","4","3","6","2","3","4","5","4","5","2","3","6","2","3","4","5","2","5","5","7","5","3","4","5","2","6","3","7","2","4","796468599748435970","李","529","Female","[""好我"",""坏我"",""坏她"",""好她""]","[""强我"",""弱我"",""弱她"",""强她""]","","","","","","","","yes","","","","","","","","","SRET","EW_formal","","key","j","16.75499999999985","853.3333333333334","476","自己","爱国","Positive","morality","","","","","","","","","","",""
"534","","j","psychophysics","95","260578","0.0-7.0-3.0-0.81","3","4","3","2","1","4","2","3","4","5","5","0","1","1","0","1","2","1","0","3","5","5","4","5","4","4","5","4","5","6","8","5","7","8","6","7","6","8","5","4","5","4","3","2","5","1","6","3","1","4","3","6","2","3","4","5","4","5","2","3","6","2","3","4","5","2","5","5","7","5","3","4","5","2","6","3","7","2","4","796468599748435970","李","529","Female","[""好我"",""坏我"",""坏她"",""好她""]","[""强我"",""弱我"",""弱她"",""强她""]","","","","","","","","yes","","","","","","","","","SRET","EW_formal","","key","j","16.661164835164808","853.3333333333334","476","朋友","无知","Negative","ability","","","","","","","","","","",""
"567","","f","psychophysics","96","262147","0.0-7.0-3.0-0.82","3","4","3","2","1","4","2","3","4","5","5","0","1","1","0","1","2","1","0","3","5","5","4","5","4","4","5","4","5","6","8","5","7","8","6","7","6","8","5","4","5","4","3","2","5","1","6","3","1","4","3","6","2","3","4","5","4","5","2","3","6","2","3","4","5","2","5","5","7","5","3","4","5","2","6","3","7","2","4","796468599748435970","李","529","Female","[""好我"",""坏我"",""坏她"",""好她""]","[""强我"",""弱我"",""弱她"",""强她""]","","","","","","","","no","","","","","","","","","SRET","EW_formal","","key","f","16.66046236559119","853.3333333333334","476","朋友","侠义","Positive","morality","","","","","","","","","","",""
"424","","j","psychophysics","97","263573","0.0-7.0-3.0-0.83","3","4","3","2","1","4","2","3","4","5","5","0","1","1","0","1","2","1","0","3","5","5","4","5","4","4","5","4","5","6","8","5","7","8","6","7","6","8","5","4","5","4","3","2","5","1","6","3","1","4","3","6","2","3","4","5","4","5","2","3","6","2","3","4","5","2","5","5","7","5","3","4","5","2","6","3","7","2","4","796468599748435970","李","529","Female","[""好我"",""坏我"",""坏她"",""好她""]","[""强我"",""弱我"",""弱她"",""强她""]","","","","","","","","yes","","","","","","","","","SRET","EW_formal","","key","j","16.67861904761923","853.3333333333334","476","自己","高尚","Positive","morality","","","","","","","","","","",""
"459","","j","psychophysics","98","265038","0.0-7.0-3.0-0.84","3","4","3","2","1","4","2","3","4","5","5","0","1","1","0","1","2","1","0","3","5","5","4","5","4","4","5","4","5","6","8","5","7","8","6","7","6","8","5","4","5","4","3","2","5","1","6","3","1","4","3","6","2","3","4","5","4","5","2","3","6","2","3","4","5","2","5","5","7","5","3","4","5","2","6","3","7","2","4","796468599748435970","李","529","Female","[""好我"",""坏我"",""坏她"",""好她""]","[""强我"",""弱我"",""弱她"",""强她""]","","","","","","","","yes","","","","","","","","","SRET","EW_formal","","key","j","16.673919540229814","853.3333333333334","476","朋友","素养","Positive","morality","","","","","","","","","","",""
"647","","j","psychophysics","99","266687","0.0-7.0-3.0-0.85","3","4","3","2","1","4","2","3","4","5","5","0","1","1","0","1","2","1","0","3","5","5","4","5","4","4","5","4","5","6","8","5","7","8","6","7","6","8","5","4","5","4","3","2","5","1","6","3","1","4","3","6","2","3","4","5","4","5","2","3","6","2","3","4","5","2","5","5","7","5","3","4","5","2","6","3","7","2","4","796468599748435970","李","529","Female","[""好我"",""坏我"",""坏她"",""好她""]","[""强我"",""弱我"",""弱她"",""强她""]","","","","","","","","yes","","","","","","","","","SRET","EW_formal","","key","j","16.67055102040794","853.3333333333334","476","自己","主见","Positive","ability","","","","","","","","","","",""
"556","","j","psychophysics","100","268245","0.0-7.0-3.0-0.86","3","4","3","2","1","4","2","3","4","5","5","0","1","1","0","1","2","1","0","3","5","5","4","5","4","4","5","4","5","6","8","5","7","8","6","7","6","8","5","4","5","4","3","2","5","1","6","3","1","4","3","6","2","3","4","5","4","5","2","3","6","2","3","4","5","2","5","5","7","5","3","4","5","2","6","3","7","2","4","796468599748435970","李","529","Female","[""好我"",""坏我"",""坏她"",""好她""]","[""强我"",""弱我"",""弱她"",""强她""]","","","","","","","","yes","","","","","","","","","SRET","EW_formal","","key","j","16.671892473118014","853.3333333333334","476","自己","缓慢","Negative","ability","","","","","","","","","","",""
"685","","f","psychophysics","101","269933","0.0-7.0-3.0-0.87","3","4","3","2","1","4","2","3","4","5","5","0","1","1","0","1","2","1","0","3","5","5","4","5","4","4","5","4","5","6","8","5","7","8","6","7","6","8","5","4","5","4","3","2","5","1","6","3","1","4","3","6","2","3","4","5","4","5","2","3","6","2","3","4","5","2","5","5","7","5","3","4","5","2","6","3","7","2","4","796468599748435970","李","529","Female","[""好我"",""坏我"",""坏她"",""好她""]","[""强我"",""弱我"",""弱她"",""强她""]","","","","","","","","no","","","","","","","","","SRET","EW_formal","","key","f","16.67070000000007","853.3333333333334","476","朋友","低俗","Negative","morality","","","","","","","","","","",""
"7054","
    <p><div style='color:white;font-size:35px; line-height:20px;'>计算任务</div></p><br>
    <p><div style='color:red;font-size:25px; line-height:20px;'>接下来，您将看到一些四则运算题，<b>请从键盘选择 0-9 进行反应。</b></div></p>
    <p><div style='color:red;font-size:25px; line-height:20px;'>请尽可能快地进行计算，计算的速度和正确率将影响报酬的发放。</div></p>
    <p><div class='footer' style='color:white;font-size:25px; line-height:20px;'>如果对本实验还有不清楚之处，请立即向实验员咨询。</p><p style='color:white;font-size:25px; line-height:20px;'>如果您明白了规则：</p><p style='color:white;font-size:22px; line-height:20px;'>请按 继续 进入练习</p>
    </div>
    ","0","html-button-response","102","276988","0.0-7.0-4.0","3","4","3","2","1","4","2","3","4","5","5","0","1","1","0","1","2","1","0","3","5","5","4","5","4","4","5","4","5","6","8","5","7","8","6","7","6","8","5","4","5","4","3","2","5","1","6","3","1","4","3","6","2","3","4","5","4","5","2","3","6","2","3","4","5","2","5","5","7","5","3","4","5","2","6","3","7","2","4","796468599748435970","李","529","Female","[""好我"",""坏我"",""坏她"",""好她""]","[""强我"",""弱我"",""弱她"",""强她""]","","","","","","","","","","","","","","","","","SRET_math","math_instructions","Thu Jan 11 2024 16:56:42 GMT+0800 (中国标准时间)","","","","","","","","","","","","","","","","","","","",""
"1781","","7","psychophysics","103","278774","0.0-7.0-5.0-0.0","3","4","3","2","1","4","2","3","4","5","5","0","1","1","0","1","2","1","0","3","5","5","4","5","4","4","5","4","5","6","8","5","7","8","6","7","6","8","5","4","5","4","3","2","5","1","6","3","1","4","3","6","2","3","4","5","4","5","2","3","6","2","3","4","5","2","5","5","7","5","3","4","5","2","6","3","7","2","4","796468599748435970","李","529","Female","[""好我"",""坏我"",""坏她"",""好她""]","[""强我"",""弱我"",""弱她"",""强她""]","","","","","","","","7","","","","","","","","","SRET","SRET_math_calculate","","key","7","16.82944339622616","853.3333333333334","476","","","","","5+2= ?","7","1","","","","","","","",""
"2201","","1","psychophysics","104","280982","0.0-7.0-5.0-0.1","3","4","3","2","1","4","2","3","4","5","5","0","1","1","0","1","2","1","0","3","5","5","4","5","4","4","5","4","5","6","8","5","7","8","6","7","6","8","5","4","5","4","3","2","5","1","6","3","1","4","3","6","2","3","4","5","4","5","2","3","6","2","3","4","5","2","5","5","7","5","3","4","5","2","6","3","7","2","4","796468599748435970","李","529","Female","[""好我"",""坏我"",""坏她"",""好她""]","[""强我"",""弱我"",""弱她"",""强她""]","","","","","","","","1","","","","","","","","","SRET","SRET_math_calculate","","key","1","16.67103030303031","853.3333333333334","476","","","","","30-29= ?","1","1","","","","","","","",""
"1818","","8","psychophysics","105","282850","0.0-7.0-5.0-0.2","3","4","3","2","1","4","2","3","4","5","5","0","1","1","0","1","2","1","0","3","5","5","4","5","4","4","5","4","5","6","8","5","7","8","6","7","6","8","5","4","5","4","3","2","5","1","6","3","1","4","3","6","2","3","4","5","4","5","2","3","6","2","3","4","5","2","5","5","7","5","3","4","5","2","6","3","7","2","4","796468599748435970","李","529","Female","[""好我"",""坏我"",""坏她"",""好她""]","[""强我"",""弱我"",""弱她"",""强她""]","","","","","","","","8","","","","","","","","","SRET","SRET_math_calculate","","key","8","16.975688073394817","853.3333333333334","476","","","","","2*4= ?","8","1","","","","","","","",""
"1853","","2","psychophysics","106","284706","0.0-7.0-5.0-0.3","3","4","3","2","1","4","2","3","4","5","5","0","1","1","0","1","2","1","0","3","5","5","4","5","4","4","5","4","5","6","8","5","7","8","6","7","6","8","5","4","5","4","3","2","5","1","6","3","1","4","3","6","2","3","4","5","4","5","2","3","6","2","3","4","5","2","5","5","7","5","3","4","5","2","6","3","7","2","4","796468599748435970","李","529","Female","[""好我"",""坏我"",""坏她"",""好她""]","[""强我"",""弱我"",""弱她"",""强她""]","","","","","","","","2","","","","","","","","","SRET","SRET_math_calculate","","key","2","16.671472727272405","853.3333333333334","476","","","","","19-17= ?","2","1","","","","","","","",""
"1802","","6","psychophysics","107","286511","0.0-7.0-5.0-0.4","3","4","3","2","1","4","2","3","4","5","5","0","1","1","0","1","2","1","0","3","5","5","4","5","4","4","5","4","5","6","8","5","7","8","6","7","6","8","5","4","5","4","3","2","5","1","6","3","1","4","3","6","2","3","4","5","4","5","2","3","6","2","3","4","5","2","5","5","7","5","3","4","5","2","6","3","7","2","4","796468599748435970","李","529","Female","[""好我"",""坏我"",""坏她"",""好她""]","[""强我"",""弱我"",""弱她"",""强她""]","","","","","","","","6","","","","","","","","","SRET","SRET_math_calculate","","key","6","16.670915887850473","853.3333333333334","476","","","","","11-5= ?","6","1","","","","","","","",""
"1833","","0","psychophysics","108","288354","0.0-7.0-5.0-0.5","3","4","3","2","1","4","2","3","4","5","5","0","1","1","0","1","2","1","0","3","5","5","4","5","4","4","5","4","5","6","8","5","7","8","6","7","6","8","5","4","5","4","3","2","5","1","6","3","1","4","3","6","2","3","4","5","4","5","2","3","6","2","3","4","5","2","5","5","7","5","3","4","5","2","6","3","7","2","4","796468599748435970","李","529","Female","[""好我"",""坏我"",""坏她"",""好她""]","[""强我"",""弱我"",""弱她"",""强她""]","","","","","","","","0","","","","","","","","","SRET","SRET_math_calculate","","key","0","16.67100909090897","853.3333333333334","476","","","","","6*0= ?","0","1","","","","","","","",""
"1790","","5","psychophysics","109","290148","0.0-7.0-5.0-0.6","3","4","3","2","1","4","2","3","4","5","5","0","1","1","0","1","2","1","0","3","5","5","4","5","4","4","5","4","5","6","8","5","7","8","6","7","6","8","5","4","5","4","3","2","5","1","6","3","1","4","3","6","2","3","4","5","4","5","2","3","6","2","3","4","5","2","5","5","7","5","3","4","5","2","6","3","7","2","4","796468599748435970","李","529","Female","[""好我"",""坏我"",""坏她"",""好她""]","[""强我"",""弱我"",""弱她"",""强她""]","","","","","","","","5","","","","","","","","","SRET","SRET_math_calculate","","key","5","16.670801886792276","853.3333333333334","476","","","","","17-12= ? ","5","1","","","","","","","",""
"1821","","5","psychophysics","110","291976","0.0-7.0-5.0-0.7","3","4","3","2","1","4","2","3","4","5","5","0","1","1","0","1","2","1","0","3","5","5","4","5","4","4","5","4","5","6","8","5","7","8","6","7","6","8","5","4","5","4","3","2","5","1","6","3","1","4","3","6","2","3","4","5","4","5","2","3","6","2","3","4","5","2","5","5","7","5","3","4","5","2","6","3","7","2","4","796468599748435970","李","529","Female","[""好我"",""坏我"",""坏她"",""好她""]","[""强我"",""弱我"",""弱她"",""强她""]","","","","","","","","5","","","","","","","","","SRET","SRET_math_calculate","","key","5","16.6708623853212","853.3333333333334","476","","","","","8-3= ? ","5","1","","","","","","","",""
"1770","","0","psychophysics","111","293749","0.0-7.0-5.0-0.8","3","4","3","2","1","4","2","3","4","5","5","0","1","1","0","1","2","1","0","3","5","5","4","5","4","4","5","4","5","6","8","5","7","8","6","7","6","8","5","4","5","4","3","2","5","1","6","3","1","4","3","6","2","3","4","5","4","5","2","3","6","2","3","4","5","2","5","5","7","5","3","4","5","2","6","3","7","2","4","796468599748435970","李","529","Female","[""好我"",""坏我"",""坏她"",""好她""]","[""强我"",""弱我"",""弱她"",""强她""]","","","","","","","","0","","","","","","","","","SRET","SRET_math_calculate","","key","0","16.671961904761737","853.3333333333334","476","","","","","12-12= ?","0","1","","","","","","","",""
"1796","","8","psychophysics","112","295553","0.0-7.0-5.0-0.9","3","4","3","2","1","4","2","3","4","5","5","0","1","1","0","1","2","1","0","3","5","5","4","5","4","4","5","4","5","6","8","5","7","8","6","7","6","8","5","4","5","4","3","2","5","1","6","3","1","4","3","6","2","3","4","5","4","5","2","3","6","2","3","4","5","2","5","5","7","5","3","4","5","2","6","3","7","2","4","796468599748435970","李","529","Female","[""好我"",""坏我"",""坏她"",""好她""]","[""强我"",""弱我"",""弱她"",""强她""]","","","","","","","","8","","","","","","","","","SRET","SRET_math_calculate","","key","8","16.671101851851777","853.3333333333334","476","","","","","7+1= ?","8","1","","","","","","","",""
"1669","","5","psychophysics","113","297226","0.0-7.0-5.0-0.10","3","4","3","2","1","4","2","3","4","5","5","0","1","1","0","1","2","1","0","3","5","5","4","5","4","4","5","4","5","6","8","5","7","8","6","7","6","8","5","4","5","4","3","2","5","1","6","3","1","4","3","6","2","3","4","5","4","5","2","3","6","2","3","4","5","2","5","5","7","5","3","4","5","2","6","3","7","2","4","796468599748435970","李","529","Female","[""好我"",""坏我"",""坏她"",""好她""]","[""强我"",""弱我"",""弱她"",""强她""]","","","","","","","","5","","","","","","","","","SRET","SRET_math_calculate","","key","5","16.670878787878358","853.3333333333334","476","","","","","10-5= ?","5","1","","","","","","","",""
"1899","","4","psychophysics","114","299129","0.0-7.0-5.0-0.11","3","4","3","2","1","4","2","3","4","5","5","0","1","1","0","1","2","1","0","3","5","5","4","5","4","4","5","4","5","6","8","5","7","8","6","7","6","8","5","4","5","4","3","2","5","1","6","3","1","4","3","6","2","3","4","5","4","5","2","3","6","2","3","4","5","2","5","5","7","5","3","4","5","2","6","3","7","2","4","796468599748435970","李","529","Female","[""好我"",""坏我"",""坏她"",""好她""]","[""强我"",""弱我"",""弱她"",""强她""]","","","","","","","","4","","","","","","","","","SRET","SRET_math_calculate","","key","4","16.671433628318354","853.3333333333334","476","","","","","20/5= ?","4","1","","","","","","","",""
"1689","","0","psychophysics","115","300820","0.0-7.0-5.0-0.12","3","4","3","2","1","4","2","3","4","5","5","0","1","1","0","1","2","1","0","3","5","5","4","5","4","4","5","4","5","6","8","5","7","8","6","7","6","8","5","4","5","4","3","2","5","1","6","3","1","4","3","6","2","3","4","5","4","5","2","3","6","2","3","4","5","2","5","5","7","5","3","4","5","2","6","3","7","2","4","796468599748435970","李","529","Female","[""好我"",""坏我"",""坏她"",""好她""]","[""强我"",""弱我"",""弱她"",""强她""]","","","","","","","","0","","","","","","","","","SRET","SRET_math_calculate","","key","0","16.671118811881147","853.3333333333334","476","","","","","22-22= ?","0","1","","","","","","","",""
"1727","","5","psychophysics","116","302550","0.0-7.0-5.0-0.13","3","4","3","2","1","4","2","3","4","5","5","0","1","1","0","1","2","1","0","3","5","5","4","5","4","4","5","4","5","6","8","5","7","8","6","7","6","8","5","4","5","4","3","2","5","1","6","3","1","4","3","6","2","3","4","5","4","5","2","3","6","2","3","4","5","2","5","5","7","5","3","4","5","2","6","3","7","2","4","796468599748435970","李","529","Female","[""好我"",""坏我"",""坏她"",""好她""]","[""强我"",""弱我"",""弱她"",""强她""]","","","","","","","","5","","","","","","","","","SRET","SRET_math_calculate","","key","5","16.670950980392494","853.3333333333334","476","","","","","3+2= ?","5","1","","","","","","","",""
"1659","","5","psychophysics","117","304213","0.0-7.0-5.0-0.14","3","4","3","2","1","4","2","3","4","5","5","0","1","1","0","1","2","1","0","3","5","5","4","5","4","4","5","4","5","6","8","5","7","8","6","7","6","8","5","4","5","4","3","2","5","1","6","3","1","4","3","6","2","3","4","5","4","5","2","3","6","2","3","4","5","2","5","5","7","5","3","4","5","2","6","3","7","2","4","796468599748435970","李","529","Female","[""好我"",""坏我"",""坏她"",""好她""]","[""强我"",""弱我"",""弱她"",""强她""]","","","","","","","","5","","","","","","","","","SRET","SRET_math_calculate","","key","5","16.67167676767661","853.3333333333334","476","","","","","15-10= ?","5","1","","","","","","","",""
"1887","","8","psychophysics","118","306104","0.0-7.0-5.0-0.15","3","4","3","2","1","4","2","3","4","5","5","0","1","1","0","1","2","1","0","3","5","5","4","5","4","4","5","4","5","6","8","5","7","8","6","7","6","8","5","4","5","4","3","2","5","1","6","3","1","4","3","6","2","3","4","5","4","5","2","3","6","2","3","4","5","2","5","5","7","5","3","4","5","2","6","3","7","2","4","796468599748435970","李","529","Female","[""好我"",""坏我"",""坏她"",""好她""]","[""强我"",""弱我"",""弱她"",""强她""]","","","","","","","","8","","","","","","","","","SRET","SRET_math_calculate","","key","8","16.67076991150409","853.3333333333334","476","","","","","1+7= ?","8","1","","","","","","","",""
"2295","","9","psychophysics","119","308403","0.0-7.0-5.0-0.16","3","4","3","2","1","4","2","3","4","5","5","0","1","1","0","1","2","1","0","3","5","5","4","5","4","4","5","4","5","6","8","5","7","8","6","7","6","8","5","4","5","4","3","2","5","1","6","3","1","4","3","6","2","3","4","5","4","5","2","3","6","2","3","4","5","2","5","5","7","5","3","4","5","2","6","3","7","2","4","796468599748435970","李","529","Female","[""好我"",""坏我"",""坏她"",""好她""]","[""强我"",""弱我"",""弱她"",""强她""]","","","","","","","","9","","","","","","","","","SRET","SRET_math_calculate","","key","9","16.67105882352959","853.3333333333334","476","","","","","18/2= ?","9","1","","","","","","","",""
"1776","","4","psychophysics","120","310185","0.0-7.0-5.0-0.17","3","4","3","2","1","4","2","3","4","5","5","0","1","1","0","1","2","1","0","3","5","5","4","5","4","4","5","4","5","6","8","5","7","8","6","7","6","8","5","4","5","4","3","2","5","1","6","3","1","4","3","6","2","3","4","5","4","5","2","3","6","2","3","4","5","2","5","5","7","5","3","4","5","2","6","3","7","2","4","796468599748435970","李","529","Female","[""好我"",""坏我"",""坏她"",""好她""]","[""强我"",""弱我"",""弱她"",""强她""]","","","","","","","","4","","","","","","","","","SRET","SRET_math_calculate","","key","4","16.6709999999999","853.3333333333334","476","","","","","2+2= ?","4","1","","","","","","","",""
"1977","","4","psychophysics","121","312167","0.0-7.0-5.0-0.18","3","4","3","2","1","4","2","3","4","5","5","0","1","1","0","1","2","1","0","3","5","5","4","5","4","4","5","4","5","6","8","5","7","8","6","7","6","8","5","4","5","4","3","2","5","1","6","3","1","4","3","6","2","3","4","5","4","5","2","3","6","2","3","4","5","2","5","5","7","5","3","4","5","2","6","3","7","2","4","796468599748435970","李","529","Female","[""好我"",""坏我"",""坏她"",""好她""]","[""强我"",""弱我"",""弱她"",""强她""]","","","","","","","","4","","","","","","","","","SRET","SRET_math_calculate","","key","4","16.671601694915346","853.3333333333334","476","","","","","8-4= ?","4","1","","","","","","","",""
"1742","","0","psychophysics","122","313917","0.0-7.0-5.0-0.19","3","4","3","2","1","4","2","3","4","5","5","0","1","1","0","1","2","1","0","3","5","5","4","5","4","4","5","4","5","6","8","5","7","8","6","7","6","8","5","4","5","4","3","2","5","1","6","3","1","4","3","6","2","3","4","5","4","5","2","3","6","2","3","4","5","2","5","5","7","5","3","4","5","2","6","3","7","2","4","796468599748435970","李","529","Female","[""好我"",""坏我"",""坏她"",""好她""]","[""强我"",""弱我"",""弱她"",""强她""]","","","","","","","","0","","","","","","","","","SRET","SRET_math_calculate","","key","0","16.833077669902636","853.3333333333334","476","","","","","5*0= ?","0","1","","","","","","","",""
"1808","","8","psychophysics","123","315733","0.0-7.0-5.0-0.20","3","4","3","2","1","4","2","3","4","5","5","0","1","1","0","1","2","1","0","3","5","5","4","5","4","4","5","4","5","6","8","5","7","8","6","7","6","8","5","4","5","4","3","2","5","1","6","3","1","4","3","6","2","3","4","5","4","5","2","3","6","2","3","4","5","2","5","5","7","5","3","4","5","2","6","3","7","2","4","796468599748435970","李","529","Female","[""好我"",""坏我"",""坏她"",""好她""]","[""强我"",""弱我"",""弱她"",""强她""]","","","","","","","","8","","","","","","","","","SRET","SRET_math_calculate","","key","8","16.67104629629628","853.3333333333334","476","","","","","1*8= ?","8","1","","","","","","","",""
"1812","","5","psychophysics","124","317548","0.0-7.0-5.0-0.21","3","4","3","2","1","4","2","3","4","5","5","0","1","1","0","1","2","1","0","3","5","5","4","5","4","4","5","4","5","6","8","5","7","8","6","7","6","8","5","4","5","4","3","2","5","1","6","3","1","4","3","6","2","3","4","5","4","5","2","3","6","2","3","4","5","2","5","5","7","5","3","4","5","2","6","3","7","2","4","796468599748435970","李","529","Female","[""好我"",""坏我"",""坏她"",""好她""]","[""强我"",""弱我"",""弱她"",""强她""]","","","","","","","","5","","","","","","","","","SRET","SRET_math_calculate","","key","5","16.671194444444456","853.3333333333334","476","","","","","2+3= ?","5","1","","","","","","","",""
"2100","","7","psychophysics","125","319654","0.0-7.0-5.0-0.22","3","4","3","2","1","4","2","3","4","5","5","0","1","1","0","1","2","1","0","3","5","5","4","5","4","4","5","4","5","6","8","5","7","8","6","7","6","8","5","4","5","4","3","2","5","1","6","3","1","4","3","6","2","3","4","5","4","5","2","3","6","2","3","4","5","2","5","5","7","5","3","4","5","2","6","3","7","2","4","796468599748435970","李","529","Female","[""好我"",""坏我"",""坏她"",""好她""]","[""强我"",""弱我"",""弱她"",""强她""]","","","","","","","","7","","","","","","","","","SRET","SRET_math_calculate","","key","7","16.670976000000255","853.3333333333334","476","","","","","6+1= ?","7","1","","","","","","","",""
"1762","","6","psychophysics","126","321420","0.0-7.0-5.0-0.23","3","4","3","2","1","4","2","3","4","5","5","0","1","1","0","1","2","1","0","3","5","5","4","5","4","4","5","4","5","6","8","5","7","8","6","7","6","8","5","4","5","4","3","2","5","1","6","3","1","4","3","6","2","3","4","5","4","5","2","3","6","2","3","4","5","2","5","5","7","5","3","4","5","2","6","3","7","2","4","796468599748435970","李","529","Female","[""好我"",""坏我"",""坏她"",""好她""]","[""强我"",""弱我"",""弱她"",""强她""]","","","","","","","","6","","","","","","","","","SRET","SRET_math_calculate","","key","6","16.671142857143145","853.3333333333334","476","","","","","8-2= ?","6","1","","","","","","","",""
"1671","","9","psychophysics","127","323098","0.0-7.0-5.0-0.24","3","4","3","2","1","4","2","3","4","5","5","0","1","1","0","1","2","1","0","3","5","5","4","5","4","4","5","4","5","6","8","5","7","8","6","7","6","8","5","4","5","4","3","2","5","1","6","3","1","4","3","6","2","3","4","5","4","5","2","3","6","2","3","4","5","2","5","5","7","5","3","4","5","2","6","3","7","2","4","796468599748435970","李","529","Female","[""好我"",""坏我"",""坏她"",""好她""]","[""强我"",""弱我"",""弱她"",""强她""]","","","","","","","","9","","","","","","","","","SRET","SRET_math_calculate","","key","9","16.67081999999995","853.3333333333334","476","","","","","1*9= ?","9","1","","","","","","","",""
"1739","","9","psychophysics","128","324844","0.0-7.0-5.0-0.25","3","4","3","2","1","4","2","3","4","5","5","0","1","1","0","1","2","1","0","3","5","5","4","5","4","4","5","4","5","6","8","5","7","8","6","7","6","8","5","4","5","4","3","2","5","1","6","3","1","4","3","6","2","3","4","5","4","5","2","3","6","2","3","4","5","2","5","5","7","5","3","4","5","2","6","3","7","2","4","796468599748435970","李","529","Female","[""好我"",""坏我"",""坏她"",""好她""]","[""强我"",""弱我"",""弱她"",""强她""]","","","","","","","","9","","","","","","","","","SRET","SRET_math_calculate","","key","9","16.671038461538465","853.3333333333334","476","","","","","7+2= ?","9","1","","","","","","","",""
"1845","","7","psychophysics","129","326694","0.0-7.0-5.0-0.26","3","4","3","2","1","4","2","3","4","5","5","0","1","1","0","1","2","1","0","3","5","5","4","5","4","4","5","4","5","6","8","5","7","8","6","7","6","8","5","4","5","4","3","2","5","1","6","3","1","4","3","6","2","3","4","5","4","5","2","3","6","2","3","4","5","2","5","5","7","5","3","4","5","2","6","3","7","2","4","796468599748435970","李","529","Female","[""好我"",""坏我"",""坏她"",""好她""]","[""强我"",""弱我"",""弱她"",""强她""]","","","","","","","","7","","","","","","","","","SRET","SRET_math_calculate","","key","7","16.670999999999978","853.3333333333334","476","","","","","9-2= ?","7","1","","","","","","","",""
"1735","","6","psychophysics","130","328434","0.0-7.0-5.0-0.27","3","4","3","2","1","4","2","3","4","5","5","0","1","1","0","1","2","1","0","3","5","5","4","5","4","4","5","4","5","6","8","5","7","8","6","7","6","8","5","4","5","4","3","2","5","1","6","3","1","4","3","6","2","3","4","5","4","5","2","3","6","2","3","4","5","2","5","5","7","5","3","4","5","2","6","3","7","2","4","796468599748435970","李","529","Female","[""好我"",""坏我"",""坏她"",""好她""]","[""强我"",""弱我"",""弱她"",""强她""]","","","","","","","","6","","","","","","","","","SRET","SRET_math_calculate","","key","6","16.671106796116607","853.3333333333334","476","","","","","5+1= ?","6","1","","","","","","","",""
"1904","","7","psychophysics","131","330341","0.0-7.0-5.0-0.28","3","4","3","2","1","4","2","3","4","5","5","0","1","1","0","1","2","1","0","3","5","5","4","5","4","4","5","4","5","6","8","5","7","8","6","7","6","8","5","4","5","4","3","2","5","1","6","3","1","4","3","6","2","3","4","5","4","5","2","3","6","2","3","4","5","2","5","5","7","5","3","4","5","2","6","3","7","2","4","796468599748435970","李","529","Female","[""好我"",""坏我"",""坏她"",""好她""]","[""强我"",""弱我"",""弱她"",""强她""]","","","","","","","","7","","","","","","","","","SRET","SRET_math_calculate","","key","7","16.67161061946896","853.3333333333334","476","","","","","3+4= ?","7","1","","","","","","","",""
"1811","","9","psychophysics","132","332158","0.0-7.0-5.0-0.29","3","4","3","2","1","4","2","3","4","5","5","0","1","1","0","1","2","1","0","3","5","5","4","5","4","4","5","4","5","6","8","5","7","8","6","7","6","8","5","4","5","4","3","2","5","1","6","3","1","4","3","6","2","3","4","5","4","5","2","3","6","2","3","4","5","2","5","5","7","5","3","4","5","2","6","3","7","2","4","796468599748435970","李","529","Female","[""好我"",""坏我"",""坏她"",""好她""]","[""强我"",""弱我"",""弱她"",""强她""]","","","","","","","","9","","","","","","","","","SRET","SRET_math_calculate","","key","9","16.671175925926136","853.3333333333334","476","","","","","81/9= ?","9","1","","","","","","","",""
"1999","","1","psychophysics","133","334165","0.0-7.0-5.0-0.30","3","4","3","2","1","4","2","3","4","5","5","0","1","1","0","1","2","1","0","3","5","5","4","5","4","4","5","4","5","6","8","5","7","8","6","7","6","8","5","4","5","4","3","2","5","1","6","3","1","4","3","6","2","3","4","5","4","5","2","3","6","2","3","4","5","2","5","5","7","5","3","4","5","2","6","3","7","2","4","796468599748435970","李","529","Female","[""好我"",""坏我"",""坏她"",""好她""]","[""强我"",""弱我"",""弱她"",""强她""]","","","","","","","","1","","","","","","","","","SRET","SRET_math_calculate","","key","1","16.671100000000056","853.3333333333334","476","","","","","4/4= ?","1","1","","","","","","","",""
"2005","","8","psychophysics","134","336173","0.0-7.0-5.0-0.31","3","4","3","2","1","4","2","3","4","5","5","0","1","1","0","1","2","1","0","3","5","5","4","5","4","4","5","4","5","6","8","5","7","8","6","7","6","8","5","4","5","4","3","2","5","1","6","3","1","4","3","6","2","3","4","5","4","5","2","3","6","2","3","4","5","2","5","5","7","5","3","4","5","2","6","3","7","2","4","796468599748435970","李","529","Female","[""好我"",""坏我"",""坏她"",""好她""]","[""强我"",""弱我"",""弱她"",""强她""]","","","","","","","","8","","","","","","","","","SRET","SRET_math_calculate","","key","8","16.671033613445402","853.3333333333334","476","","","","","12-5= ?","7","0","","","","","","","",""
"1906","","3","psychophysics","135","338090","0.0-7.0-5.0-0.32","3","4","3","2","1","4","2","3","4","5","5","0","1","1","0","1","2","1","0","3","5","5","4","5","4","4","5","4","5","6","8","5","7","8","6","7","6","8","5","4","5","4","3","2","5","1","6","3","1","4","3","6","2","3","4","5","4","5","2","3","6","2","3","4","5","2","5","5","7","5","3","4","5","2","6","3","7","2","4","796468599748435970","李","529","Female","[""好我"",""坏我"",""坏她"",""好她""]","[""强我"",""弱我"",""弱她"",""强她""]","","","","","","","","3","","","","","","","","","SRET","SRET_math_calculate","","key","3","16.67111403508808","853.3333333333334","476","","","","","1+2= ?","3","1","","","","","","","",""
"1924","","0","psychophysics","136","340017","0.0-7.0-5.0-0.33","3","4","3","2","1","4","2","3","4","5","5","0","1","1","0","1","2","1","0","3","5","5","4","5","4","4","5","4","5","6","8","5","7","8","6","7","6","8","5","4","5","4","3","2","5","1","6","3","1","4","3","6","2","3","4","5","4","5","2","3","6","2","3","4","5","2","5","5","7","5","3","4","5","2","6","3","7","2","4","796468599748435970","李","529","Female","[""好我"",""坏我"",""坏她"",""好她""]","[""强我"",""弱我"",""弱她"",""强她""]","","","","","","","","0","","","","","","","","","SRET","SRET_math_calculate","","key","0","16.670904347826422","853.3333333333334","476","","","","","32-32= ?","0","1","","","","","","","",""
"1877","","9","psychophysics","137","341901","0.0-7.0-5.0-0.34","3","4","3","2","1","4","2","3","4","5","5","0","1","1","0","1","2","1","0","3","5","5","4","5","4","4","5","4","5","6","8","5","7","8","6","7","6","8","5","4","5","4","3","2","5","1","6","3","1","4","3","6","2","3","4","5","4","5","2","3","6","2","3","4","5","2","5","5","7","5","3","4","5","2","6","3","7","2","4","796468599748435970","李","529","Female","[""好我"",""坏我"",""坏她"",""好她""]","[""强我"",""弱我"",""弱她"",""强她""]","","","","","","","","9","","","","","","","","","SRET","SRET_math_calculate","","key","9","16.671187500000087","853.3333333333334","476","","","","","43-34= ?","9","1","","","","","","","",""
"1945","","8","psychophysics","138","343851","0.0-7.0-5.0-0.35","3","4","3","2","1","4","2","3","4","5","5","0","1","1","0","1","2","1","0","3","5","5","4","5","4","4","5","4","5","6","8","5","7","8","6","7","6","8","5","4","5","4","3","2","5","1","6","3","1","4","3","6","2","3","4","5","4","5","2","3","6","2","3","4","5","2","5","5","7","5","3","4","5","2","6","3","7","2","4","796468599748435970","李","529","Female","[""好我"",""坏我"",""坏她"",""好她""]","[""强我"",""弱我"",""弱她"",""强她""]","","","","","","","","8","","","","","","","","","SRET","SRET_math_calculate","","key","8","16.671284482758672","853.3333333333334","476","","","","","50-42= ?","8","1","","","","","","","",""
"1804","","9","psychophysics","139","345662","0.0-7.0-5.0-0.36","3","4","3","2","1","4","2","3","4","5","5","0","1","1","0","1","2","1","0","3","5","5","4","5","4","4","5","4","5","6","8","5","7","8","6","7","6","8","5","4","5","4","3","2","5","1","6","3","1","4","3","6","2","3","4","5","4","5","2","3","6","2","3","4","5","2","5","5","7","5","3","4","5","2","6","3","7","2","4","796468599748435970","李","529","Female","[""好我"",""坏我"",""坏她"",""好她""]","[""强我"",""弱我"",""弱她"",""强她""]","","","","","","","","9","","","","","","","","","SRET","SRET_math_calculate","","key","9","16.6711495327105","853.3333333333334","476","","","","","32-23= ?","9","1","","","","","","","",""
