"rt","stimulus","response","trial_type","trial_index","time_elapsed","internal_node_id","swb_1","swb_2","swb_3","swb_4","swb_5","LOT_1","LOT_2","LOT_3","LOT_4","LOT_5","LOT_6","IPC_1","IPC_2","IPC_3","IPC_4","IPC_5","IPC_6","IPC_7","IPC_8","MorIden_1","MorIden_2","MorIden_3","MorIden_4","MorIden_5","MorIden_6","MorIden_7","MorIden_8","MorIden_9","MorIden_10","moralSeImag_1","moralSeImag_2","moralSeImag_3","moralSeImag_4","moralSeImag_5","moralSeImag_6","moralSeImag_7","moralSeImag_8","moralSeImag_9","sde_1","sde_2","sde_3","sde_4","sde_5","sde_6","sde_7","sde_8","sde_9","sde_10","trap2","sde_11","sde_12","sde_13","sde_14","sde_15","sde_16","sde_17","sde_18","sde_19","sde_20","IM_1","IM_2","IM_3","IM_4","IM_5","IM_6","IM_7","IM_8","IM_9","IM_10","IM_11","IM_12","IM_13","IM_14","IM_15","IM_16","IM_17","IM_18","IM_19","IM_20","subj_idx","friend_name","ParticipantID","Sex","Word","Word2","value","success","timeout","failed_images","failed_audio","failed_video","user_agent","responses","item_order","radio_event_ids","radio_event_times","key_event_times","mouse_event_times","straightlining","zigzagging","honeypot","view_history","response_type","key_press","avg_frame_time","center_x","center_y","correct_response","correct","identity","Image","word","condition","task_id","screen_id","time_stamp","person","valence","domain","math","status","duration","question_order","trap2_item"
"30899","
   <p><div style='color:white; font-size: 25px'>您好，欢迎参加本次实验。</div></p>
   <p><div style='color:white; font-size: 25px'>为充分保障您的权利，请确保您已经知晓并同意《参与实验同意书》以及《数据公开知情同意书》。</div></p>
   <p><div style='color:white; font-size: 25px'>如果您未见过上述内容，请咨询实验员。</div></p>
   <p style='color:white; font-size: 25px'>如果您选择继续实验，则表示您已经清楚两份知情同意书的内容并同意。</p>
   <p><div style = ""color: pink;font-size:30px;"">请确保您记得day0的实验编号，您将在本次实验输入该编号，若您忘记，请咨询实验员后作答。</div></p>
   <p><div style = ""color:lightblue;font-size:25px;"">请您尽可能认真地作答，我们将依据您在各问卷和按键任务中的作答质量发放报酬。</div></p>
   <p> <div style = ""color: green""><按空格键至下页></div> </p>
   "," ","html-keyboard-response","0","30901","0.0-0.0","7","7","7","7","7","5","5","5","5","5","5","2","2","2","1","2","2","2","2","5","5","5","5","5","4","5","5","5","5","7","7","8","7","7","6","8","8","8","7","7","7","7","7","6","7","1","7","7","1","7","7","7","7","6","7","7","7","7","7","7","7","7","7","7","7","7","7","7","7","7","7","7","7","7","7","7","7","6","7","621680854329982976","胡","569","Male","[""好他"",""坏他"",""坏我"",""好我""]","[""强他"",""弱他"",""弱我"",""强我""]","","","","","","","","","","","","","","","","","","","","","","","","","","","","","","","","","","","","","","",""
"","","","call-function","1","30901","0.0-1.0-0.0","7","7","7","7","7","5","5","5","5","5","5","2","2","2","1","2","2","2","2","5","5","5","5","5","4","5","5","5","5","7","7","8","7","7","6","8","8","8","7","7","7","7","7","6","7","1","7","7","1","7","7","7","7","6","7","7","7","7","7","7","7","7","7","7","7","7","7","7","7","7","7","7","7","7","7","7","7","6","7","621680854329982976","胡","569","Male","[""好他"",""坏他"",""坏我"",""好我""]","[""强他"",""弱他"",""弱我"",""强我""]","","","","","","","","","","","","","","","","","","","","","","","","","","","","","","","","","","","","","","",""
"16182","","[{""name"":""Sex"",""value"":""0""},{""name"":""friend_name"",""value"":""胡""},{""name"":""ParticipantID"",""value"":""569""}]","survey-html-form","2","47084","0.0-1.0-1.0","7","7","7","7","7","5","5","5","5","5","5","2","2","2","1","2","2","2","2","5","5","5","5","5","4","5","5","5","5","7","7","8","7","7","6","8","8","8","7","7","7","7","7","6","7","1","7","7","1","7","7","7","7","6","7","7","7","7","7","7","7","7","7","7","7","7","7","7","7","7","7","7","7","7","7","7","7","6","7","621680854329982976","胡","569","Male","[""好他"",""坏他"",""坏我"",""好我""]","[""强他"",""弱他"",""弱我"",""强我""]","","","","","","","","","","","","","","","","","","","","","","","","","","","","","","","","","","","","","","",""
"","","","preload","3","47378","0.0-2.0","7","7","7","7","7","5","5","5","5","5","5","2","2","2","1","2","2","2","2","5","5","5","5","5","4","5","5","5","5","7","7","8","7","7","6","8","8","8","7","7","7","7","7","6","7","1","7","7","1","7","7","7","7","6","7","7","7","7","7","7","7","7","7","7","7","7","7","7","7","7","7","7","7","7","7","7","7","6","7","621680854329982976","胡","569","Male","[""好他"",""坏他"",""坏我"",""好我""]","[""强他"",""弱他"",""弱我"",""强我""]","","true","false","[]","[]","[]","","","","","","","","","","","","","","","","","","","","","","","","","","","","","","","","",""
"","","","fullscreen","4","51673","0.0-3.0","7","7","7","7","7","5","5","5","5","5","5","2","2","2","1","2","2","2","2","5","5","5","5","5","4","5","5","5","5","7","7","8","7","7","6","8","8","8","7","7","7","7","7","6","7","1","7","7","1","7","7","7","7","6","7","7","7","7","7","7","7","7","7","7","7","7","7","7","7","7","7","7","7","7","7","7","7","6","7","621680854329982976","胡","569","Male","[""好他"",""坏他"",""坏我"",""好我""]","[""强他"",""弱他"",""弱我"",""强我""]","","true","","","","","{}","","","","","","","","","","","","","","","","","","","","","","","","","","","","","","","",""
"4722.5","","{""Q01"":""7"",""Q02"":""7"",""Q03"":""7"",""Q04"":""7"",""Q05"":""7""}","survey-template","5","56398","0.0-4.0","7","7","7","7","7","5","5","5","5","5","5","2","2","2","1","2","2","2","2","5","5","5","5","5","4","5","5","5","5","7","7","8","7","7","6","8","8","8","7","7","7","7","7","6","7","1","7","7","1","7","7","7","7","6","7","7","7","7","7","7","7","7","7","7","7","7","7","7","7","7","7","7","7","7","7","7","7","6","7","621680854329982976","胡","569","Male","[""好他"",""坏他"",""坏我"",""好我""]","[""强他"",""弱他"",""弱我"",""强我""]","","","","","","","","{""Q01"":""7"",""Q02"":""7"",""Q03"":""7"",""Q04"":""7"",""Q05"":""7""}","[0,1,2,3,4]","[""Q01"",""Q02"",""Q03"",""Q04"",""Q05""]","[1537.2999997138977,2209.5,2657.3999996185303,3457.3999996185303,4122.099999904633]","[]","[1537.2999997138977,2209.5,2657.3999996185303,3457.3999996185303,4122.099999904633,4721.299999713898]","1","0","0","","","","","","","","","","","","","","","","","","","","","","",""
"51339.800000190735","","{""Q01"":""5"",""Q02"":""5"",""Q03"":""5"",""Q04"":""5"",""Q05"":""5"",""Q06"":""5""}","survey-template","6","107741","0.0-5.0","7","7","7","7","7","5","5","5","5","5","5","2","2","2","1","2","2","2","2","5","5","5","5","5","4","5","5","5","5","7","7","8","7","7","6","8","8","8","7","7","7","7","7","6","7","1","7","7","1","7","7","7","7","6","7","7","7","7","7","7","7","7","7","7","7","7","7","7","7","7","7","7","7","7","7","7","7","6","7","621680854329982976","胡","569","Male","[""好他"",""坏他"",""坏我"",""好我""]","[""强他"",""弱他"",""弱我"",""强我""]","","","","","","","","{""Q01"":""5"",""Q02"":""5"",""Q03"":""5"",""Q04"":""5"",""Q05"":""5"",""Q06"":""5""}","[0,1,2,3,4,5]","[""Q03"",""Q04"",""Q06"",""Q05"",""Q02"",""Q01""]","[2010.5999999046326,3674.699999809265,5698.599999904633,6866.5,8074.699999809265,9890.699999809265]","[]","[2010.5999999046326,3115.0999999046326,3674.699999809265,4186.699999809265,5698.599999904633,6866.5,8074.699999809265,9890.699999809265,51338.90000009537]","0.5","0.8","0","","","","","","","","","","","","","","","","","","","","","","",""
"13230.699999809265","","{""Q01"":""2"",""Q02"":""2"",""Q03"":""2"",""Q04"":""1"",""Q05"":""2"",""Q06"":""2"",""Q07"":""2"",""Q08"":""2""}","survey-template","7","120976","0.0-6.0","7","7","7","7","7","5","5","5","5","5","5","2","2","2","1","2","2","2","2","5","5","5","5","5","4","5","5","5","5","7","7","8","7","7","6","8","8","8","7","7","7","7","7","6","7","1","7","7","1","7","7","7","7","6","7","7","7","7","7","7","7","7","7","7","7","7","7","7","7","7","7","7","7","7","7","7","7","6","7","621680854329982976","胡","569","Male","[""好他"",""坏他"",""坏我"",""好我""]","[""强他"",""弱他"",""弱我"",""强我""]","","","","","","","","{""Q01"":""2"",""Q02"":""2"",""Q03"":""2"",""Q04"":""1"",""Q05"":""2"",""Q06"":""2"",""Q07"":""2"",""Q08"":""2""}","[0,1,2,3,4,5,6,7]","[""Q01"",""Q02"",""Q03"",""Q04"",""Q05"",""Q06"",""Q07"",""Q08"",""Q04""]","[1660.3999996185303,2467.3999996185303,3251.5999999046326,3892.0999999046326,5131.39999961853,5643.39999961853,6035.5,6731.5,12459.799999713898]","[]","[1660.3999996185303,2131.5,2467.3999996185303,2939.5,3251.5999999046326,3892.0999999046326,4427.5,4843.39999961853,5131.39999961853,5643.39999961853,6035.5,6731.5,12459.799999713898,13229]","0.875","0.2857142857142857","0","","","","","","","","","","","","","","","","","","","","","","",""
"32274","","","instructions","8","153253","0.0-7.0","7","7","7","7","7","5","5","5","5","5","5","2","2","2","1","2","2","2","2","5","5","5","5","5","4","5","5","5","5","7","7","8","7","7","6","8","8","8","7","7","7","7","7","6","7","1","7","7","1","7","7","7","7","6","7","7","7","7","7","7","7","7","7","7","7","7","7","7","7","7","7","7","7","7","7","7","7","6","7","621680854329982976","胡","569","Male","[""好他"",""坏他"",""坏我"",""好我""]","[""强他"",""弱他"",""弱我"",""强我""]","","","","","","","","","","","","","","","","","[{""page_index"":0,""viewing_time"":32274}]","","","","","","","","","","","","","","","","","","","","","",""
"176134","","","instructions","9","329388","0.0-8.0-1.0-0.0","7","7","7","7","7","5","5","5","5","5","5","2","2","2","1","2","2","2","2","5","5","5","5","5","4","5","5","5","5","7","7","8","7","7","6","8","8","8","7","7","7","7","7","6","7","1","7","7","1","7","7","7","7","6","7","7","7","7","7","7","7","7","7","7","7","7","7","7","7","7","7","7","7","7","7","7","7","6","7","621680854329982976","胡","569","Male","[""好他"",""坏他"",""坏我"",""好我""]","[""强他"",""弱他"",""弱我"",""强我""]","","","","","","","","","","","","","","","","","[{""page_index"":0,""viewing_time"":3542},{""page_index"":1,""viewing_time"":171104},{""page_index"":2,""viewing_time"":768},{""page_index"":3,""viewing_time"":720}]","","","","","","","","","","","","","","","","","","","","","",""
"819","","j","psychophysics","10","331213","0.0-8.0-1.0-1.0-0.0-0.0","7","7","7","7","7","5","5","5","5","5","5","2","2","2","1","2","2","2","2","5","5","5","5","5","4","5","5","5","5","7","7","8","7","7","6","8","8","8","7","7","7","7","7","6","7","1","7","7","1","7","7","7","7","6","7","7","7","7","7","7","7","7","7","7","7","7","7","7","7","7","7","7","7","7","7","7","7","6","7","621680854329982976","胡","569","Male","[""好他"",""坏他"",""坏我"",""好我""]","[""强他"",""弱他"",""弱我"",""强我""]","","","","","","","","match","","","","","","","","","","key","j","16.663888888888458","768","428","j","true","match","img/circle.png","强他","强他","prac_ALT2_ability","practice_ability","","","","","","","","",""
"null","<span style='color:GreenYellow; font-size: 70px;'>正确! </span>","null","html-keyboard-response","11","331713","0.0-8.0-1.0-1.0-0.0-1.0","7","7","7","7","7","5","5","5","5","5","5","2","2","2","1","2","2","2","2","5","5","5","5","5","4","5","5","5","5","7","7","8","7","7","6","8","8","8","7","7","7","7","7","6","7","1","7","7","1","7","7","7","7","6","7","7","7","7","7","7","7","7","7","7","7","7","7","7","7","7","7","7","7","7","7","7","7","6","7","621680854329982976","胡","569","Male","[""好他"",""坏他"",""坏我"",""好我""]","[""强他"",""弱他"",""弱我"",""强我""]","","","","","","","","","","","","","","","","","","","","","","","","","","","","","","feedback_test","","","","","","","","",""
"707","","f","psychophysics","12","333421","0.0-8.0-1.0-1.0-0.0-0.1","7","7","7","7","7","5","5","5","5","5","5","2","2","2","1","2","2","2","2","5","5","5","5","5","4","5","5","5","5","7","7","8","7","7","6","8","8","8","7","7","7","7","7","6","7","1","7","7","1","7","7","7","7","6","7","7","7","7","7","7","7","7","7","7","7","7","7","7","7","7","7","7","7","7","7","7","7","6","7","621680854329982976","胡","569","Male","[""好他"",""坏他"",""坏我"",""好我""]","[""强他"",""弱他"",""弱我"",""强我""]","","","","","","","","nonmatch","","","","","","","","","","key","f","16.664356435643334","768","428","f","true","nonmatch","img/circle.png","强我","强他","prac_ALT2_ability","practice_ability","","","","","","","","",""
"null","<span style='color:GreenYellow; font-size: 70px;'>正确! </span>","null","html-keyboard-response","13","333922","0.0-8.0-1.0-1.0-0.0-1.1","7","7","7","7","7","5","5","5","5","5","5","2","2","2","1","2","2","2","2","5","5","5","5","5","4","5","5","5","5","7","7","8","7","7","6","8","8","8","7","7","7","7","7","6","7","1","7","7","1","7","7","7","7","6","7","7","7","7","7","7","7","7","7","7","7","7","7","7","7","7","7","7","7","7","7","7","7","6","7","621680854329982976","胡","569","Male","[""好他"",""坏他"",""坏我"",""好我""]","[""强他"",""弱他"",""弱我"",""强我""]","","","","","","","","","","","","","","","","","","","","","","","","","","","","","","feedback_test","","","","","","","","",""
"784","","f","psychophysics","14","335708","0.0-8.0-1.0-1.0-0.0-0.2","7","7","7","7","7","5","5","5","5","5","5","2","2","2","1","2","2","2","2","5","5","5","5","5","4","5","5","5","5","7","7","8","7","7","6","8","8","8","7","7","7","7","7","6","7","1","7","7","1","7","7","7","7","6","7","7","7","7","7","7","7","7","7","7","7","7","7","7","7","7","7","7","7","7","7","7","7","6","7","621680854329982976","胡","569","Male","[""好他"",""坏他"",""坏我"",""好我""]","[""强他"",""弱他"",""弱我"",""强我""]","","","","","","","","nonmatch","","","","","","","","","","key","f","16.666037735848835","768","428","f","true","nonmatch","img/triangle.png","弱我","弱他","prac_ALT2_ability","practice_ability","","","","","","","","",""
"null","<span style='color:GreenYellow; font-size: 70px;'>正确! </span>","null","html-keyboard-response","15","336210","0.0-8.0-1.0-1.0-0.0-1.2","7","7","7","7","7","5","5","5","5","5","5","2","2","2","1","2","2","2","2","5","5","5","5","5","4","5","5","5","5","7","7","8","7","7","6","8","8","8","7","7","7","7","7","6","7","1","7","7","1","7","7","7","7","6","7","7","7","7","7","7","7","7","7","7","7","7","7","7","7","7","7","7","7","7","7","7","7","6","7","621680854329982976","胡","569","Male","[""好他"",""坏他"",""坏我"",""好我""]","[""强他"",""弱他"",""弱我"",""强我""]","","","","","","","","","","","","","","","","","","","","","","","","","","","","","","feedback_test","","","","","","","","",""
"609","","j","psychophysics","16","337820","0.0-8.0-1.0-1.0-0.0-0.3","7","7","7","7","7","5","5","5","5","5","5","2","2","2","1","2","2","2","2","5","5","5","5","5","4","5","5","5","5","7","7","8","7","7","6","8","8","8","7","7","7","7","7","6","7","1","7","7","1","7","7","7","7","6","7","7","7","7","7","7","7","7","7","7","7","7","7","7","7","7","7","7","7","7","7","7","7","6","7","621680854329982976","胡","569","Male","[""好他"",""坏他"",""坏我"",""好我""]","[""强他"",""弱他"",""弱我"",""强我""]","","","","","","","","match","","","","","","","","","","key","j","16.663541666666788","768","428","j","true","match","img/pentagon.png","强我","强我","prac_ALT2_ability","practice_ability","","","","","","","","",""
"null","<span style='color:GreenYellow; font-size: 70px;'>正确! </span>","null","html-keyboard-response","17","338321","0.0-8.0-1.0-1.0-0.0-1.3","7","7","7","7","7","5","5","5","5","5","5","2","2","2","1","2","2","2","2","5","5","5","5","5","4","5","5","5","5","7","7","8","7","7","6","8","8","8","7","7","7","7","7","6","7","1","7","7","1","7","7","7","7","6","7","7","7","7","7","7","7","7","7","7","7","7","7","7","7","7","7","7","7","7","7","7","7","6","7","621680854329982976","胡","569","Male","[""好他"",""坏他"",""坏我"",""好我""]","[""强他"",""弱他"",""弱我"",""强我""]","","","","","","","","","","","","","","","","","","","","","","","","","","","","","","feedback_test","","","","","","","","",""
"962","","j","psychophysics","18","340285","0.0-8.0-1.0-1.0-0.0-0.4","7","7","7","7","7","5","5","5","5","5","5","2","2","2","1","2","2","2","2","5","5","5","5","5","4","5","5","5","5","7","7","8","7","7","6","8","8","8","7","7","7","7","7","6","7","1","7","7","1","7","7","7","7","6","7","7","7","7","7","7","7","7","7","7","7","7","7","7","7","7","7","7","7","7","7","7","7","6","7","621680854329982976","胡","569","Male","[""好他"",""坏他"",""坏我"",""好我""]","[""强他"",""弱他"",""弱我"",""强我""]","","","","","","","","match","","","","","","","","","","key","j","16.664957264957664","768","428","f","false","nonmatch","img/circle.png","弱他","强他","prac_ALT2_ability","practice_ability","","","","","","","","",""
"null","<span style='color:red; font-size: 70px;'>错误! </span>","null","html-keyboard-response","19","340786","0.0-8.0-1.0-1.0-0.0-1.4","7","7","7","7","7","5","5","5","5","5","5","2","2","2","1","2","2","2","2","5","5","5","5","5","4","5","5","5","5","7","7","8","7","7","6","8","8","8","7","7","7","7","7","6","7","1","7","7","1","7","7","7","7","6","7","7","7","7","7","7","7","7","7","7","7","7","7","7","7","7","7","7","7","7","7","7","7","6","7","621680854329982976","胡","569","Male","[""好他"",""坏他"",""坏我"",""好我""]","[""强他"",""弱他"",""弱我"",""强我""]","","","","","","","","","","","","","","","","","","","","","","","","","","","","","","feedback_test","","","","","","","","",""
"841","","j","psychophysics","20","342628","0.0-8.0-1.0-1.0-0.0-0.5","7","7","7","7","7","5","5","5","5","5","5","2","2","2","1","2","2","2","2","5","5","5","5","5","4","5","5","5","5","7","7","8","7","7","6","8","8","8","7","7","7","7","7","6","7","1","7","7","1","7","7","7","7","6","7","7","7","7","7","7","7","7","7","7","7","7","7","7","7","7","7","7","7","7","7","7","7","6","7","621680854329982976","胡","569","Male","[""好他"",""坏他"",""坏我"",""好我""]","[""强他"",""弱他"",""弱我"",""强我""]","","","","","","","","match","","","","","","","","","","key","j","16.666055045871346","768","428","f","false","nonmatch","img/pentagon.png","弱他","强我","prac_ALT2_ability","practice_ability","","","","","","","","",""
"null","<span style='color:red; font-size: 70px;'>错误! </span>","null","html-keyboard-response","21","343129","0.0-8.0-1.0-1.0-0.0-1.5","7","7","7","7","7","5","5","5","5","5","5","2","2","2","1","2","2","2","2","5","5","5","5","5","4","5","5","5","5","7","7","8","7","7","6","8","8","8","7","7","7","7","7","6","7","1","7","7","1","7","7","7","7","6","7","7","7","7","7","7","7","7","7","7","7","7","7","7","7","7","7","7","7","7","7","7","7","6","7","621680854329982976","胡","569","Male","[""好他"",""坏他"",""坏我"",""好我""]","[""强他"",""弱他"",""弱我"",""强我""]","","","","","","","","","","","","","","","","","","","","","","","","","","","","","","feedback_test","","","","","","","","",""
"834","","f","psychophysics","22","344964","0.0-8.0-1.0-1.0-0.0-0.6","7","7","7","7","7","5","5","5","5","5","5","2","2","2","1","2","2","2","2","5","5","5","5","5","4","5","5","5","5","7","7","8","7","7","6","8","8","8","7","7","7","7","7","6","7","1","7","7","1","7","7","7","7","6","7","7","7","7","7","7","7","7","7","7","7","7","7","7","7","7","7","7","7","7","7","7","7","6","7","621680854329982976","胡","569","Male","[""好他"",""坏他"",""坏我"",""好我""]","[""强他"",""弱他"",""弱我"",""强我""]","","","","","","","","nonmatch","","","","","","","","","","key","f","16.67155963302763","768","428","f","true","nonmatch","img/trapezoid.png","强我","弱我","prac_ALT2_ability","practice_ability","","","","","","","","",""
"null","<span style='color:GreenYellow; font-size: 70px;'>正确! </span>","null","html-keyboard-response","23","345465","0.0-8.0-1.0-1.0-0.0-1.6","7","7","7","7","7","5","5","5","5","5","5","2","2","2","1","2","2","2","2","5","5","5","5","5","4","5","5","5","5","7","7","8","7","7","6","8","8","8","7","7","7","7","7","6","7","1","7","7","1","7","7","7","7","6","7","7","7","7","7","7","7","7","7","7","7","7","7","7","7","7","7","7","7","7","7","7","7","6","7","621680854329982976","胡","569","Male","[""好他"",""坏他"",""坏我"",""好我""]","[""强他"",""弱他"",""弱我"",""强我""]","","","","","","","","","","","","","","","","","","","","","","","","","","","","","","feedback_test","","","","","","","","",""
"785","","j","psychophysics","24","347252","0.0-8.0-1.0-1.0-0.0-0.7","7","7","7","7","7","5","5","5","5","5","5","2","2","2","1","2","2","2","2","5","5","5","5","5","4","5","5","5","5","7","7","8","7","7","6","8","8","8","7","7","7","7","7","6","7","1","7","7","1","7","7","7","7","6","7","7","7","7","7","7","7","7","7","7","7","7","7","7","7","7","7","7","7","7","7","7","7","6","7","621680854329982976","胡","569","Male","[""好他"",""坏他"",""坏我"",""好我""]","[""强他"",""弱他"",""弱我"",""强我""]","","","","","","","","match","","","","","","","","","","key","j","16.666037735848835","768","428","j","true","match","img/trapezoid.png","弱我","弱我","prac_ALT2_ability","practice_ability","","","","","","","","",""
"null","<span style='color:GreenYellow; font-size: 70px;'>正确! </span>","null","html-keyboard-response","25","347754","0.0-8.0-1.0-1.0-0.0-1.7","7","7","7","7","7","5","5","5","5","5","5","2","2","2","1","2","2","2","2","5","5","5","5","5","4","5","5","5","5","7","7","8","7","7","6","8","8","8","7","7","7","7","7","6","7","1","7","7","1","7","7","7","7","6","7","7","7","7","7","7","7","7","7","7","7","7","7","7","7","7","7","7","7","7","7","7","7","6","7","621680854329982976","胡","569","Male","[""好他"",""坏他"",""坏我"",""好我""]","[""强他"",""弱他"",""弱我"",""强我""]","","","","","","","","","","","","","","","","","","","","","","","","","","","","","","feedback_test","","","","","","","","",""
"832","","f","psychophysics","26","349588","0.0-8.0-1.0-1.0-0.0-0.8","7","7","7","7","7","5","5","5","5","5","5","2","2","2","1","2","2","2","2","5","5","5","5","5","4","5","5","5","5","7","7","8","7","7","6","8","8","8","7","7","7","7","7","6","7","1","7","7","1","7","7","7","7","6","7","7","7","7","7","7","7","7","7","7","7","7","7","7","7","7","7","7","7","7","7","7","7","6","7","621680854329982976","胡","569","Male","[""好他"",""坏他"",""坏我"",""好我""]","[""强他"",""弱他"",""弱我"",""强我""]","","","","","","","","nonmatch","","","","","","","","","","key","f","16.666972477064327","768","428","f","true","nonmatch","img/circle.png","弱我","强他","prac_ALT2_ability","practice_ability","","","","","","","","",""
"null","<span style='color:GreenYellow; font-size: 70px;'>正确! </span>","null","html-keyboard-response","27","350089","0.0-8.0-1.0-1.0-0.0-1.8","7","7","7","7","7","5","5","5","5","5","5","2","2","2","1","2","2","2","2","5","5","5","5","5","4","5","5","5","5","7","7","8","7","7","6","8","8","8","7","7","7","7","7","6","7","1","7","7","1","7","7","7","7","6","7","7","7","7","7","7","7","7","7","7","7","7","7","7","7","7","7","7","7","7","7","7","7","6","7","621680854329982976","胡","569","Male","[""好他"",""坏他"",""坏我"",""好我""]","[""强他"",""弱他"",""弱我"",""强我""]","","","","","","","","","","","","","","","","","","","","","","","","","","","","","","feedback_test","","","","","","","","",""
"731","","j","psychophysics","28","351822","0.0-8.0-1.0-1.0-0.0-0.9","7","7","7","7","7","5","5","5","5","5","5","2","2","2","1","2","2","2","2","5","5","5","5","5","4","5","5","5","5","7","7","8","7","7","6","8","8","8","7","7","7","7","7","6","7","1","7","7","1","7","7","7","7","6","7","7","7","7","7","7","7","7","7","7","7","7","7","7","7","7","7","7","7","7","7","7","7","6","7","621680854329982976","胡","569","Male","[""好他"",""坏他"",""坏我"",""好我""]","[""强他"",""弱他"",""弱我"",""强我""]","","","","","","","","match","","","","","","","","","","key","j","16.66601941747607","768","428","j","true","match","img/circle.png","强他","强他","prac_ALT2_ability","practice_ability","","","","","","","","",""
"null","<span style='color:GreenYellow; font-size: 70px;'>正确! </span>","null","html-keyboard-response","29","352323","0.0-8.0-1.0-1.0-0.0-1.9","7","7","7","7","7","5","5","5","5","5","5","2","2","2","1","2","2","2","2","5","5","5","5","5","4","5","5","5","5","7","7","8","7","7","6","8","8","8","7","7","7","7","7","6","7","1","7","7","1","7","7","7","7","6","7","7","7","7","7","7","7","7","7","7","7","7","7","7","7","7","7","7","7","7","7","7","7","6","7","621680854329982976","胡","569","Male","[""好他"",""坏他"",""坏我"",""好我""]","[""强他"",""弱他"",""弱我"",""强我""]","","","","","","","","","","","","","","","","","","","","","","","","","","","","","","feedback_test","","","","","","","","",""
"793","","f","psychophysics","30","354117","0.0-8.0-1.0-1.0-0.0-0.10","7","7","7","7","7","5","5","5","5","5","5","2","2","2","1","2","2","2","2","5","5","5","5","5","4","5","5","5","5","7","7","8","7","7","6","8","8","8","7","7","7","7","7","6","7","1","7","7","1","7","7","7","7","6","7","7","7","7","7","7","7","7","7","7","7","7","7","7","7","7","7","7","7","7","7","7","7","6","7","621680854329982976","胡","569","Male","[""好他"",""坏他"",""坏我"",""好我""]","[""强他"",""弱他"",""弱我"",""强我""]","","","","","","","","nonmatch","","","","","","","","","","key","f","16.672897196261683","768","428","f","true","nonmatch","img/triangle.png","强他","弱他","prac_ALT2_ability","practice_ability","","","","","","","","",""
"null","<span style='color:GreenYellow; font-size: 70px;'>正确! </span>","null","html-keyboard-response","31","354618","0.0-8.0-1.0-1.0-0.0-1.10","7","7","7","7","7","5","5","5","5","5","5","2","2","2","1","2","2","2","2","5","5","5","5","5","4","5","5","5","5","7","7","8","7","7","6","8","8","8","7","7","7","7","7","6","7","1","7","7","1","7","7","7","7","6","7","7","7","7","7","7","7","7","7","7","7","7","7","7","7","7","7","7","7","7","7","7","7","6","7","621680854329982976","胡","569","Male","[""好他"",""坏他"",""坏我"",""好我""]","[""强他"",""弱他"",""弱我"",""强我""]","","","","","","","","","","","","","","","","","","","","","","","","","","","","","","feedback_test","","","","","","","","",""
"704","","j","psychophysics","32","356324","0.0-8.0-1.0-1.0-0.0-0.11","7","7","7","7","7","5","5","5","5","5","5","2","2","2","1","2","2","2","2","5","5","5","5","5","4","5","5","5","5","7","7","8","7","7","6","8","8","8","7","7","7","7","7","6","7","1","7","7","1","7","7","7","7","6","7","7","7","7","7","7","7","7","7","7","7","7","7","7","7","7","7","7","7","7","7","7","7","6","7","621680854329982976","胡","569","Male","[""好他"",""坏他"",""坏我"",""好我""]","[""强他"",""弱他"",""弱我"",""强我""]","","","","","","","","match","","","","","","","","","","key","j","16.664356435643334","768","428","j","true","match","img/trapezoid.png","弱我","弱我","prac_ALT2_ability","practice_ability","","","","","","","","",""
"null","<span style='color:GreenYellow; font-size: 70px;'>正确! </span>","null","html-keyboard-response","33","356826","0.0-8.0-1.0-1.0-0.0-1.11","7","7","7","7","7","5","5","5","5","5","5","2","2","2","1","2","2","2","2","5","5","5","5","5","4","5","5","5","5","7","7","8","7","7","6","8","8","8","7","7","7","7","7","6","7","1","7","7","1","7","7","7","7","6","7","7","7","7","7","7","7","7","7","7","7","7","7","7","7","7","7","7","7","7","7","7","7","6","7","621680854329982976","胡","569","Male","[""好他"",""坏他"",""坏我"",""好我""]","[""强他"",""弱他"",""弱我"",""强我""]","","","","","","","","","","","","","","","","","","","","","","","","","","","","","","feedback_test","","","","","","","","",""
"625","","f","psychophysics","34","358452","0.0-8.0-1.0-1.0-0.0-0.12","7","7","7","7","7","5","5","5","5","5","5","2","2","2","1","2","2","2","2","5","5","5","5","5","4","5","5","5","5","7","7","8","7","7","6","8","8","8","7","7","7","7","7","6","7","1","7","7","1","7","7","7","7","6","7","7","7","7","7","7","7","7","7","7","7","7","7","7","7","7","7","7","7","7","7","7","7","6","7","621680854329982976","胡","569","Male","[""好他"",""坏他"",""坏我"",""好我""]","[""强他"",""弱他"",""弱我"",""强我""]","","","","","","","","nonmatch","","","","","","","","","","key","f","16.66458333333382","768","428","f","true","nonmatch","img/triangle.png","强我","弱他","prac_ALT2_ability","practice_ability","","","","","","","","",""
"null","<span style='color:GreenYellow; font-size: 70px;'>正确! </span>","null","html-keyboard-response","35","358954","0.0-8.0-1.0-1.0-0.0-1.12","7","7","7","7","7","5","5","5","5","5","5","2","2","2","1","2","2","2","2","5","5","5","5","5","4","5","5","5","5","7","7","8","7","7","6","8","8","8","7","7","7","7","7","6","7","1","7","7","1","7","7","7","7","6","7","7","7","7","7","7","7","7","7","7","7","7","7","7","7","7","7","7","7","7","7","7","7","6","7","621680854329982976","胡","569","Male","[""好他"",""坏他"",""坏我"",""好我""]","[""强他"",""弱他"",""弱我"",""强我""]","","","","","","","","","","","","","","","","","","","","","","","","","","","","","","feedback_test","","","","","","","","",""
"777","","j","psychophysics","36","360732","0.0-8.0-1.0-1.0-0.0-0.13","7","7","7","7","7","5","5","5","5","5","5","2","2","2","1","2","2","2","2","5","5","5","5","5","4","5","5","5","5","7","7","8","7","7","6","8","8","8","7","7","7","7","7","6","7","1","7","7","1","7","7","7","7","6","7","7","7","7","7","7","7","7","7","7","7","7","7","7","7","7","7","7","7","7","7","7","7","6","7","621680854329982976","胡","569","Male","[""好他"",""坏他"",""坏我"",""好我""]","[""强他"",""弱他"",""弱我"",""强我""]","","","","","","","","match","","","","","","","","","","key","j","16.66509433962264","768","428","f","false","nonmatch","img/trapezoid.png","弱他","弱我","prac_ALT2_ability","practice_ability","","","","","","","","",""
"null","<span style='color:red; font-size: 70px;'>错误! </span>","null","html-keyboard-response","37","361233","0.0-8.0-1.0-1.0-0.0-1.13","7","7","7","7","7","5","5","5","5","5","5","2","2","2","1","2","2","2","2","5","5","5","5","5","4","5","5","5","5","7","7","8","7","7","6","8","8","8","7","7","7","7","7","6","7","1","7","7","1","7","7","7","7","6","7","7","7","7","7","7","7","7","7","7","7","7","7","7","7","7","7","7","7","7","7","7","7","6","7","621680854329982976","胡","569","Male","[""好他"",""坏他"",""坏我"",""好我""]","[""强他"",""弱他"",""弱我"",""强我""]","","","","","","","","","","","","","","","","","","","","","","","","","","","","","","feedback_test","","","","","","","","",""
"779","","j","psychophysics","38","363013","0.0-8.0-1.0-1.0-0.0-0.14","7","7","7","7","7","5","5","5","5","5","5","2","2","2","1","2","2","2","2","5","5","5","5","5","4","5","5","5","5","7","7","8","7","7","6","8","8","8","7","7","7","7","7","6","7","1","7","7","1","7","7","7","7","6","7","7","7","7","7","7","7","7","7","7","7","7","7","7","7","7","7","7","7","7","7","7","7","6","7","621680854329982976","胡","569","Male","[""好他"",""坏他"",""坏我"",""好我""]","[""强他"",""弱他"",""弱我"",""强我""]","","","","","","","","match","","","","","","","","","","key","j","16.664150943396447","768","428","j","true","match","img/triangle.png","弱他","弱他","prac_ALT2_ability","practice_ability","","","","","","","","",""
"null","<span style='color:GreenYellow; font-size: 70px;'>正确! </span>","null","html-keyboard-response","39","363515","0.0-8.0-1.0-1.0-0.0-1.14","7","7","7","7","7","5","5","5","5","5","5","2","2","2","1","2","2","2","2","5","5","5","5","5","4","5","5","5","5","7","7","8","7","7","6","8","8","8","7","7","7","7","7","6","7","1","7","7","1","7","7","7","7","6","7","7","7","7","7","7","7","7","7","7","7","7","7","7","7","7","7","7","7","7","7","7","7","6","7","621680854329982976","胡","569","Male","[""好他"",""坏他"",""坏我"",""好我""]","[""强他"",""弱他"",""弱我"",""强我""]","","","","","","","","","","","","","","","","","","","","","","","","","","","","","","feedback_test","","","","","","","","",""
"671","","j","psychophysics","40","365188","0.0-8.0-1.0-1.0-0.0-0.15","7","7","7","7","7","5","5","5","5","5","5","2","2","2","1","2","2","2","2","5","5","5","5","5","4","5","5","5","5","7","7","8","7","7","6","8","8","8","7","7","7","7","7","6","7","1","7","7","1","7","7","7","7","6","7","7","7","7","7","7","7","7","7","7","7","7","7","7","7","7","7","7","7","7","7","7","7","6","7","621680854329982976","胡","569","Male","[""好他"",""坏他"",""坏我"",""好我""]","[""强他"",""弱他"",""弱我"",""强我""]","","","","","","","","match","","","","","","","","","","key","j","16.65959595959643","768","428","j","true","match","img/triangle.png","弱他","弱他","prac_ALT2_ability","practice_ability","","","","","","","","",""
"null","<span style='color:GreenYellow; font-size: 70px;'>正确! </span>","null","html-keyboard-response","41","365689","0.0-8.0-1.0-1.0-0.0-1.15","7","7","7","7","7","5","5","5","5","5","5","2","2","2","1","2","2","2","2","5","5","5","5","5","4","5","5","5","5","7","7","8","7","7","6","8","8","8","7","7","7","7","7","6","7","1","7","7","1","7","7","7","7","6","7","7","7","7","7","7","7","7","7","7","7","7","7","7","7","7","7","7","7","7","7","7","7","6","7","621680854329982976","胡","569","Male","[""好他"",""坏他"",""坏我"",""好我""]","[""强他"",""弱他"",""弱我"",""强我""]","","","","","","","","","","","","","","","","","","","","","","","","","","","","","","feedback_test","","","","","","","","",""
"930","","j","psychophysics","42","367621","0.0-8.0-1.0-1.0-0.0-0.16","7","7","7","7","7","5","5","5","5","5","5","2","2","2","1","2","2","2","2","5","5","5","5","5","4","5","5","5","5","7","7","8","7","7","6","8","8","8","7","7","7","7","7","6","7","1","7","7","1","7","7","7","7","6","7","7","7","7","7","7","7","7","7","7","7","7","7","7","7","7","7","7","7","7","7","7","7","6","7","621680854329982976","胡","569","Male","[""好他"",""坏他"",""坏我"",""好我""]","[""强他"",""弱他"",""弱我"",""强我""]","","","","","","","","match","","","","","","","","","","key","j","16.66434782608716","768","428","j","true","match","img/trapezoid.png","弱我","弱我","prac_ALT2_ability","practice_ability","","","","","","","","",""
"null","<span style='color:GreenYellow; font-size: 70px;'>正确! </span>","null","html-keyboard-response","43","368123","0.0-8.0-1.0-1.0-0.0-1.16","7","7","7","7","7","5","5","5","5","5","5","2","2","2","1","2","2","2","2","5","5","5","5","5","4","5","5","5","5","7","7","8","7","7","6","8","8","8","7","7","7","7","7","6","7","1","7","7","1","7","7","7","7","6","7","7","7","7","7","7","7","7","7","7","7","7","7","7","7","7","7","7","7","7","7","7","7","6","7","621680854329982976","胡","569","Male","[""好他"",""坏他"",""坏我"",""好我""]","[""强他"",""弱他"",""弱我"",""强我""]","","","","","","","","","","","","","","","","","","","","","","","","","","","","","","feedback_test","","","","","","","","",""
"737","","j","psychophysics","44","369861","0.0-8.0-1.0-1.0-0.0-0.17","7","7","7","7","7","5","5","5","5","5","5","2","2","2","1","2","2","2","2","5","5","5","5","5","4","5","5","5","5","7","7","8","7","7","6","8","8","8","7","7","7","7","7","6","7","1","7","7","1","7","7","7","7","6","7","7","7","7","7","7","7","7","7","7","7","7","7","7","7","7","7","7","7","7","7","7","7","6","7","621680854329982976","胡","569","Male","[""好他"",""坏他"",""坏我"",""好我""]","[""强他"",""弱他"",""弱我"",""强我""]","","","","","","","","match","","","","","","","","","","key","j","16.665384615384728","768","428","f","false","nonmatch","img/pentagon.png","强他","强我","prac_ALT2_ability","practice_ability","","","","","","","","",""
"null","<span style='color:red; font-size: 70px;'>错误! </span>","null","html-keyboard-response","45","370361","0.0-8.0-1.0-1.0-0.0-1.17","7","7","7","7","7","5","5","5","5","5","5","2","2","2","1","2","2","2","2","5","5","5","5","5","4","5","5","5","5","7","7","8","7","7","6","8","8","8","7","7","7","7","7","6","7","1","7","7","1","7","7","7","7","6","7","7","7","7","7","7","7","7","7","7","7","7","7","7","7","7","7","7","7","7","7","7","7","6","7","621680854329982976","胡","569","Male","[""好他"",""坏他"",""坏我"",""好我""]","[""强他"",""弱他"",""弱我"",""强我""]","","","","","","","","","","","","","","","","","","","","","","","","","","","","","","feedback_test","","","","","","","","",""
"985","","j","psychophysics","46","372348","0.0-8.0-1.0-1.0-0.0-0.18","7","7","7","7","7","5","5","5","5","5","5","2","2","2","1","2","2","2","2","5","5","5","5","5","4","5","5","5","5","7","7","8","7","7","6","8","8","8","7","7","7","7","7","6","7","1","7","7","1","7","7","7","7","6","7","7","7","7","7","7","7","7","7","7","7","7","7","7","7","7","7","7","7","7","7","7","7","6","7","621680854329982976","胡","569","Male","[""好他"",""坏他"",""坏我"",""好我""]","[""强他"",""弱他"",""弱我"",""强我""]","","","","","","","","match","","","","","","","","","","key","j","16.665254237288135","768","428","f","false","nonmatch","img/trapezoid.png","强他","弱我","prac_ALT2_ability","practice_ability","","","","","","","","",""
"null","<span style='color:red; font-size: 70px;'>错误! </span>","null","html-keyboard-response","47","372849","0.0-8.0-1.0-1.0-0.0-1.18","7","7","7","7","7","5","5","5","5","5","5","2","2","2","1","2","2","2","2","5","5","5","5","5","4","5","5","5","5","7","7","8","7","7","6","8","8","8","7","7","7","7","7","6","7","1","7","7","1","7","7","7","7","6","7","7","7","7","7","7","7","7","7","7","7","7","7","7","7","7","7","7","7","7","7","7","7","6","7","621680854329982976","胡","569","Male","[""好他"",""坏他"",""坏我"",""好我""]","[""强他"",""弱他"",""弱我"",""强我""]","","","","","","","","","","","","","","","","","","","","","","","","","","","","","","feedback_test","","","","","","","","",""
"857","","j","psychophysics","48","374709","0.0-8.0-1.0-1.0-0.0-0.19","7","7","7","7","7","5","5","5","5","5","5","2","2","2","1","2","2","2","2","5","5","5","5","5","4","5","5","5","5","7","7","8","7","7","6","8","8","8","7","7","7","7","7","6","7","1","7","7","1","7","7","7","7","6","7","7","7","7","7","7","7","7","7","7","7","7","7","7","7","7","7","7","7","7","7","7","7","6","7","621680854329982976","胡","569","Male","[""好他"",""坏他"",""坏我"",""好我""]","[""强他"",""弱他"",""弱我"",""强我""]","","","","","","","","match","","","","","","","","","","key","j","16.66396396396407","768","428","f","false","nonmatch","img/pentagon.png","弱我","强我","prac_ALT2_ability","practice_ability","","","","","","","","",""
"null","<span style='color:red; font-size: 70px;'>错误! </span>","null","html-keyboard-response","49","375211","0.0-8.0-1.0-1.0-0.0-1.19","7","7","7","7","7","5","5","5","5","5","5","2","2","2","1","2","2","2","2","5","5","5","5","5","4","5","5","5","5","7","7","8","7","7","6","8","8","8","7","7","7","7","7","6","7","1","7","7","1","7","7","7","7","6","7","7","7","7","7","7","7","7","7","7","7","7","7","7","7","7","7","7","7","7","7","7","7","6","7","621680854329982976","胡","569","Male","[""好他"",""坏他"",""坏我"",""好我""]","[""强他"",""弱他"",""弱我"",""强我""]","","","","","","","","","","","","","","","","","","","","","","","","","","","","","","feedback_test","","","","","","","","",""
"864","","f","psychophysics","50","377077","0.0-8.0-1.0-1.0-0.0-0.20","7","7","7","7","7","5","5","5","5","5","5","2","2","2","1","2","2","2","2","5","5","5","5","5","4","5","5","5","5","7","7","8","7","7","6","8","8","8","7","7","7","7","7","6","7","1","7","7","1","7","7","7","7","6","7","7","7","7","7","7","7","7","7","7","7","7","7","7","7","7","7","7","7","7","7","7","7","6","7","621680854329982976","胡","569","Male","[""好他"",""坏他"",""坏我"",""好我""]","[""强他"",""弱他"",""弱我"",""强我""]","","","","","","","","nonmatch","","","","","","","","","","key","f","16.66486486486476","768","428","j","false","match","img/circle.png","强他","强他","prac_ALT2_ability","practice_ability","","","","","","","","",""
"null","<span style='color:red; font-size: 70px;'>错误! </span>","null","html-keyboard-response","51","377593","0.0-8.0-1.0-1.0-0.0-1.20","7","7","7","7","7","5","5","5","5","5","5","2","2","2","1","2","2","2","2","5","5","5","5","5","4","5","5","5","5","7","7","8","7","7","6","8","8","8","7","7","7","7","7","6","7","1","7","7","1","7","7","7","7","6","7","7","7","7","7","7","7","7","7","7","7","7","7","7","7","7","7","7","7","7","7","7","7","6","7","621680854329982976","胡","569","Male","[""好他"",""坏他"",""坏我"",""好我""]","[""强他"",""弱他"",""弱我"",""强我""]","","","","","","","","","","","","","","","","","","","","","","","","","","","","","","feedback_test","","","","","","","","",""
"931","","j","psychophysics","52","379525","0.0-8.0-1.0-1.0-0.0-0.21","7","7","7","7","7","5","5","5","5","5","5","2","2","2","1","2","2","2","2","5","5","5","5","5","4","5","5","5","5","7","7","8","7","7","6","8","8","8","7","7","7","7","7","6","7","1","7","7","1","7","7","7","7","6","7","7","7","7","7","7","7","7","7","7","7","7","7","7","7","7","7","7","7","7","7","7","7","6","7","621680854329982976","胡","569","Male","[""好他"",""坏他"",""坏我"",""好我""]","[""强他"",""弱他"",""弱我"",""强我""]","","","","","","","","match","","","","","","","","","","key","j","16.664347826086654","768","428","j","true","match","img/pentagon.png","强我","强我","prac_ALT2_ability","practice_ability","","","","","","","","",""
"null","<span style='color:GreenYellow; font-size: 70px;'>正确! </span>","null","html-keyboard-response","53","380025","0.0-8.0-1.0-1.0-0.0-1.21","7","7","7","7","7","5","5","5","5","5","5","2","2","2","1","2","2","2","2","5","5","5","5","5","4","5","5","5","5","7","7","8","7","7","6","8","8","8","7","7","7","7","7","6","7","1","7","7","1","7","7","7","7","6","7","7","7","7","7","7","7","7","7","7","7","7","7","7","7","7","7","7","7","7","7","7","7","6","7","621680854329982976","胡","569","Male","[""好他"",""坏他"",""坏我"",""好我""]","[""强他"",""弱他"",""弱我"",""强我""]","","","","","","","","","","","","","","","","","","","","","","","","","","","","","","feedback_test","","","","","","","","",""
"762","","j","psychophysics","54","381788","0.0-8.0-1.0-1.0-0.0-0.22","7","7","7","7","7","5","5","5","5","5","5","2","2","2","1","2","2","2","2","5","5","5","5","5","4","5","5","5","5","7","7","8","7","7","6","8","8","8","7","7","7","7","7","6","7","1","7","7","1","7","7","7","7","6","7","7","7","7","7","7","7","7","7","7","7","7","7","7","7","7","7","7","7","7","7","7","7","6","7","621680854329982976","胡","569","Male","[""好他"",""坏他"",""坏我"",""好我""]","[""强他"",""弱他"",""弱我"",""强我""]","","","","","","","","match","","","","","","","","","","key","j","16.66442307692285","768","428","j","true","match","img/triangle.png","弱他","弱他","prac_ALT2_ability","practice_ability","","","","","","","","",""
"null","<span style='color:GreenYellow; font-size: 70px;'>正确! </span>","null","html-keyboard-response","55","382290","0.0-8.0-1.0-1.0-0.0-1.22","7","7","7","7","7","5","5","5","5","5","5","2","2","2","1","2","2","2","2","5","5","5","5","5","4","5","5","5","5","7","7","8","7","7","6","8","8","8","7","7","7","7","7","6","7","1","7","7","1","7","7","7","7","6","7","7","7","7","7","7","7","7","7","7","7","7","7","7","7","7","7","7","7","7","7","7","7","6","7","621680854329982976","胡","569","Male","[""好他"",""坏他"",""坏我"",""好我""]","[""强他"",""弱他"",""弱我"",""强我""]","","","","","","","","","","","","","","","","","","","","","","","","","","","","","","feedback_test","","","","","","","","",""
"835","","j","psychophysics","56","384125","0.0-8.0-1.0-1.0-0.0-0.23","7","7","7","7","7","5","5","5","5","5","5","2","2","2","1","2","2","2","2","5","5","5","5","5","4","5","5","5","5","7","7","8","7","7","6","8","8","8","7","7","7","7","7","6","7","1","7","7","1","7","7","7","7","6","7","7","7","7","7","7","7","7","7","7","7","7","7","7","7","7","7","7","7","7","7","7","7","6","7","621680854329982976","胡","569","Male","[""好他"",""坏他"",""坏我"",""好我""]","[""强他"",""弱他"",""弱我"",""强我""]","","","","","","","","match","","","","","","","","","","key","j","16.664220183485916","768","428","j","true","match","img/pentagon.png","强我","强我","prac_ALT2_ability","practice_ability","","","","","","","","",""
"null","<span style='color:GreenYellow; font-size: 70px;'>正确! </span>","null","html-keyboard-response","57","384628","0.0-8.0-1.0-1.0-0.0-1.23","7","7","7","7","7","5","5","5","5","5","5","2","2","2","1","2","2","2","2","5","5","5","5","5","4","5","5","5","5","7","7","8","7","7","6","8","8","8","7","7","7","7","7","6","7","1","7","7","1","7","7","7","7","6","7","7","7","7","7","7","7","7","7","7","7","7","7","7","7","7","7","7","7","7","7","7","7","6","7","621680854329982976","胡","569","Male","[""好他"",""坏他"",""坏我"",""好我""]","[""强他"",""弱他"",""弱我"",""强我""]","","","","","","","","","","","","","","","","","","","","","","","","","","","","","","feedback_test","","","","","","","","",""
"734","","f","psychophysics","58","386364","0.0-8.0-1.0-1.0-0.0-0.24","7","7","7","7","7","5","5","5","5","5","5","2","2","2","1","2","2","2","2","5","5","5","5","5","4","5","5","5","5","7","7","8","7","7","6","8","8","8","7","7","7","7","7","6","7","1","7","7","1","7","7","7","7","6","7","7","7","7","7","7","7","7","7","7","7","7","7","7","7","7","7","7","7","7","7","7","7","6","7","621680854329982976","胡","569","Male","[""好他"",""坏他"",""坏我"",""好我""]","[""强他"",""弱他"",""弱我"",""强我""]","","","","","","","","nonmatch","","","","","","","","","","key","f","16.66504854368932","768","428","f","true","nonmatch","img/triangle.png","强我","弱他","prac_ALT2_ability","practice_ability","","","","","","","","",""
"null","<span style='color:GreenYellow; font-size: 70px;'>正确! </span>","null","html-keyboard-response","59","386865","0.0-8.0-1.0-1.0-0.0-1.24","7","7","7","7","7","5","5","5","5","5","5","2","2","2","1","2","2","2","2","5","5","5","5","5","4","5","5","5","5","7","7","8","7","7","6","8","8","8","7","7","7","7","7","6","7","1","7","7","1","7","7","7","7","6","7","7","7","7","7","7","7","7","7","7","7","7","7","7","7","7","7","7","7","7","7","7","7","6","7","621680854329982976","胡","569","Male","[""好他"",""坏他"",""坏我"",""好我""]","[""强他"",""弱他"",""弱我"",""强我""]","","","","","","","","","","","","","","","","","","","","","","","","","","","","","","feedback_test","","","","","","","","",""
"666","","j","psychophysics","60","388533","0.0-8.0-1.0-1.0-0.0-0.25","7","7","7","7","7","5","5","5","5","5","5","2","2","2","1","2","2","2","2","5","5","5","5","5","4","5","5","5","5","7","7","8","7","7","6","8","8","8","7","7","7","7","7","6","7","1","7","7","1","7","7","7","7","6","7","7","7","7","7","7","7","7","7","7","7","7","7","7","7","7","7","7","7","7","7","7","7","6","7","621680854329982976","胡","569","Male","[""好他"",""坏他"",""坏我"",""好我""]","[""强他"",""弱他"",""弱我"",""强我""]","","","","","","","","match","","","","","","","","","","key","j","16.666666666666668","768","428","j","true","match","img/triangle.png","弱他","弱他","prac_ALT2_ability","practice_ability","","","","","","","","",""
"null","<span style='color:GreenYellow; font-size: 70px;'>正确! </span>","null","html-keyboard-response","61","389035","0.0-8.0-1.0-1.0-0.0-1.25","7","7","7","7","7","5","5","5","5","5","5","2","2","2","1","2","2","2","2","5","5","5","5","5","4","5","5","5","5","7","7","8","7","7","6","8","8","8","7","7","7","7","7","6","7","1","7","7","1","7","7","7","7","6","7","7","7","7","7","7","7","7","7","7","7","7","7","7","7","7","7","7","7","7","7","7","7","6","7","621680854329982976","胡","569","Male","[""好他"",""坏他"",""坏我"",""好我""]","[""强他"",""弱他"",""弱我"",""强我""]","","","","","","","","","","","","","","","","","","","","","","","","","","","","","","feedback_test","","","","","","","","",""
"855","","f","psychophysics","62","390893","0.0-8.0-1.0-1.0-0.0-0.26","7","7","7","7","7","5","5","5","5","5","5","2","2","2","1","2","2","2","2","5","5","5","5","5","4","5","5","5","5","7","7","8","7","7","6","8","8","8","7","7","7","7","7","6","7","1","7","7","1","7","7","7","7","6","7","7","7","7","7","7","7","7","7","7","7","7","7","7","7","7","7","7","7","7","7","7","7","6","7","621680854329982976","胡","569","Male","[""好他"",""坏他"",""坏我"",""好我""]","[""强他"",""弱他"",""弱我"",""强我""]","","","","","","","","nonmatch","","","","","","","","","","key","f","16.666666666666668","768","428","f","true","nonmatch","img/trapezoid.png","强我","弱我","prac_ALT2_ability","practice_ability","","","","","","","","",""
"null","<span style='color:GreenYellow; font-size: 70px;'>正确! </span>","null","html-keyboard-response","63","391394","0.0-8.0-1.0-1.0-0.0-1.26","7","7","7","7","7","5","5","5","5","5","5","2","2","2","1","2","2","2","2","5","5","5","5","5","4","5","5","5","5","7","7","8","7","7","6","8","8","8","7","7","7","7","7","6","7","1","7","7","1","7","7","7","7","6","7","7","7","7","7","7","7","7","7","7","7","7","7","7","7","7","7","7","7","7","7","7","7","6","7","621680854329982976","胡","569","Male","[""好他"",""坏他"",""坏我"",""好我""]","[""强他"",""弱他"",""弱我"",""强我""]","","","","","","","","","","","","","","","","","","","","","","","","","","","","","","feedback_test","","","","","","","","",""
"777","","f","psychophysics","64","393172","0.0-8.0-1.0-1.0-0.0-0.27","7","7","7","7","7","5","5","5","5","5","5","2","2","2","1","2","2","2","2","5","5","5","5","5","4","5","5","5","5","7","7","8","7","7","6","8","8","8","7","7","7","7","7","6","7","1","7","7","1","7","7","7","7","6","7","7","7","7","7","7","7","7","7","7","7","7","7","7","7","7","7","7","7","7","7","7","7","6","7","621680854329982976","胡","569","Male","[""好他"",""坏他"",""坏我"",""好我""]","[""强他"",""弱他"",""弱我"",""强我""]","","","","","","","","nonmatch","","","","","","","","","","key","f","16.665714285713953","768","428","f","true","nonmatch","img/pentagon.png","强他","强我","prac_ALT2_ability","practice_ability","","","","","","","","",""
"null","<span style='color:GreenYellow; font-size: 70px;'>正确! </span>","null","html-keyboard-response","65","393674","0.0-8.0-1.0-1.0-0.0-1.27","7","7","7","7","7","5","5","5","5","5","5","2","2","2","1","2","2","2","2","5","5","5","5","5","4","5","5","5","5","7","7","8","7","7","6","8","8","8","7","7","7","7","7","6","7","1","7","7","1","7","7","7","7","6","7","7","7","7","7","7","7","7","7","7","7","7","7","7","7","7","7","7","7","7","7","7","7","6","7","621680854329982976","胡","569","Male","[""好他"",""坏他"",""坏我"",""好我""]","[""强他"",""弱他"",""弱我"",""强我""]","","","","","","","","","","","","","","","","","","","","","","","","","","","","","","feedback_test","","","","","","","","",""
"690","","f","psychophysics","66","395366","0.0-8.0-1.0-1.0-0.0-0.28","7","7","7","7","7","5","5","5","5","5","5","2","2","2","1","2","2","2","2","5","5","5","5","5","4","5","5","5","5","7","7","8","7","7","6","8","8","8","7","7","7","7","7","6","7","1","7","7","1","7","7","7","7","6","7","7","7","7","7","7","7","7","7","7","7","7","7","7","7","7","7","7","7","7","7","7","7","6","7","621680854329982976","胡","569","Male","[""好他"",""坏他"",""坏我"",""好我""]","[""强他"",""弱他"",""弱我"",""强我""]","","","","","","","","nonmatch","","","","","","","","","","key","f","16.665","768","428","f","true","nonmatch","img/circle.png","强我","强他","prac_ALT2_ability","practice_ability","","","","","","","","",""
"null","<span style='color:GreenYellow; font-size: 70px;'>正确! </span>","null","html-keyboard-response","67","395868","0.0-8.0-1.0-1.0-0.0-1.28","7","7","7","7","7","5","5","5","5","5","5","2","2","2","1","2","2","2","2","5","5","5","5","5","4","5","5","5","5","7","7","8","7","7","6","8","8","8","7","7","7","7","7","6","7","1","7","7","1","7","7","7","7","6","7","7","7","7","7","7","7","7","7","7","7","7","7","7","7","7","7","7","7","7","7","7","7","6","7","621680854329982976","胡","569","Male","[""好他"",""坏他"",""坏我"",""好我""]","[""强他"",""弱他"",""弱我"",""强我""]","","","","","","","","","","","","","","","","","","","","","","","","","","","","","","feedback_test","","","","","","","","",""
"767","","f","psychophysics","68","397637","0.0-8.0-1.0-1.0-0.0-0.29","7","7","7","7","7","5","5","5","5","5","5","2","2","2","1","2","2","2","2","5","5","5","5","5","4","5","5","5","5","7","7","8","7","7","6","8","8","8","7","7","7","7","7","6","7","1","7","7","1","7","7","7","7","6","7","7","7","7","7","7","7","7","7","7","7","7","7","7","7","7","7","7","7","7","7","7","7","6","7","621680854329982976","胡","569","Male","[""好他"",""坏他"",""坏我"",""好我""]","[""强他"",""弱他"",""弱我"",""强我""]","","","","","","","","nonmatch","","","","","","","","","","key","f","16.664761904761793","768","428","f","true","nonmatch","img/triangle.png","弱我","弱他","prac_ALT2_ability","practice_ability","","","","","","","","",""
"null","<span style='color:GreenYellow; font-size: 70px;'>正确! </span>","null","html-keyboard-response","69","398138","0.0-8.0-1.0-1.0-0.0-1.29","7","7","7","7","7","5","5","5","5","5","5","2","2","2","1","2","2","2","2","5","5","5","5","5","4","5","5","5","5","7","7","8","7","7","6","8","8","8","7","7","7","7","7","6","7","1","7","7","1","7","7","7","7","6","7","7","7","7","7","7","7","7","7","7","7","7","7","7","7","7","7","7","7","7","7","7","7","6","7","621680854329982976","胡","569","Male","[""好他"",""坏他"",""坏我"",""好我""]","[""强他"",""弱他"",""弱我"",""强我""]","","","","","","","","","","","","","","","","","","","","","","","","","","","","","","feedback_test","","","","","","","","",""
"794","","j","psychophysics","70","399932","0.0-8.0-1.0-1.0-0.0-0.30","7","7","7","7","7","5","5","5","5","5","5","2","2","2","1","2","2","2","2","5","5","5","5","5","4","5","5","5","5","7","7","8","7","7","6","8","8","8","7","7","7","7","7","6","7","1","7","7","1","7","7","7","7","6","7","7","7","7","7","7","7","7","7","7","7","7","7","7","7","7","7","7","7","7","7","7","7","6","7","621680854329982976","胡","569","Male","[""好他"",""坏他"",""坏我"",""好我""]","[""强他"",""弱他"",""弱我"",""强我""]","","","","","","","","match","","","","","","","","","","key","j","16.660377358490567","768","428","j","true","match","img/pentagon.png","强我","强我","prac_ALT2_ability","practice_ability","","","","","","","","",""
"null","<span style='color:GreenYellow; font-size: 70px;'>正确! </span>","null","html-keyboard-response","71","400434","0.0-8.0-1.0-1.0-0.0-1.30","7","7","7","7","7","5","5","5","5","5","5","2","2","2","1","2","2","2","2","5","5","5","5","5","4","5","5","5","5","7","7","8","7","7","6","8","8","8","7","7","7","7","7","6","7","1","7","7","1","7","7","7","7","6","7","7","7","7","7","7","7","7","7","7","7","7","7","7","7","7","7","7","7","7","7","7","7","6","7","621680854329982976","胡","569","Male","[""好他"",""坏他"",""坏我"",""好我""]","[""强他"",""弱他"",""弱我"",""强我""]","","","","","","","","","","","","","","","","","","","","","","","","","","","","","","feedback_test","","","","","","","","",""
"777","","f","psychophysics","72","402212","0.0-8.0-1.0-1.0-0.0-0.31","7","7","7","7","7","5","5","5","5","5","5","2","2","2","1","2","2","2","2","5","5","5","5","5","4","5","5","5","5","7","7","8","7","7","6","8","8","8","7","7","7","7","7","6","7","1","7","7","1","7","7","7","7","6","7","7","7","7","7","7","7","7","7","7","7","7","7","7","7","7","7","7","7","7","7","7","7","6","7","621680854329982976","胡","569","Male","[""好他"",""坏他"",""坏我"",""好我""]","[""强他"",""弱他"",""弱我"",""强我""]","","","","","","","","nonmatch","","","","","","","","","","key","f","16.66698113207558","768","428","j","false","match","img/trapezoid.png","弱我","弱我","prac_ALT2_ability","practice_ability","","","","","","","","",""
"null","<span style='color:red; font-size: 70px;'>错误! </span>","null","html-keyboard-response","73","402713","0.0-8.0-1.0-1.0-0.0-1.31","7","7","7","7","7","5","5","5","5","5","5","2","2","2","1","2","2","2","2","5","5","5","5","5","4","5","5","5","5","7","7","8","7","7","6","8","8","8","7","7","7","7","7","6","7","1","7","7","1","7","7","7","7","6","7","7","7","7","7","7","7","7","7","7","7","7","7","7","7","7","7","7","7","7","7","7","7","6","7","621680854329982976","胡","569","Male","[""好他"",""坏他"",""坏我"",""好我""]","[""强他"",""弱他"",""弱我"",""强我""]","","","","","","","","","","","","","","","","","","","","","","","","","","","","","","feedback_test","","","","","","","","",""
"433","","j","psychophysics","74","404148","0.0-8.0-1.0-1.0-0.0-0.32","7","7","7","7","7","5","5","5","5","5","5","2","2","2","1","2","2","2","2","5","5","5","5","5","4","5","5","5","5","7","7","8","7","7","6","8","8","8","7","7","7","7","7","6","7","1","7","7","1","7","7","7","7","6","7","7","7","7","7","7","7","7","7","7","7","7","7","7","7","7","7","7","7","7","7","7","7","6","7","621680854329982976","胡","569","Male","[""好他"",""坏他"",""坏我"",""好我""]","[""强他"",""弱他"",""弱我"",""强我""]","","","","","","","","match","","","","","","","","","","key","j","16.6658823529409","768","428","j","true","match","img/trapezoid.png","弱我","弱我","prac_ALT2_ability","practice_ability","","","","","","","","",""
"null","<span style='color:GreenYellow; font-size: 70px;'>正确! </span>","null","html-keyboard-response","75","404651","0.0-8.0-1.0-1.0-0.0-1.32","7","7","7","7","7","5","5","5","5","5","5","2","2","2","1","2","2","2","2","5","5","5","5","5","4","5","5","5","5","7","7","8","7","7","6","8","8","8","7","7","7","7","7","6","7","1","7","7","1","7","7","7","7","6","7","7","7","7","7","7","7","7","7","7","7","7","7","7","7","7","7","7","7","7","7","7","7","6","7","621680854329982976","胡","569","Male","[""好他"",""坏他"",""坏我"",""好我""]","[""强他"",""弱他"",""弱我"",""强我""]","","","","","","","","","","","","","","","","","","","","","","","","","","","","","","feedback_test","","","","","","","","",""
"560","","f","psychophysics","76","406212","0.0-8.0-1.0-1.0-0.0-0.33","7","7","7","7","7","5","5","5","5","5","5","2","2","2","1","2","2","2","2","5","5","5","5","5","4","5","5","5","5","7","7","8","7","7","6","8","8","8","7","7","7","7","7","6","7","1","7","7","1","7","7","7","7","6","7","7","7","7","7","7","7","7","7","7","7","7","7","7","7","7","7","7","7","7","7","7","7","6","7","621680854329982976","胡","569","Male","[""好他"",""坏他"",""坏我"",""好我""]","[""强他"",""弱他"",""弱我"",""强我""]","","","","","","","","nonmatch","","","","","","","","","","key","f","16.664516129032133","768","428","f","true","nonmatch","img/trapezoid.png","弱他","弱我","prac_ALT2_ability","practice_ability","","","","","","","","",""
"null","<span style='color:GreenYellow; font-size: 70px;'>正确! </span>","null","html-keyboard-response","77","406713","0.0-8.0-1.0-1.0-0.0-1.33","7","7","7","7","7","5","5","5","5","5","5","2","2","2","1","2","2","2","2","5","5","5","5","5","4","5","5","5","5","7","7","8","7","7","6","8","8","8","7","7","7","7","7","6","7","1","7","7","1","7","7","7","7","6","7","7","7","7","7","7","7","7","7","7","7","7","7","7","7","7","7","7","7","7","7","7","7","6","7","621680854329982976","胡","569","Male","[""好他"",""坏他"",""坏我"",""好我""]","[""强他"",""弱他"",""弱我"",""强我""]","","","","","","","","","","","","","","","","","","","","","","","","","","","","","","feedback_test","","","","","","","","",""
"867","","j","psychophysics","78","408582","0.0-8.0-1.0-1.0-0.0-0.34","7","7","7","7","7","5","5","5","5","5","5","2","2","2","1","2","2","2","2","5","5","5","5","5","4","5","5","5","5","7","7","8","7","7","6","8","8","8","7","7","7","7","7","6","7","1","7","7","1","7","7","7","7","6","7","7","7","7","7","7","7","7","7","7","7","7","7","7","7","7","7","7","7","7","7","7","7","6","7","621680854329982976","胡","569","Male","[""好他"",""坏他"",""坏我"",""好我""]","[""强他"",""弱他"",""弱我"",""强我""]","","","","","","","","match","","","","","","","","","","key","j","16.666666666666668","768","428","j","true","match","img/circle.png","强他","强他","prac_ALT2_ability","practice_ability","","","","","","","","",""
"null","<span style='color:GreenYellow; font-size: 70px;'>正确! </span>","null","html-keyboard-response","79","409082","0.0-8.0-1.0-1.0-0.0-1.34","7","7","7","7","7","5","5","5","5","5","5","2","2","2","1","2","2","2","2","5","5","5","5","5","4","5","5","5","5","7","7","8","7","7","6","8","8","8","7","7","7","7","7","6","7","1","7","7","1","7","7","7","7","6","7","7","7","7","7","7","7","7","7","7","7","7","7","7","7","7","7","7","7","7","7","7","7","6","7","621680854329982976","胡","569","Male","[""好他"",""坏他"",""坏我"",""好我""]","[""强他"",""弱他"",""弱我"",""强我""]","","","","","","","","","","","","","","","","","","","","","","","","","","","","","","feedback_test","","","","","","","","",""
"817","","j","psychophysics","80","410900","0.0-8.0-1.0-1.0-0.0-0.35","7","7","7","7","7","5","5","5","5","5","5","2","2","2","1","2","2","2","2","5","5","5","5","5","4","5","5","5","5","7","7","8","7","7","6","8","8","8","7","7","7","7","7","6","7","1","7","7","1","7","7","7","7","6","7","7","7","7","7","7","7","7","7","7","7","7","7","7","7","7","7","7","7","7","7","7","7","6","7","621680854329982976","胡","569","Male","[""好他"",""坏他"",""坏我"",""好我""]","[""强他"",""弱他"",""弱我"",""强我""]","","","","","","","","match","","","","","","","","","","key","j","16.666666666666668","768","428","f","false","nonmatch","img/pentagon.png","弱他","强我","prac_ALT2_ability","practice_ability","","","","","","","","",""
"null","<span style='color:red; font-size: 70px;'>错误! </span>","null","html-keyboard-response","81","411401","0.0-8.0-1.0-1.0-0.0-1.35","7","7","7","7","7","5","5","5","5","5","5","2","2","2","1","2","2","2","2","5","5","5","5","5","4","5","5","5","5","7","7","8","7","7","6","8","8","8","7","7","7","7","7","6","7","1","7","7","1","7","7","7","7","6","7","7","7","7","7","7","7","7","7","7","7","7","7","7","7","7","7","7","7","7","7","7","7","6","7","621680854329982976","胡","569","Male","[""好他"",""坏他"",""坏我"",""好我""]","[""强他"",""弱他"",""弱我"",""强我""]","","","","","","","","","","","","","","","","","","","","","","","","","","","","","","feedback_test","","","","","","","","",""
"873","","f","psychophysics","82","413276","0.0-8.0-1.0-1.0-0.0-0.36","7","7","7","7","7","5","5","5","5","5","5","2","2","2","1","2","2","2","2","5","5","5","5","5","4","5","5","5","5","7","7","8","7","7","6","8","8","8","7","7","7","7","7","6","7","1","7","7","1","7","7","7","7","6","7","7","7","7","7","7","7","7","7","7","7","7","7","7","7","7","7","7","7","7","7","7","7","6","7","621680854329982976","胡","569","Male","[""好他"",""坏他"",""坏我"",""好我""]","[""强他"",""弱他"",""弱我"",""强我""]","","","","","","","","nonmatch","","","","","","","","","","key","f","16.664285714285402","768","428","j","false","match","img/trapezoid.png","弱我","弱我","prac_ALT2_ability","practice_ability","","","","","","","","",""
"null","<span style='color:red; font-size: 70px;'>错误! </span>","null","html-keyboard-response","83","413777","0.0-8.0-1.0-1.0-0.0-1.36","7","7","7","7","7","5","5","5","5","5","5","2","2","2","1","2","2","2","2","5","5","5","5","5","4","5","5","5","5","7","7","8","7","7","6","8","8","8","7","7","7","7","7","6","7","1","7","7","1","7","7","7","7","6","7","7","7","7","7","7","7","7","7","7","7","7","7","7","7","7","7","7","7","7","7","7","7","6","7","621680854329982976","胡","569","Male","[""好他"",""坏他"",""坏我"",""好我""]","[""强他"",""弱他"",""弱我"",""强我""]","","","","","","","","","","","","","","","","","","","","","","","","","","","","","","feedback_test","","","","","","","","",""
"738","","f","psychophysics","84","415518","0.0-8.0-1.0-1.0-0.0-0.37","7","7","7","7","7","5","5","5","5","5","5","2","2","2","1","2","2","2","2","5","5","5","5","5","4","5","5","5","5","7","7","8","7","7","6","8","8","8","7","7","7","7","7","6","7","1","7","7","1","7","7","7","7","6","7","7","7","7","7","7","7","7","7","7","7","7","7","7","7","7","7","7","7","7","7","7","7","6","7","621680854329982976","胡","569","Male","[""好他"",""坏他"",""坏我"",""好我""]","[""强他"",""弱他"",""弱我"",""强我""]","","","","","","","","nonmatch","","","","","","","","","","key","f","16.66601941747607","768","428","f","true","nonmatch","img/circle.png","弱我","强他","prac_ALT2_ability","practice_ability","","","","","","","","",""
"null","<span style='color:GreenYellow; font-size: 70px;'>正确! </span>","null","html-keyboard-response","85","416025","0.0-8.0-1.0-1.0-0.0-1.37","7","7","7","7","7","5","5","5","5","5","5","2","2","2","1","2","2","2","2","5","5","5","5","5","4","5","5","5","5","7","7","8","7","7","6","8","8","8","7","7","7","7","7","6","7","1","7","7","1","7","7","7","7","6","7","7","7","7","7","7","7","7","7","7","7","7","7","7","7","7","7","7","7","7","7","7","7","6","7","621680854329982976","胡","569","Male","[""好他"",""坏他"",""坏我"",""好我""]","[""强他"",""弱他"",""弱我"",""强我""]","","","","","","","","","","","","","","","","","","","","","","","","","","","","","","feedback_test","","","","","","","","",""
"729","","j","psychophysics","86","417756","0.0-8.0-1.0-1.0-0.0-0.38","7","7","7","7","7","5","5","5","5","5","5","2","2","2","1","2","2","2","2","5","5","5","5","5","4","5","5","5","5","7","7","8","7","7","6","8","8","8","7","7","7","7","7","6","7","1","7","7","1","7","7","7","7","6","7","7","7","7","7","7","7","7","7","7","7","7","7","7","7","7","7","7","7","7","7","7","7","6","7","621680854329982976","胡","569","Male","[""好他"",""坏他"",""坏我"",""好我""]","[""强他"",""弱他"",""弱我"",""强我""]","","","","","","","","match","","","","","","","","","","key","j","16.666019417475503","768","428","j","true","match","img/triangle.png","弱他","弱他","prac_ALT2_ability","practice_ability","","","","","","","","",""
"null","<span style='color:GreenYellow; font-size: 70px;'>正确! </span>","null","html-keyboard-response","87","418258","0.0-8.0-1.0-1.0-0.0-1.38","7","7","7","7","7","5","5","5","5","5","5","2","2","2","1","2","2","2","2","5","5","5","5","5","4","5","5","5","5","7","7","8","7","7","6","8","8","8","7","7","7","7","7","6","7","1","7","7","1","7","7","7","7","6","7","7","7","7","7","7","7","7","7","7","7","7","7","7","7","7","7","7","7","7","7","7","7","6","7","621680854329982976","胡","569","Male","[""好他"",""坏他"",""坏我"",""好我""]","[""强他"",""弱他"",""弱我"",""强我""]","","","","","","","","","","","","","","","","","","","","","","","","","","","","","","feedback_test","","","","","","","","",""
"546","","j","psychophysics","88","419805","0.0-8.0-1.0-1.0-0.0-0.39","7","7","7","7","7","5","5","5","5","5","5","2","2","2","1","2","2","2","2","5","5","5","5","5","4","5","5","5","5","7","7","8","7","7","6","8","8","8","7","7","7","7","7","6","7","1","7","7","1","7","7","7","7","6","7","7","7","7","7","7","7","7","7","7","7","7","7","7","7","7","7","7","7","7","7","7","7","6","7","621680854329982976","胡","569","Male","[""好他"",""坏他"",""坏我"",""好我""]","[""强他"",""弱他"",""弱我"",""强我""]","","","","","","","","match","","","","","","","","","","key","j","16.664130434782354","768","428","j","true","match","img/triangle.png","弱他","弱他","prac_ALT2_ability","practice_ability","","","","","","","","",""
"null","<span style='color:GreenYellow; font-size: 70px;'>正确! </span>","null","html-keyboard-response","89","420306","0.0-8.0-1.0-1.0-0.0-1.39","7","7","7","7","7","5","5","5","5","5","5","2","2","2","1","2","2","2","2","5","5","5","5","5","4","5","5","5","5","7","7","8","7","7","6","8","8","8","7","7","7","7","7","6","7","1","7","7","1","7","7","7","7","6","7","7","7","7","7","7","7","7","7","7","7","7","7","7","7","7","7","7","7","7","7","7","7","6","7","621680854329982976","胡","569","Male","[""好他"",""坏他"",""坏我"",""好我""]","[""强他"",""弱他"",""弱我"",""强我""]","","","","","","","","","","","","","","","","","","","","","","","","","","","","","","feedback_test","","","","","","","","",""
"857","","j","psychophysics","90","422164","0.0-8.0-1.0-1.0-0.0-0.40","7","7","7","7","7","5","5","5","5","5","5","2","2","2","1","2","2","2","2","5","5","5","5","5","4","5","5","5","5","7","7","8","7","7","6","8","8","8","7","7","7","7","7","6","7","1","7","7","1","7","7","7","7","6","7","7","7","7","7","7","7","7","7","7","7","7","7","7","7","7","7","7","7","7","7","7","7","6","7","621680854329982976","胡","569","Male","[""好他"",""坏他"",""坏我"",""好我""]","[""强他"",""弱他"",""弱我"",""强我""]","","","","","","","","match","","","","","","","","","","key","j","16.664545454545244","768","428","j","true","match","img/circle.png","强他","强他","prac_ALT2_ability","practice_ability","","","","","","","","",""
"null","<span style='color:GreenYellow; font-size: 70px;'>正确! </span>","null","html-keyboard-response","91","422665","0.0-8.0-1.0-1.0-0.0-1.40","7","7","7","7","7","5","5","5","5","5","5","2","2","2","1","2","2","2","2","5","5","5","5","5","4","5","5","5","5","7","7","8","7","7","6","8","8","8","7","7","7","7","7","6","7","1","7","7","1","7","7","7","7","6","7","7","7","7","7","7","7","7","7","7","7","7","7","7","7","7","7","7","7","7","7","7","7","6","7","621680854329982976","胡","569","Male","[""好他"",""坏他"",""坏我"",""好我""]","[""强他"",""弱他"",""弱我"",""强我""]","","","","","","","","","","","","","","","","","","","","","","","","","","","","","","feedback_test","","","","","","","","",""
"554","","f","psychophysics","92","424221","0.0-8.0-1.0-1.0-0.0-0.41","7","7","7","7","7","5","5","5","5","5","5","2","2","2","1","2","2","2","2","5","5","5","5","5","4","5","5","5","5","7","7","8","7","7","6","8","8","8","7","7","7","7","7","6","7","1","7","7","1","7","7","7","7","6","7","7","7","7","7","7","7","7","7","7","7","7","7","7","7","7","7","7","7","7","7","7","7","6","7","621680854329982976","胡","569","Male","[""好他"",""坏他"",""坏我"",""好我""]","[""强他"",""弱他"",""弱我"",""强我""]","","","","","","","","nonmatch","","","","","","","","","","key","f","16.665591397849713","768","428","f","true","nonmatch","img/triangle.png","强他","弱他","prac_ALT2_ability","practice_ability","","","","","","","","",""
"null","<span style='color:GreenYellow; font-size: 70px;'>正确! </span>","null","html-keyboard-response","93","424721","0.0-8.0-1.0-1.0-0.0-1.41","7","7","7","7","7","5","5","5","5","5","5","2","2","2","1","2","2","2","2","5","5","5","5","5","4","5","5","5","5","7","7","8","7","7","6","8","8","8","7","7","7","7","7","6","7","1","7","7","1","7","7","7","7","6","7","7","7","7","7","7","7","7","7","7","7","7","7","7","7","7","7","7","7","7","7","7","7","6","7","621680854329982976","胡","569","Male","[""好他"",""坏他"",""坏我"",""好我""]","[""强他"",""弱他"",""弱我"",""强我""]","","","","","","","","","","","","","","","","","","","","","","","","","","","","","","feedback_test","","","","","","","","",""
"665","","j","psychophysics","94","426389","0.0-8.0-1.0-1.0-0.0-0.42","7","7","7","7","7","5","5","5","5","5","5","2","2","2","1","2","2","2","2","5","5","5","5","5","4","5","5","5","5","7","7","8","7","7","6","8","8","8","7","7","7","7","7","6","7","1","7","7","1","7","7","7","7","6","7","7","7","7","7","7","7","7","7","7","7","7","7","7","7","7","7","7","7","7","7","7","7","6","7","621680854329982976","胡","569","Male","[""好他"",""坏他"",""坏我"",""好我""]","[""强他"",""弱他"",""弱我"",""强我""]","","","","","","","","match","","","","","","","","","","key","j","16.6656565656568","768","428","j","true","match","img/pentagon.png","强我","强我","prac_ALT2_ability","practice_ability","","","","","","","","",""
"null","<span style='color:GreenYellow; font-size: 70px;'>正确! </span>","null","html-keyboard-response","95","426889","0.0-8.0-1.0-1.0-0.0-1.42","7","7","7","7","7","5","5","5","5","5","5","2","2","2","1","2","2","2","2","5","5","5","5","5","4","5","5","5","5","7","7","8","7","7","6","8","8","8","7","7","7","7","7","6","7","1","7","7","1","7","7","7","7","6","7","7","7","7","7","7","7","7","7","7","7","7","7","7","7","7","7","7","7","7","7","7","7","6","7","621680854329982976","胡","569","Male","[""好他"",""坏他"",""坏我"",""好我""]","[""强他"",""弱他"",""弱我"",""强我""]","","","","","","","","","","","","","","","","","","","","","","","","","","","","","","feedback_test","","","","","","","","",""
"865","","f","psychophysics","96","428757","0.0-8.0-1.0-1.0-0.0-0.43","7","7","7","7","7","5","5","5","5","5","5","2","2","2","1","2","2","2","2","5","5","5","5","5","4","5","5","5","5","7","7","8","7","7","6","8","8","8","7","7","7","7","7","6","7","1","7","7","1","7","7","7","7","6","7","7","7","7","7","7","7","7","7","7","7","7","7","7","7","7","7","7","7","7","7","7","7","6","7","621680854329982976","胡","569","Male","[""好他"",""坏他"",""坏我"",""好我""]","[""强他"",""弱他"",""弱我"",""强我""]","","","","","","","","nonmatch","","","","","","","","","","key","f","16.66396396396407","768","428","f","true","nonmatch","img/circle.png","弱他","强他","prac_ALT2_ability","practice_ability","","","","","","","","",""
"null","<span style='color:GreenYellow; font-size: 70px;'>正确! </span>","null","html-keyboard-response","97","429257","0.0-8.0-1.0-1.0-0.0-1.43","7","7","7","7","7","5","5","5","5","5","5","2","2","2","1","2","2","2","2","5","5","5","5","5","4","5","5","5","5","7","7","8","7","7","6","8","8","8","7","7","7","7","7","6","7","1","7","7","1","7","7","7","7","6","7","7","7","7","7","7","7","7","7","7","7","7","7","7","7","7","7","7","7","7","7","7","7","6","7","621680854329982976","胡","569","Male","[""好他"",""坏他"",""坏我"",""好我""]","[""强他"",""弱他"",""弱我"",""强我""]","","","","","","","","","","","","","","","","","","","","","","","","","","","","","","feedback_test","","","","","","","","",""
"506","","f","psychophysics","98","430765","0.0-8.0-1.0-1.0-0.0-0.44","7","7","7","7","7","5","5","5","5","5","5","2","2","2","1","2","2","2","2","5","5","5","5","5","4","5","5","5","5","7","7","8","7","7","6","8","8","8","7","7","7","7","7","6","7","1","7","7","1","7","7","7","7","6","7","7","7","7","7","7","7","7","7","7","7","7","7","7","7","7","7","7","7","7","7","7","7","6","7","621680854329982976","胡","569","Male","[""好他"",""坏他"",""坏我"",""好我""]","[""强他"",""弱他"",""弱我"",""强我""]","","","","","","","","nonmatch","","","","","","","","","","key","f","16.665168539325972","768","428","f","true","nonmatch","img/trapezoid.png","强他","弱我","prac_ALT2_ability","practice_ability","","","","","","","","",""
"null","<span style='color:GreenYellow; font-size: 70px;'>正确! </span>","null","html-keyboard-response","99","431266","0.0-8.0-1.0-1.0-0.0-1.44","7","7","7","7","7","5","5","5","5","5","5","2","2","2","1","2","2","2","2","5","5","5","5","5","4","5","5","5","5","7","7","8","7","7","6","8","8","8","7","7","7","7","7","6","7","1","7","7","1","7","7","7","7","6","7","7","7","7","7","7","7","7","7","7","7","7","7","7","7","7","7","7","7","7","7","7","7","6","7","621680854329982976","胡","569","Male","[""好他"",""坏他"",""坏我"",""好我""]","[""强他"",""弱他"",""弱我"",""强我""]","","","","","","","","","","","","","","","","","","","","","","","","","","","","","","feedback_test","","","","","","","","",""
"632","","j","psychophysics","100","432900","0.0-8.0-1.0-1.0-0.0-0.45","7","7","7","7","7","5","5","5","5","5","5","2","2","2","1","2","2","2","2","5","5","5","5","5","4","5","5","5","5","7","7","8","7","7","6","8","8","8","7","7","7","7","7","6","7","1","7","7","1","7","7","7","7","6","7","7","7","7","7","7","7","7","7","7","7","7","7","7","7","7","7","7","7","7","7","7","7","6","7","621680854329982976","胡","569","Male","[""好他"",""坏他"",""坏我"",""好我""]","[""强他"",""弱他"",""弱我"",""强我""]","","","","","","","","match","","","","","","","","","","key","j","16.664948453608247","768","428","j","true","match","img/circle.png","强他","强他","prac_ALT2_ability","practice_ability","","","","","","","","",""
"null","<span style='color:GreenYellow; font-size: 70px;'>正确! </span>","null","html-keyboard-response","101","433401","0.0-8.0-1.0-1.0-0.0-1.45","7","7","7","7","7","5","5","5","5","5","5","2","2","2","1","2","2","2","2","5","5","5","5","5","4","5","5","5","5","7","7","8","7","7","6","8","8","8","7","7","7","7","7","6","7","1","7","7","1","7","7","7","7","6","7","7","7","7","7","7","7","7","7","7","7","7","7","7","7","7","7","7","7","7","7","7","7","6","7","621680854329982976","胡","569","Male","[""好他"",""坏他"",""坏我"",""好我""]","[""强他"",""弱他"",""弱我"",""强我""]","","","","","","","","","","","","","","","","","","","","","","","","","","","","","","feedback_test","","","","","","","","",""
"506","","j","psychophysics","102","434908","0.0-8.0-1.0-1.0-0.0-0.46","7","7","7","7","7","5","5","5","5","5","5","2","2","2","1","2","2","2","2","5","5","5","5","5","4","5","5","5","5","7","7","8","7","7","6","8","8","8","7","7","7","7","7","6","7","1","7","7","1","7","7","7","7","6","7","7","7","7","7","7","7","7","7","7","7","7","7","7","7","7","7","7","7","7","7","7","7","6","7","621680854329982976","胡","569","Male","[""好他"",""坏他"",""坏我"",""好我""]","[""强他"",""弱他"",""弱我"",""强我""]","","","","","","","","match","","","","","","","","","","key","j","16.664044943819963","768","428","f","false","nonmatch","img/pentagon.png","弱我","强我","prac_ALT2_ability","practice_ability","","","","","","","","",""
"null","<span style='color:red; font-size: 70px;'>错误! </span>","null","html-keyboard-response","103","435409","0.0-8.0-1.0-1.0-0.0-1.46","7","7","7","7","7","5","5","5","5","5","5","2","2","2","1","2","2","2","2","5","5","5","5","5","4","5","5","5","5","7","7","8","7","7","6","8","8","8","7","7","7","7","7","6","7","1","7","7","1","7","7","7","7","6","7","7","7","7","7","7","7","7","7","7","7","7","7","7","7","7","7","7","7","7","7","7","7","6","7","621680854329982976","胡","569","Male","[""好他"",""坏他"",""坏我"",""好我""]","[""强他"",""弱他"",""弱我"",""强我""]","","","","","","","","","","","","","","","","","","","","","","","","","","","","","","feedback_test","","","","","","","","",""
"570","","j","psychophysics","104","436981","0.0-8.0-1.0-1.0-0.0-0.47","7","7","7","7","7","5","5","5","5","5","5","2","2","2","1","2","2","2","2","5","5","5","5","5","4","5","5","5","5","7","7","8","7","7","6","8","8","8","7","7","7","7","7","6","7","1","7","7","1","7","7","7","7","6","7","7","7","7","7","7","7","7","7","7","7","7","7","7","7","7","7","7","7","7","7","7","7","6","7","621680854329982976","胡","569","Male","[""好他"",""坏他"",""坏我"",""好我""]","[""强他"",""弱他"",""弱我"",""强我""]","","","","","","","","match","","","","","","","","","","key","j","16.666666666666668","768","428","j","true","match","img/pentagon.png","强我","强我","prac_ALT2_ability","practice_ability","","","","","","","","",""
"null","<span style='color:GreenYellow; font-size: 70px;'>正确! </span>","null","html-keyboard-response","105","437482","0.0-8.0-1.0-1.0-0.0-1.47","7","7","7","7","7","5","5","5","5","5","5","2","2","2","1","2","2","2","2","5","5","5","5","5","4","5","5","5","5","7","7","8","7","7","6","8","8","8","7","7","7","7","7","6","7","1","7","7","1","7","7","7","7","6","7","7","7","7","7","7","7","7","7","7","7","7","7","7","7","7","7","7","7","7","7","7","7","6","7","621680854329982976","胡","569","Male","[""好他"",""坏他"",""坏我"",""好我""]","[""强他"",""弱他"",""弱我"",""强我""]","","","","","","","","","","","","","","","","","","","","","","","","","","","","","","feedback_test","","","","","","","","",""
"57433","<style>.context{color:white; font-size: 35px; line-height:40px}</style>                          <div><p class='context'>您正确回答了77% 的试次。</p><p class='context'>您的平均反应时为728毫秒。</p><p class='context'>恭喜您完成练习。按空格键进入正式实验。</p><p class='footer' style='color:white;font-size: 35px; line-height:40px;'>请在进入正式实验实验之前将您的<span style='color: lightgreen;'>食指</span>放在电脑键盘的相应键位上进行按键。</p>"," ","html-keyboard-response","106","494917","0.0-8.0-1.0-2.0","7","7","7","7","7","5","5","5","5","5","5","2","2","2","1","2","2","2","2","5","5","5","5","5","4","5","5","5","5","7","7","8","7","7","6","8","8","8","7","7","7","7","7","6","7","1","7","7","1","7","7","7","7","6","7","7","7","7","7","7","7","7","7","7","7","7","7","7","7","7","7","7","7","7","7","7","7","6","7","621680854329982976","胡","569","Male","[""好他"",""坏他"",""坏我"",""好我""]","[""强他"",""弱他"",""弱我"",""强我""]","","","","","","","","","","","","","","","","","","","","","","","","","","","","","","","","","","","","","","",""
"5724","
  <p style='color: white; font-size: 22px'>请您将手指放在按键上，准备进入正式的匹配任务。</p>
  <p> <div style = ""color: green""><按空格键进入下一阶段的匹配任务></div></p>
  "," ","html-keyboard-response","107","500644","0.0-8.0-1.0-3.0","7","7","7","7","7","5","5","5","5","5","5","2","2","2","1","2","2","2","2","5","5","5","5","5","4","5","5","5","5","7","7","8","7","7","6","8","8","8","7","7","7","7","7","6","7","1","7","7","1","7","7","7","7","6","7","7","7","7","7","7","7","7","7","7","7","7","7","7","7","7","7","7","7","7","7","7","7","6","7","621680854329982976","胡","569","Male","[""好他"",""坏他"",""坏我"",""好我""]","[""强他"",""弱他"",""弱我"",""强我""]","","","","","","","","","","","","","","","","","","","","","","","","","","","","","","","","","","","","","","",""
"694","","j","psychophysics","108","502340","0.0-8.0-1.0-4.0-0.0-0.0","7","7","7","7","7","5","5","5","5","5","5","2","2","2","1","2","2","2","2","5","5","5","5","5","4","5","5","5","5","7","7","8","7","7","6","8","8","8","7","7","7","7","7","6","7","1","7","7","1","7","7","7","7","6","7","7","7","7","7","7","7","7","7","7","7","7","7","7","7","7","7","7","7","7","7","7","7","6","7","621680854329982976","胡","569","Male","[""好他"",""坏他"",""坏我"",""好我""]","[""强他"",""弱他"",""弱我"",""强我""]","","","","","","","","match","","","","","","","","","","key","j","16.664000000000232","768","428","j","true","match","img/pentagon.png","强我","强我","ALT2","ability","","","","","","","","",""
"null","<span style='color:GreenYellow; font-size: 70px;'>正确! </span>","null","html-keyboard-response","109","502842","0.0-8.0-1.0-4.0-0.0-1.0","7","7","7","7","7","5","5","5","5","5","5","2","2","2","1","2","2","2","2","5","5","5","5","5","4","5","5","5","5","7","7","8","7","7","6","8","8","8","7","7","7","7","7","6","7","1","7","7","1","7","7","7","7","6","7","7","7","7","7","7","7","7","7","7","7","7","7","7","7","7","7","7","7","7","7","7","7","6","7","621680854329982976","胡","569","Male","[""好他"",""坏他"",""坏我"",""好我""]","[""强他"",""弱他"",""弱我"",""强我""]","","","","","","","","","","","","","","","","","","","","","","","","","","","","","","feedback_test","","","","","","","","",""
"706","","j","psychophysics","110","504549","0.0-8.0-1.0-4.0-0.0-0.1","7","7","7","7","7","5","5","5","5","5","5","2","2","2","1","2","2","2","2","5","5","5","5","5","4","5","5","5","5","7","7","8","7","7","6","8","8","8","7","7","7","7","7","6","7","1","7","7","1","7","7","7","7","6","7","7","7","7","7","7","7","7","7","7","7","7","7","7","7","7","7","7","7","7","7","7","7","6","7","621680854329982976","胡","569","Male","[""好他"",""坏他"",""坏我"",""好我""]","[""强他"",""弱他"",""弱我"",""强我""]","","","","","","","","match","","","","","","","","","","key","j","16.65643564356424","768","428","j","true","match","img/trapezoid.png","弱我","弱我","ALT2","ability","","","","","","","","",""
"null","<span style='color:GreenYellow; font-size: 70px;'>正确! </span>","null","html-keyboard-response","111","505050","0.0-8.0-1.0-4.0-0.0-1.1","7","7","7","7","7","5","5","5","5","5","5","2","2","2","1","2","2","2","2","5","5","5","5","5","4","5","5","5","5","7","7","8","7","7","6","8","8","8","7","7","7","7","7","6","7","1","7","7","1","7","7","7","7","6","7","7","7","7","7","7","7","7","7","7","7","7","7","7","7","7","7","7","7","7","7","7","7","6","7","621680854329982976","胡","569","Male","[""好他"",""坏他"",""坏我"",""好我""]","[""强他"",""弱他"",""弱我"",""强我""]","","","","","","","","","","","","","","","","","","","","","","","","","","","","","","feedback_test","","","","","","","","",""
"674","","j","psychophysics","112","506725","0.0-8.0-1.0-4.0-0.0-0.2","7","7","7","7","7","5","5","5","5","5","5","2","2","2","1","2","2","2","2","5","5","5","5","5","4","5","5","5","5","7","7","8","7","7","6","8","8","8","7","7","7","7","7","6","7","1","7","7","1","7","7","7","7","6","7","7","7","7","7","7","7","7","7","7","7","7","7","7","7","7","7","7","7","7","7","7","7","6","7","621680854329982976","胡","569","Male","[""好他"",""坏他"",""坏我"",""好我""]","[""强他"",""弱他"",""弱我"",""强我""]","","","","","","","","match","","","","","","","","","","key","j","16.664646464646346","768","428","j","true","match","img/circle.png","强他","强他","ALT2","ability","","","","","","","","",""
"null","<span style='color:GreenYellow; font-size: 70px;'>正确! </span>","null","html-keyboard-response","113","507227","0.0-8.0-1.0-4.0-0.0-1.2","7","7","7","7","7","5","5","5","5","5","5","2","2","2","1","2","2","2","2","5","5","5","5","5","4","5","5","5","5","7","7","8","7","7","6","8","8","8","7","7","7","7","7","6","7","1","7","7","1","7","7","7","7","6","7","7","7","7","7","7","7","7","7","7","7","7","7","7","7","7","7","7","7","7","7","7","7","6","7","621680854329982976","胡","569","Male","[""好他"",""坏他"",""坏我"",""好我""]","[""强他"",""弱他"",""弱我"",""强我""]","","","","","","","","","","","","","","","","","","","","","","","","","","","","","","feedback_test","","","","","","","","",""
"640","","j","psychophysics","114","508868","0.0-8.0-1.0-4.0-0.0-0.3","7","7","7","7","7","5","5","5","5","5","5","2","2","2","1","2","2","2","2","5","5","5","5","5","4","5","5","5","5","7","7","8","7","7","6","8","8","8","7","7","7","7","7","6","7","1","7","7","1","7","7","7","7","6","7","7","7","7","7","7","7","7","7","7","7","7","7","7","7","7","7","7","7","7","7","7","7","6","7","621680854329982976","胡","569","Male","[""好他"",""坏他"",""坏我"",""好我""]","[""强他"",""弱他"",""弱我"",""强我""]","","","","","","","","match","","","","","","","","","","key","j","16.664948453608247","768","428","j","true","match","img/pentagon.png","强我","强我","ALT2","ability","","","","","","","","",""
"null","<span style='color:GreenYellow; font-size: 70px;'>正确! </span>","null","html-keyboard-response","115","509369","0.0-8.0-1.0-4.0-0.0-1.3","7","7","7","7","7","5","5","5","5","5","5","2","2","2","1","2","2","2","2","5","5","5","5","5","4","5","5","5","5","7","7","8","7","7","6","8","8","8","7","7","7","7","7","6","7","1","7","7","1","7","7","7","7","6","7","7","7","7","7","7","7","7","7","7","7","7","7","7","7","7","7","7","7","7","7","7","7","6","7","621680854329982976","胡","569","Male","[""好他"",""坏他"",""坏我"",""好我""]","[""强他"",""弱他"",""弱我"",""强我""]","","","","","","","","","","","","","","","","","","","","","","","","","","","","","","feedback_test","","","","","","","","",""
"673","","j","psychophysics","116","511045","0.0-8.0-1.0-4.0-0.0-0.4","7","7","7","7","7","5","5","5","5","5","5","2","2","2","1","2","2","2","2","5","5","5","5","5","4","5","5","5","5","7","7","8","7","7","6","8","8","8","7","7","7","7","7","6","7","1","7","7","1","7","7","7","7","6","7","7","7","7","7","7","7","7","7","7","7","7","7","7","7","7","7","7","7","7","7","7","7","6","7","621680854329982976","胡","569","Male","[""好他"",""坏他"",""坏我"",""好我""]","[""强他"",""弱他"",""弱我"",""强我""]","","","","","","","","match","","","","","","","","","","key","j","16.66600000000035","768","428","j","true","match","img/triangle.png","弱他","弱他","ALT2","ability","","","","","","","","",""
"null","<span style='color:GreenYellow; font-size: 70px;'>正确! </span>","null","html-keyboard-response","117","511546","0.0-8.0-1.0-4.0-0.0-1.4","7","7","7","7","7","5","5","5","5","5","5","2","2","2","1","2","2","2","2","5","5","5","5","5","4","5","5","5","5","7","7","8","7","7","6","8","8","8","7","7","7","7","7","6","7","1","7","7","1","7","7","7","7","6","7","7","7","7","7","7","7","7","7","7","7","7","7","7","7","7","7","7","7","7","7","7","7","6","7","621680854329982976","胡","569","Male","[""好他"",""坏他"",""坏我"",""好我""]","[""强他"",""弱他"",""弱我"",""强我""]","","","","","","","","","","","","","","","","","","","","","","","","","","","","","","feedback_test","","","","","","","","",""
"858","","f","psychophysics","118","513405","0.0-8.0-1.0-4.0-0.0-0.5","7","7","7","7","7","5","5","5","5","5","5","2","2","2","1","2","2","2","2","5","5","5","5","5","4","5","5","5","5","7","7","8","7","7","6","8","8","8","7","7","7","7","7","6","7","1","7","7","1","7","7","7","7","6","7","7","7","7","7","7","7","7","7","7","7","7","7","7","7","7","7","7","7","7","7","7","7","6","7","621680854329982976","胡","569","Male","[""好他"",""坏他"",""坏我"",""好我""]","[""强他"",""弱他"",""弱我"",""强我""]","","","","","","","","nonmatch","","","","","","","","","","key","f","16.66636363636353","768","428","f","true","nonmatch","img/trapezoid.png","强我","弱我","ALT2","ability","","","","","","","","",""
"null","<span style='color:GreenYellow; font-size: 70px;'>正确! </span>","null","html-keyboard-response","119","513905","0.0-8.0-1.0-4.0-0.0-1.5","7","7","7","7","7","5","5","5","5","5","5","2","2","2","1","2","2","2","2","5","5","5","5","5","4","5","5","5","5","7","7","8","7","7","6","8","8","8","7","7","7","7","7","6","7","1","7","7","1","7","7","7","7","6","7","7","7","7","7","7","7","7","7","7","7","7","7","7","7","7","7","7","7","7","7","7","7","6","7","621680854329982976","胡","569","Male","[""好他"",""坏他"",""坏我"",""好我""]","[""强他"",""弱他"",""弱我"",""强我""]","","","","","","","","","","","","","","","","","","","","","","","","","","","","","","feedback_test","","","","","","","","",""
"810","","j","psychophysics","120","515717","0.0-8.0-1.0-4.0-0.0-0.6","7","7","7","7","7","5","5","5","5","5","5","2","2","2","1","2","2","2","2","5","5","5","5","5","4","5","5","5","5","7","7","8","7","7","6","8","8","8","7","7","7","7","7","6","7","1","7","7","1","7","7","7","7","6","7","7","7","7","7","7","7","7","7","7","7","7","7","7","7","7","7","7","7","7","7","7","7","6","7","621680854329982976","胡","569","Male","[""好他"",""坏他"",""坏我"",""好我""]","[""强他"",""弱他"",""弱我"",""强我""]","","","","","","","","match","","","","","","","","","","key","j","16.665740740740418","768","428","j","true","match","img/triangle.png","弱他","弱他","ALT2","ability","","","","","","","","",""
"null","<span style='color:GreenYellow; font-size: 70px;'>正确! </span>","null","html-keyboard-response","121","516218","0.0-8.0-1.0-4.0-0.0-1.6","7","7","7","7","7","5","5","5","5","5","5","2","2","2","1","2","2","2","2","5","5","5","5","5","4","5","5","5","5","7","7","8","7","7","6","8","8","8","7","7","7","7","7","6","7","1","7","7","1","7","7","7","7","6","7","7","7","7","7","7","7","7","7","7","7","7","7","7","7","7","7","7","7","7","7","7","7","6","7","621680854329982976","胡","569","Male","[""好他"",""坏他"",""坏我"",""好我""]","[""强他"",""弱他"",""弱我"",""强我""]","","","","","","","","","","","","","","","","","","","","","","","","","","","","","","feedback_test","","","","","","","","",""
"625","","j","psychophysics","122","517845","0.0-8.0-1.0-4.0-0.0-0.7","7","7","7","7","7","5","5","5","5","5","5","2","2","2","1","2","2","2","2","5","5","5","5","5","4","5","5","5","5","7","7","8","7","7","6","8","8","8","7","7","7","7","7","6","7","1","7","7","1","7","7","7","7","6","7","7","7","7","7","7","7","7","7","7","7","7","7","7","7","7","7","7","7","7","7","7","7","6","7","621680854329982976","胡","569","Male","[""好他"",""坏他"",""坏我"",""好我""]","[""强他"",""弱他"",""弱我"",""强我""]","","","","","","","","match","","","","","","","","","","key","j","16.663917525772835","768","428","j","true","match","img/pentagon.png","强我","强我","ALT2","ability","","","","","","","","",""
"null","<span style='color:GreenYellow; font-size: 70px;'>正确! </span>","null","html-keyboard-response","123","518347","0.0-8.0-1.0-4.0-0.0-1.7","7","7","7","7","7","5","5","5","5","5","5","2","2","2","1","2","2","2","2","5","5","5","5","5","4","5","5","5","5","7","7","8","7","7","6","8","8","8","7","7","7","7","7","6","7","1","7","7","1","7","7","7","7","6","7","7","7","7","7","7","7","7","7","7","7","7","7","7","7","7","7","7","7","7","7","7","7","6","7","621680854329982976","胡","569","Male","[""好他"",""坏他"",""坏我"",""好我""]","[""强他"",""弱他"",""弱我"",""强我""]","","","","","","","","","","","","","","","","","","","","","","","","","","","","","","feedback_test","","","","","","","","",""
"704","","f","psychophysics","124","520052","0.0-8.0-1.0-4.0-0.0-0.8","7","7","7","7","7","5","5","5","5","5","5","2","2","2","1","2","2","2","2","5","5","5","5","5","4","5","5","5","5","7","7","8","7","7","6","8","8","8","7","7","7","7","7","6","7","1","7","7","1","7","7","7","7","6","7","7","7","7","7","7","7","7","7","7","7","7","7","7","7","7","7","7","7","7","7","7","7","6","7","621680854329982976","胡","569","Male","[""好他"",""坏他"",""坏我"",""好我""]","[""强他"",""弱他"",""弱我"",""强我""]","","","","","","","","nonmatch","","","","","","","","","","key","f","16.66633663366383","768","428","f","true","nonmatch","img/circle.png","强我","强他","ALT2","ability","","","","","","","","",""
"null","<span style='color:GreenYellow; font-size: 70px;'>正确! </span>","null","html-keyboard-response","125","520553","0.0-8.0-1.0-4.0-0.0-1.8","7","7","7","7","7","5","5","5","5","5","5","2","2","2","1","2","2","2","2","5","5","5","5","5","4","5","5","5","5","7","7","8","7","7","6","8","8","8","7","7","7","7","7","6","7","1","7","7","1","7","7","7","7","6","7","7","7","7","7","7","7","7","7","7","7","7","7","7","7","7","7","7","7","7","7","7","7","6","7","621680854329982976","胡","569","Male","[""好他"",""坏他"",""坏我"",""好我""]","[""强他"",""弱他"",""弱我"",""强我""]","","","","","","","","","","","","","","","","","","","","","","","","","","","","","","feedback_test","","","","","","","","",""
"667","","f","psychophysics","126","522221","0.0-8.0-1.0-4.0-0.0-0.9","7","7","7","7","7","5","5","5","5","5","5","2","2","2","1","2","2","2","2","5","5","5","5","5","4","5","5","5","5","7","7","8","7","7","6","8","8","8","7","7","7","7","7","6","7","1","7","7","1","7","7","7","7","6","7","7","7","7","7","7","7","7","7","7","7","7","7","7","7","7","7","7","7","7","7","7","7","6","7","621680854329982976","胡","569","Male","[""好他"",""坏他"",""坏我"",""好我""]","[""强他"",""弱他"",""弱我"",""强我""]","","","","","","","","nonmatch","","","","","","","","","","key","f","16.66363636363589","768","428","f","true","nonmatch","img/pentagon.png","强他","强我","ALT2","ability","","","","","","","","",""
"null","<span style='color:GreenYellow; font-size: 70px;'>正确! </span>","null","html-keyboard-response","127","522723","0.0-8.0-1.0-4.0-0.0-1.9","7","7","7","7","7","5","5","5","5","5","5","2","2","2","1","2","2","2","2","5","5","5","5","5","4","5","5","5","5","7","7","8","7","7","6","8","8","8","7","7","7","7","7","6","7","1","7","7","1","7","7","7","7","6","7","7","7","7","7","7","7","7","7","7","7","7","7","7","7","7","7","7","7","7","7","7","7","6","7","621680854329982976","胡","569","Male","[""好他"",""坏他"",""坏我"",""好我""]","[""强他"",""弱他"",""弱我"",""强我""]","","","","","","","","","","","","","","","","","","","","","","","","","","","","","","feedback_test","","","","","","","","",""
"776","","f","psychophysics","128","524501","0.0-8.0-1.0-4.0-0.0-0.10","7","7","7","7","7","5","5","5","5","5","5","2","2","2","1","2","2","2","2","5","5","5","5","5","4","5","5","5","5","7","7","8","7","7","6","8","8","8","7","7","7","7","7","6","7","1","7","7","1","7","7","7","7","6","7","7","7","7","7","7","7","7","7","7","7","7","7","7","7","7","7","7","7","7","7","7","7","6","7","621680854329982976","胡","569","Male","[""好他"",""坏他"",""坏我"",""好我""]","[""强他"",""弱他"",""弱我"",""强我""]","","","","","","","","nonmatch","","","","","","","","","","key","f","16.66509433962319","768","428","j","false","match","img/trapezoid.png","弱我","弱我","ALT2","ability","","","","","","","","",""
"null","<span style='color:red; font-size: 70px;'>错误! </span>","null","html-keyboard-response","129","525002","0.0-8.0-1.0-4.0-0.0-1.10","7","7","7","7","7","5","5","5","5","5","5","2","2","2","1","2","2","2","2","5","5","5","5","5","4","5","5","5","5","7","7","8","7","7","6","8","8","8","7","7","7","7","7","6","7","1","7","7","1","7","7","7","7","6","7","7","7","7","7","7","7","7","7","7","7","7","7","7","7","7","7","7","7","7","7","7","7","6","7","621680854329982976","胡","569","Male","[""好他"",""坏他"",""坏我"",""好我""]","[""强他"",""弱他"",""弱我"",""强我""]","","","","","","","","","","","","","","","","","","","","","","","","","","","","","","feedback_test","","","","","","","","",""
"650","","f","psychophysics","130","526654","0.0-8.0-1.0-4.0-0.0-0.11","7","7","7","7","7","5","5","5","5","5","5","2","2","2","1","2","2","2","2","5","5","5","5","5","4","5","5","5","5","7","7","8","7","7","6","8","8","8","7","7","7","7","7","6","7","1","7","7","1","7","7","7","7","6","7","7","7","7","7","7","7","7","7","7","7","7","7","7","7","7","7","7","7","7","7","7","7","6","7","621680854329982976","胡","569","Male","[""好他"",""坏他"",""坏我"",""好我""]","[""强他"",""弱他"",""弱我"",""强我""]","","","","","","","","nonmatch","","","","","","","","","","key","f","16.66632653061153","768","428","f","true","nonmatch","img/triangle.png","弱我","弱他","ALT2","ability","","","","","","","","",""
"null","<span style='color:GreenYellow; font-size: 70px;'>正确! </span>","null","html-keyboard-response","131","527154","0.0-8.0-1.0-4.0-0.0-1.11","7","7","7","7","7","5","5","5","5","5","5","2","2","2","1","2","2","2","2","5","5","5","5","5","4","5","5","5","5","7","7","8","7","7","6","8","8","8","7","7","7","7","7","6","7","1","7","7","1","7","7","7","7","6","7","7","7","7","7","7","7","7","7","7","7","7","7","7","7","7","7","7","7","7","7","7","7","6","7","621680854329982976","胡","569","Male","[""好他"",""坏他"",""坏我"",""好我""]","[""强他"",""弱他"",""弱我"",""强我""]","","","","","","","","","","","","","","","","","","","","","","","","","","","","","","feedback_test","","","","","","","","",""
"944","","f","psychophysics","132","529101","0.0-8.0-1.0-4.0-0.0-0.12","7","7","7","7","7","5","5","5","5","5","5","2","2","2","1","2","2","2","2","5","5","5","5","5","4","5","5","5","5","7","7","8","7","7","6","8","8","8","7","7","7","7","7","6","7","1","7","7","1","7","7","7","7","6","7","7","7","7","7","7","7","7","7","7","7","7","7","7","7","7","7","7","7","7","7","7","7","6","7","621680854329982976","胡","569","Male","[""好他"",""坏他"",""坏我"",""好我""]","[""强他"",""弱他"",""弱我"",""强我""]","","","","","","","","nonmatch","","","","","","","","","","key","f","16.664655172413593","768","428","j","false","match","img/triangle.png","弱他","弱他","ALT2","ability","","","","","","","","",""
"null","<span style='color:red; font-size: 70px;'>错误! </span>","null","html-keyboard-response","133","529603","0.0-8.0-1.0-4.0-0.0-1.12","7","7","7","7","7","5","5","5","5","5","5","2","2","2","1","2","2","2","2","5","5","5","5","5","4","5","5","5","5","7","7","8","7","7","6","8","8","8","7","7","7","7","7","6","7","1","7","7","1","7","7","7","7","6","7","7","7","7","7","7","7","7","7","7","7","7","7","7","7","7","7","7","7","7","7","7","7","6","7","621680854329982976","胡","569","Male","[""好他"",""坏他"",""坏我"",""好我""]","[""强他"",""弱他"",""弱我"",""强我""]","","","","","","","","","","","","","","","","","","","","","","","","","","","","","","feedback_test","","","","","","","","",""
"687","","f","psychophysics","134","531292","0.0-8.0-1.0-4.0-0.0-0.13","7","7","7","7","7","5","5","5","5","5","5","2","2","2","1","2","2","2","2","5","5","5","5","5","4","5","5","5","5","7","7","8","7","7","6","8","8","8","7","7","7","7","7","6","7","1","7","7","1","7","7","7","7","6","7","7","7","7","7","7","7","7","7","7","7","7","7","7","7","7","7","7","7","7","7","7","7","6","7","621680854329982976","胡","569","Male","[""好他"",""坏他"",""坏我"",""好我""]","[""强他"",""弱他"",""弱我"",""强我""]","","","","","","","","nonmatch","","","","","","","","","","key","f","16.664356435643334","768","428","f","true","nonmatch","img/pentagon.png","弱我","强我","ALT2","ability","","","","","","","","",""
"null","<span style='color:GreenYellow; font-size: 70px;'>正确! </span>","null","html-keyboard-response","135","531793","0.0-8.0-1.0-4.0-0.0-1.13","7","7","7","7","7","5","5","5","5","5","5","2","2","2","1","2","2","2","2","5","5","5","5","5","4","5","5","5","5","7","7","8","7","7","6","8","8","8","7","7","7","7","7","6","7","1","7","7","1","7","7","7","7","6","7","7","7","7","7","7","7","7","7","7","7","7","7","7","7","7","7","7","7","7","7","7","7","6","7","621680854329982976","胡","569","Male","[""好他"",""坏他"",""坏我"",""好我""]","[""强他"",""弱他"",""弱我"",""强我""]","","","","","","","","","","","","","","","","","","","","","","","","","","","","","","feedback_test","","","","","","","","",""
"762","","j","psychophysics","136","533556","0.0-8.0-1.0-4.0-0.0-0.14","7","7","7","7","7","5","5","5","5","5","5","2","2","2","1","2","2","2","2","5","5","5","5","5","4","5","5","5","5","7","7","8","7","7","6","8","8","8","7","7","7","7","7","6","7","1","7","7","1","7","7","7","7","6","7","7","7","7","7","7","7","7","7","7","7","7","7","7","7","7","7","7","7","7","7","7","7","6","7","621680854329982976","胡","569","Male","[""好他"",""坏他"",""坏我"",""好我""]","[""强他"",""弱他"",""弱我"",""强我""]","","","","","","","","match","","","","","","","","","","key","j","16.665384615385285","768","428","f","false","nonmatch","img/circle.png","弱他","强他","ALT2","ability","","","","","","","","",""
"null","<span style='color:red; font-size: 70px;'>错误! </span>","null","html-keyboard-response","137","534058","0.0-8.0-1.0-4.0-0.0-1.14","7","7","7","7","7","5","5","5","5","5","5","2","2","2","1","2","2","2","2","5","5","5","5","5","4","5","5","5","5","7","7","8","7","7","6","8","8","8","7","7","7","7","7","6","7","1","7","7","1","7","7","7","7","6","7","7","7","7","7","7","7","7","7","7","7","7","7","7","7","7","7","7","7","7","7","7","7","6","7","621680854329982976","胡","569","Male","[""好他"",""坏他"",""坏我"",""好我""]","[""强他"",""弱他"",""弱我"",""强我""]","","","","","","","","","","","","","","","","","","","","","","","","","","","","","","feedback_test","","","","","","","","",""
"842","","f","psychophysics","138","535902","0.0-8.0-1.0-4.0-0.0-0.15","7","7","7","7","7","5","5","5","5","5","5","2","2","2","1","2","2","2","2","5","5","5","5","5","4","5","5","5","5","7","7","8","7","7","6","8","8","8","7","7","7","7","7","6","7","1","7","7","1","7","7","7","7","6","7","7","7","7","7","7","7","7","7","7","7","7","7","7","7","7","7","7","7","7","7","7","7","6","7","621680854329982976","胡","569","Male","[""好他"",""坏他"",""坏我"",""好我""]","[""强他"",""弱他"",""弱我"",""强我""]","","","","","","","","nonmatch","","","","","","","","","","key","f","16.665137614678898","768","428","f","true","nonmatch","img/triangle.png","强他","弱他","ALT2","ability","","","","","","","","",""
