"rt","stimulus","response","trial_type","trial_index","time_elapsed","internal_node_id","swb_1","swb_2","swb_3","swb_4","swb_5","LOT_1","LOT_2","LOT_3","LOT_4","LOT_5","LOT_6","IPC_1","IPC_2","IPC_3","IPC_4","IPC_5","IPC_6","IPC_7","IPC_8","MorIden_1","MorIden_2","MorIden_3","MorIden_4","MorIden_5","MorIden_6","MorIden_7","MorIden_8","MorIden_9","MorIden_10","moralSeImag_1","moralSeImag_2","moralSeImag_3","moralSeImag_4","moralSeImag_5","moralSeImag_6","moralSeImag_7","moralSeImag_8","moralSeImag_9","sde_1","sde_2","sde_3","sde_4","sde_5","sde_6","sde_7","sde_8","sde_9","sde_10","trap2","sde_11","sde_12","sde_13","sde_14","sde_15","sde_16","sde_17","sde_18","sde_19","sde_20","IM_1","IM_2","IM_3","IM_4","IM_5","IM_6","IM_7","IM_8","IM_9","IM_10","IM_11","IM_12","IM_13","IM_14","IM_15","IM_16","IM_17","IM_18","IM_19","IM_20","subj_idx","friend_name","ParticipantID","Sex","Word","Word2","value","success","timeout","failed_images","failed_audio","failed_video","user_agent","responses","item_order","radio_event_ids","radio_event_times","key_event_times","mouse_event_times","straightlining","zigzagging","honeypot","view_history","response_type","key_press","avg_frame_time","center_x","center_y","correct_response","correct","identity","Image","word","condition","task_id","screen_id","time_stamp","person","valence","domain","math","status","duration","question_order","trap2_item"
"3423","
   <p><div style='color:white; font-size: 25px'>您好，欢迎参加本次实验。</div></p>
   <p><div style='color:white; font-size: 25px'>为充分保障您的权利，请确保您已经知晓并同意《参与实验同意书》以及《数据公开知情同意书》。</div></p>
   <p><div style='color:white; font-size: 25px'>如果您未见过上述内容，请咨询实验员。</div></p>
   <p style='color:white; font-size: 25px'>如果您选择继续实验，则表示您已经清楚两份知情同意书的内容并同意。</p>
   <p><div style = ""color: pink;font-size:30px;"">请确保您记得day0的实验编号，您将在本次实验输入该编号，若您忘记，请咨询实验员后作答。</div></p>
   <p><div style = ""color:lightblue;font-size:25px;"">请您尽可能认真地作答，我们将依据您在各问卷和按键任务中的作答质量发放报酬。</div></p>
   <p> <div style = ""color: green""><按空格键至下页></div> </p>
   "," ","html-keyboard-response","0","3428","0.0-0.0","4","5","5","4","3","4","4","3","4","4","4","1","0","-1","1","0","0","1","1","4","5","4","4","4","4","5","4","4","5","5","6","6","7","5","5","6","6","6","5","5","4","5","5","2","4","5","5","3","1","3","2","5","6","5","5","5","4","5","2","3","3","3","3","2","5","3","6","3","6","3","3","3","3","3","5","2","6","3","4","792726336467771393","陈","275","Female","[""坏我"",""坏她"",""好她"",""好我""]","[""弱我"",""弱她"",""强她"",""强我""]","","","","","","","","","","","","","","","","","","","","","","","","","","","","","","","","","","","","","","",""
"","","","call-function","1","3431","0.0-1.0-0.0","4","5","5","4","3","4","4","3","4","4","4","1","0","-1","1","0","0","1","1","4","5","4","4","4","4","5","4","4","5","5","6","6","7","5","5","6","6","6","5","5","4","5","5","2","4","5","5","3","1","3","2","5","6","5","5","5","4","5","2","3","3","3","3","2","5","3","6","3","6","3","3","3","3","3","5","2","6","3","4","792726336467771393","陈","275","Female","[""坏我"",""坏她"",""好她"",""好我""]","[""弱我"",""弱她"",""强她"",""强我""]","","","","","","","","","","","","","","","","","","","","","","","","","","","","","","","","","","","","","","",""
"6268","","[{""name"":""Sex"",""value"":""1""},{""name"":""friend_name"",""value"":""陈""},{""name"":""ParticipantID"",""value"":""275""}]","survey-html-form","2","9701","0.0-1.0-1.0","4","5","5","4","3","4","4","3","4","4","4","1","0","-1","1","0","0","1","1","4","5","4","4","4","4","5","4","4","5","5","6","6","7","5","5","6","6","6","5","5","4","5","5","2","4","5","5","3","1","3","2","5","6","5","5","5","4","5","2","3","3","3","3","2","5","3","6","3","6","3","3","3","3","3","5","2","6","3","4","792726336467771393","陈","275","Female","[""坏我"",""坏她"",""好她"",""好我""]","[""弱我"",""弱她"",""强她"",""强我""]","","","","","","","","","","","","","","","","","","","","","","","","","","","","","","","","","","","","","","",""
"","","","preload","3","9793","0.0-2.0","4","5","5","4","3","4","4","3","4","4","4","1","0","-1","1","0","0","1","1","4","5","4","4","4","4","5","4","4","5","5","6","6","7","5","5","6","6","6","5","5","4","5","5","2","4","5","5","3","1","3","2","5","6","5","5","5","4","5","2","3","3","3","3","2","5","3","6","3","6","3","3","3","3","3","5","2","6","3","4","792726336467771393","陈","275","Female","[""坏我"",""坏她"",""好她"",""好我""]","[""弱我"",""弱她"",""强她"",""强我""]","","true","false","[]","[]","[]","","","","","","","","","","","","","","","","","","","","","","","","","","","","","","","","",""
"","","","fullscreen","4","11322","0.0-3.0","4","5","5","4","3","4","4","3","4","4","4","1","0","-1","1","0","0","1","1","4","5","4","4","4","4","5","4","4","5","5","6","6","7","5","5","6","6","6","5","5","4","5","5","2","4","5","5","3","1","3","2","5","6","5","5","5","4","5","2","3","3","3","3","2","5","3","6","3","6","3","3","3","3","3","5","2","6","3","4","792726336467771393","陈","275","Female","[""坏我"",""坏她"",""好她"",""好我""]","[""弱我"",""弱她"",""强她"",""强我""]","","true","","","","","","","","","","","","","","","","","","","","","","","","","","","","","","","","","","","","",""
"9440.000000000004","","{""Q01"":""4"",""Q02"":""5"",""Q03"":""5"",""Q04"":""4"",""Q05"":""3""}","survey-template","5","20768","0.0-4.0","4","5","5","4","3","4","4","3","4","4","4","1","0","-1","1","0","0","1","1","4","5","4","4","4","4","5","4","4","5","5","6","6","7","5","5","6","6","6","5","5","4","5","5","2","4","5","5","3","1","3","2","5","6","5","5","5","4","5","2","3","3","3","3","2","5","3","6","3","6","3","3","3","3","3","5","2","6","3","4","792726336467771393","陈","275","Female","[""坏我"",""坏她"",""好她"",""好我""]","[""弱我"",""弱她"",""强她"",""强我""]","","","","","","","","{""Q01"":""4"",""Q02"":""5"",""Q03"":""5"",""Q04"":""4"",""Q05"":""3""}","[0,1,2,3,4]","[""Q01"",""Q01"",""Q02"",""Q03"",""Q04"",""Q05""]","[1493,1988,2290,2888,3488,5257]","[]","[1493,1988,2290,2888,3488,4591.000000000002,5257,9439]","0.4","0.75","0","","","","","","","","","","","","","","","","","","","","","","",""
"11662","","{""Q01"":""4"",""Q02"":""4"",""Q03"":""3"",""Q04"":""4"",""Q05"":""4"",""Q06"":""4""}","survey-template","6","32433","0.0-5.0","4","5","5","4","3","4","4","3","4","4","4","1","0","-1","1","0","0","1","1","4","5","4","4","4","4","5","4","4","5","5","6","6","7","5","5","6","6","6","5","5","4","5","5","2","4","5","5","3","1","3","2","5","6","5","5","5","4","5","2","3","3","3","3","2","5","3","6","3","6","3","3","3","3","3","5","2","6","3","4","792726336467771393","陈","275","Female","[""坏我"",""坏她"",""好她"",""好我""]","[""弱我"",""弱她"",""强她"",""强我""]","","","","","","","","{""Q01"":""4"",""Q02"":""4"",""Q03"":""3"",""Q04"":""4"",""Q05"":""4"",""Q06"":""4""}","[0,1,2,3,4,5]","[""Q01"",""Q02"",""Q03"",""Q04"",""Q05"",""Q06""]","[2144,3977,7193,8307.000000000004,9187,9892]","[]","[1411,2144,3977,7193,8307.000000000004,8554.000000000004,9187,9892,11661]","0.5","0.4","0","","","","","","","","","","","","","","","","","","","","","","",""
"10505","","{""Q01"":""1"",""Q02"":""0"",""Q03"":""-1"",""Q04"":""1"",""Q05"":""0"",""Q06"":""0"",""Q07"":""1"",""Q08"":""1""}","survey-template","7","42943","0.0-6.0","4","5","5","4","3","4","4","3","4","4","4","1","0","-1","1","0","0","1","1","4","5","4","4","4","4","5","4","4","5","5","6","6","7","5","5","6","6","6","5","5","4","5","5","2","4","5","5","3","1","3","2","5","6","5","5","5","4","5","2","3","3","3","3","2","5","3","6","3","6","3","3","3","3","3","5","2","6","3","4","792726336467771393","陈","275","Female","[""坏我"",""坏她"",""好她"",""好我""]","[""弱我"",""弱她"",""强她"",""强我""]","","","","","","","","{""Q01"":""1"",""Q02"":""0"",""Q03"":""-1"",""Q04"":""1"",""Q05"":""0"",""Q06"":""0"",""Q07"":""1"",""Q08"":""1""}","[0,1,2,3,4,5,6,7]","[""Q01"",""Q02"",""Q03"",""Q04"",""Q04"",""Q05"",""Q06"",""Q08"",""Q07""]","[1323,2087,3954,4469,5294.000000000007,6391,6989,9370,9658]","[]","[1323,2087,3954,4469,5294.000000000007,5922,6391,6989,8522,8871,9370,9658,10504]","0.5","0.5714285714285714","0","","","","","","","","","","","","","","","","","","","","","","",""
"9212","","","instructions","8","52157","0.0-7.0","4","5","5","4","3","4","4","3","4","4","4","1","0","-1","1","0","0","1","1","4","5","4","4","4","4","5","4","4","5","5","6","6","7","5","5","6","6","6","5","5","4","5","5","2","4","5","5","3","1","3","2","5","6","5","5","5","4","5","2","3","3","3","3","2","5","3","6","3","6","3","3","3","3","3","5","2","6","3","4","792726336467771393","陈","275","Female","[""坏我"",""坏她"",""好她"",""好我""]","[""弱我"",""弱她"",""强她"",""强我""]","","","","","","","","","","","","","","","","","[{""page_index"":0,""viewing_time"":9212}]","","","","","","","","","","","","","","","","","","","","","",""
"127405","","","instructions","9","179563","0.0-8.0-0.0-0.0","4","5","5","4","3","4","4","3","4","4","4","1","0","-1","1","0","0","1","1","4","5","4","4","4","4","5","4","4","5","5","6","6","7","5","5","6","6","6","5","5","4","5","5","2","4","5","5","3","1","3","2","5","6","5","5","5","4","5","2","3","3","3","3","2","5","3","6","3","6","3","3","3","3","3","5","2","6","3","4","792726336467771393","陈","275","Female","[""坏我"",""坏她"",""好她"",""好我""]","[""弱我"",""弱她"",""强她"",""强我""]","","","","","","","","","","","","","","","","","[{""page_index"":0,""viewing_time"":13500},{""page_index"":1,""viewing_time"":102685},{""page_index"":2,""viewing_time"":8598},{""page_index"":3,""viewing_time"":2622}]","","","","","","","","","","","","","","","","","","","","","",""
"961","","f","psychophysics","10","181530","0.0-8.0-0.0-1.0-0.0-0.0","4","5","5","4","3","4","4","3","4","4","4","1","0","-1","1","0","0","1","1","4","5","4","4","4","4","5","4","4","5","5","6","6","7","5","5","6","6","6","5","5","4","5","5","2","4","5","5","3","1","3","2","5","6","5","5","5","4","5","2","3","3","3","3","2","5","3","6","3","6","3","3","3","3","3","5","2","6","3","4","792726336467771393","陈","275","Female","[""坏我"",""坏她"",""好她"",""好我""]","[""弱我"",""弱她"",""强她"",""强我""]","","","","","","","","nonmatch","","","","","","","","","","key","f","16.895652173913042","540","337","f","true","nonmatch","img/ellipse.png","好我","坏她","prac_ALT2_moral","practice_moral","","","","","","","","",""
"null","<span style='color:GreenYellow; font-size: 70px;'>正确! </span>","null","html-keyboard-response","11","182032","0.0-8.0-0.0-1.0-0.0-1.0","4","5","5","4","3","4","4","3","4","4","4","1","0","-1","1","0","0","1","1","4","5","4","4","4","4","5","4","4","5","5","6","6","7","5","5","6","6","6","5","5","4","5","5","2","4","5","5","3","1","3","2","5","6","5","5","5","4","5","2","3","3","3","3","2","5","3","6","3","6","3","3","3","3","3","5","2","6","3","4","792726336467771393","陈","275","Female","[""坏我"",""坏她"",""好她"",""好我""]","[""弱我"",""弱她"",""强她"",""强我""]","","","","","","","","","","","","","","","","","","","","","","","","","","","","","","feedback_test","","","","","","","","",""
"765","","f","psychophysics","12","183803","0.0-8.0-0.0-1.0-0.0-0.1","4","5","5","4","3","4","4","3","4","4","4","1","0","-1","1","0","0","1","1","4","5","4","4","4","4","5","4","4","5","5","6","6","7","5","5","6","6","6","5","5","4","5","5","2","4","5","5","3","1","3","2","5","6","5","5","5","4","5","2","3","3","3","3","2","5","3","6","3","6","3","3","3","3","3","5","2","6","3","4","792726336467771393","陈","275","Female","[""坏我"",""坏她"",""好她"",""好我""]","[""弱我"",""弱她"",""强她"",""强我""]","","","","","","","","nonmatch","","","","","","","","","","key","f","16.58653846153846","540","337","f","true","nonmatch","img/triangle.png","坏我","好她","prac_ALT2_moral","practice_moral","","","","","","","","",""
"null","<span style='color:GreenYellow; font-size: 70px;'>正确! </span>","null","html-keyboard-response","13","184305","0.0-8.0-0.0-1.0-0.0-1.1","4","5","5","4","3","4","4","3","4","4","4","1","0","-1","1","0","0","1","1","4","5","4","4","4","4","5","4","4","5","5","6","6","7","5","5","6","6","6","5","5","4","5","5","2","4","5","5","3","1","3","2","5","6","5","5","5","4","5","2","3","3","3","3","2","5","3","6","3","6","3","3","3","3","3","5","2","6","3","4","792726336467771393","陈","275","Female","[""坏我"",""坏她"",""好她"",""好我""]","[""弱我"",""弱她"",""强她"",""强我""]","","","","","","","","","","","","","","","","","","","","","","","","","","","","","","feedback_test","","","","","","","","",""
"725","","j","psychophysics","14","186035","0.0-8.0-0.0-1.0-0.0-0.2","4","5","5","4","3","4","4","3","4","4","4","1","0","-1","1","0","0","1","1","4","5","4","4","4","4","5","4","4","5","5","6","6","7","5","5","6","6","6","5","5","4","5","5","2","4","5","5","3","1","3","2","5","6","5","5","5","4","5","2","3","3","3","3","2","5","3","6","3","6","3","3","3","3","3","5","2","6","3","4","792726336467771393","陈","275","Female","[""坏我"",""坏她"",""好她"",""好我""]","[""弱我"",""弱她"",""强她"",""强我""]","","","","","","","","match","","","","","","","","","","key","j","16.54901960784314","540","337","f","false","nonmatch","img/hexagon.png","好她","坏我","prac_ALT2_moral","practice_moral","","","","","","","","",""
"null","<span style='color:red; font-size: 70px;'>错误! </span>","null","html-keyboard-response","15","186539","0.0-8.0-0.0-1.0-0.0-1.2","4","5","5","4","3","4","4","3","4","4","4","1","0","-1","1","0","0","1","1","4","5","4","4","4","4","5","4","4","5","5","6","6","7","5","5","6","6","6","5","5","4","5","5","2","4","5","5","3","1","3","2","5","6","5","5","5","4","5","2","3","3","3","3","2","5","3","6","3","6","3","3","3","3","3","5","2","6","3","4","792726336467771393","陈","275","Female","[""坏我"",""坏她"",""好她"",""好我""]","[""弱我"",""弱她"",""强她"",""强我""]","","","","","","","","","","","","","","","","","","","","","","","","","","","","","","feedback_test","","","","","","","","",""
"623","","j","psychophysics","16","188168","0.0-8.0-0.0-1.0-0.0-0.3","4","5","5","4","3","4","4","3","4","4","4","1","0","-1","1","0","0","1","1","4","5","4","4","4","4","5","4","4","5","5","6","6","7","5","5","6","6","6","5","5","4","5","5","2","4","5","5","3","1","3","2","5","6","5","5","5","4","5","2","3","3","3","3","2","5","3","6","3","6","3","3","3","3","3","5","2","6","3","4","792726336467771393","陈","275","Female","[""坏我"",""坏她"",""好她"",""好我""]","[""弱我"",""弱她"",""强她"",""强我""]","","","","","","","","match","","","","","","","","","","key","j","16.694736842105264","540","337","f","false","nonmatch","img/ellipse.png","坏我","坏她","prac_ALT2_moral","practice_moral","","","","","","","","",""
"null","<span style='color:red; font-size: 70px;'>错误! </span>","null","html-keyboard-response","17","188671","0.0-8.0-0.0-1.0-0.0-1.3","4","5","5","4","3","4","4","3","4","4","4","1","0","-1","1","0","0","1","1","4","5","4","4","4","4","5","4","4","5","5","6","6","7","5","5","6","6","6","5","5","4","5","5","2","4","5","5","3","1","3","2","5","6","5","5","5","4","5","2","3","3","3","3","2","5","3","6","3","6","3","3","3","3","3","5","2","6","3","4","792726336467771393","陈","275","Female","[""坏我"",""坏她"",""好她"",""好我""]","[""弱我"",""弱她"",""强她"",""强我""]","","","","","","","","","","","","","","","","","","","","","","","","","","","","","","feedback_test","","","","","","","","",""
"741","","j","psychophysics","18","190417","0.0-8.0-0.0-1.0-0.0-0.4","4","5","5","4","3","4","4","3","4","4","4","1","0","-1","1","0","0","1","1","4","5","4","4","4","4","5","4","4","5","5","6","6","7","5","5","6","6","6","5","5","4","5","5","2","4","5","5","3","1","3","2","5","6","5","5","5","4","5","2","3","3","3","3","2","5","3","6","3","6","3","3","3","3","3","5","2","6","3","4","792726336467771393","陈","275","Female","[""坏我"",""坏她"",""好她"",""好我""]","[""弱我"",""弱她"",""强她"",""强我""]","","","","","","","","match","","","","","","","","","","key","j","16.705882352941178","540","337","j","true","match","img/ellipse.png","坏她","坏她","prac_ALT2_moral","practice_moral","","","","","","","","",""
"null","<span style='color:GreenYellow; font-size: 70px;'>正确! </span>","null","html-keyboard-response","19","190920","0.0-8.0-0.0-1.0-0.0-1.4","4","5","5","4","3","4","4","3","4","4","4","1","0","-1","1","0","0","1","1","4","5","4","4","4","4","5","4","4","5","5","6","6","7","5","5","6","6","6","5","5","4","5","5","2","4","5","5","3","1","3","2","5","6","5","5","5","4","5","2","3","3","3","3","2","5","3","6","3","6","3","3","3","3","3","5","2","6","3","4","792726336467771393","陈","275","Female","[""坏我"",""坏她"",""好她"",""好我""]","[""弱我"",""弱她"",""强她"",""强我""]","","","","","","","","","","","","","","","","","","","","","","","","","","","","","","feedback_test","","","","","","","","",""
"957","","j","psychophysics","20","192883","0.0-8.0-0.0-1.0-0.0-0.5","4","5","5","4","3","4","4","3","4","4","4","1","0","-1","1","0","0","1","1","4","5","4","4","4","4","5","4","4","5","5","6","6","7","5","5","6","6","6","5","5","4","5","5","2","4","5","5","3","1","3","2","5","6","5","5","5","4","5","2","3","3","3","3","2","5","3","6","3","6","3","3","3","3","3","5","2","6","3","4","792726336467771393","陈","275","Female","[""坏我"",""坏她"",""好她"",""好我""]","[""弱我"",""弱她"",""强她"",""强我""]","","","","","","","","match","","","","","","","","","","key","j","16.643478260869564","540","337","j","true","match","img/triangle.png","好她","好她","prac_ALT2_moral","practice_moral","","","","","","","","",""
"null","<span style='color:GreenYellow; font-size: 70px;'>正确! </span>","null","html-keyboard-response","21","193385","0.0-8.0-0.0-1.0-0.0-1.5","4","5","5","4","3","4","4","3","4","4","4","1","0","-1","1","0","0","1","1","4","5","4","4","4","4","5","4","4","5","5","6","6","7","5","5","6","6","6","5","5","4","5","5","2","4","5","5","3","1","3","2","5","6","5","5","5","4","5","2","3","3","3","3","2","5","3","6","3","6","3","3","3","3","3","5","2","6","3","4","792726336467771393","陈","275","Female","[""坏我"",""坏她"",""好她"",""好我""]","[""弱我"",""弱她"",""强她"",""强我""]","","","","","","","","","","","","","","","","","","","","","","","","","","","","","","feedback_test","","","","","","","","",""
"660","","f","psychophysics","22","195050","0.0-8.0-0.0-1.0-0.0-0.6","4","5","5","4","3","4","4","3","4","4","4","1","0","-1","1","0","0","1","1","4","5","4","4","4","4","5","4","4","5","5","6","6","7","5","5","6","6","6","5","5","4","5","5","2","4","5","5","3","1","3","2","5","6","5","5","5","4","5","2","3","3","3","3","2","5","3","6","3","6","3","3","3","3","3","5","2","6","3","4","792726336467771393","陈","275","Female","[""坏我"",""坏她"",""好她"",""好我""]","[""弱我"",""弱她"",""强她"",""强我""]","","","","","","","","nonmatch","","","","","","","","","","key","f","16.520408163265305","540","337","f","true","nonmatch","img/hexagon.png","好我","坏我","prac_ALT2_moral","practice_moral","","","","","","","","",""
"null","<span style='color:GreenYellow; font-size: 70px;'>正确! </span>","null","html-keyboard-response","23","195553","0.0-8.0-0.0-1.0-0.0-1.6","4","5","5","4","3","4","4","3","4","4","4","1","0","-1","1","0","0","1","1","4","5","4","4","4","4","5","4","4","5","5","6","6","7","5","5","6","6","6","5","5","4","5","5","2","4","5","5","3","1","3","2","5","6","5","5","5","4","5","2","3","3","3","3","2","5","3","6","3","6","3","3","3","3","3","5","2","6","3","4","792726336467771393","陈","275","Female","[""坏我"",""坏她"",""好她"",""好我""]","[""弱我"",""弱她"",""强她"",""强我""]","","","","","","","","","","","","","","","","","","","","","","","","","","","","","","feedback_test","","","","","","","","",""
"775","","f","psychophysics","24","197332","0.0-8.0-0.0-1.0-0.0-0.7","4","5","5","4","3","4","4","3","4","4","4","1","0","-1","1","0","0","1","1","4","5","4","4","4","4","5","4","4","5","5","6","6","7","5","5","6","6","6","5","5","4","5","5","2","4","5","5","3","1","3","2","5","6","5","5","5","4","5","2","3","3","3","3","2","5","3","6","3","6","3","3","3","3","3","5","2","6","3","4","792726336467771393","陈","275","Female","[""坏我"",""坏她"",""好她"",""好我""]","[""弱我"",""弱她"",""强她"",""强我""]","","","","","","","","nonmatch","","","","","","","","","","key","f","16.523809523809526","540","337","f","true","nonmatch","img/triangle.png","好我","好她","prac_ALT2_moral","practice_moral","","","","","","","","",""
"null","<span style='color:GreenYellow; font-size: 70px;'>正确! </span>","null","html-keyboard-response","25","197834","0.0-8.0-0.0-1.0-0.0-1.7","4","5","5","4","3","4","4","3","4","4","4","1","0","-1","1","0","0","1","1","4","5","4","4","4","4","5","4","4","5","5","6","6","7","5","5","6","6","6","5","5","4","5","5","2","4","5","5","3","1","3","2","5","6","5","5","5","4","5","2","3","3","3","3","2","5","3","6","3","6","3","3","3","3","3","5","2","6","3","4","792726336467771393","陈","275","Female","[""坏我"",""坏她"",""好她"",""好我""]","[""弱我"",""弱她"",""强她"",""强我""]","","","","","","","","","","","","","","","","","","","","","","","","","","","","","","feedback_test","","","","","","","","",""
"1042","","j","psychophysics","26","199880","0.0-8.0-0.0-1.0-0.0-0.8","4","5","5","4","3","4","4","3","4","4","4","1","0","-1","1","0","0","1","1","4","5","4","4","4","4","5","4","4","5","5","6","6","7","5","5","6","6","6","5","5","4","5","5","2","4","5","5","3","1","3","2","5","6","5","5","5","4","5","2","3","3","3","3","2","5","3","6","3","6","3","3","3","3","3","5","2","6","3","4","792726336467771393","陈","275","Female","[""坏我"",""坏她"",""好她"",""好我""]","[""弱我"",""弱她"",""强她"",""强我""]","","","","","","","","match","","","","","","","","","","key","j","16.675","540","337","j","true","match","img/hexagon.png","坏我","坏我","prac_ALT2_moral","practice_moral","","","","","","","","",""
"null","<span style='color:GreenYellow; font-size: 70px;'>正确! </span>","null","html-keyboard-response","27","200382","0.0-8.0-0.0-1.0-0.0-1.8","4","5","5","4","3","4","4","3","4","4","4","1","0","-1","1","0","0","1","1","4","5","4","4","4","4","5","4","4","5","5","6","6","7","5","5","6","6","6","5","5","4","5","5","2","4","5","5","3","1","3","2","5","6","5","5","5","4","5","2","3","3","3","3","2","5","3","6","3","6","3","3","3","3","3","5","2","6","3","4","792726336467771393","陈","275","Female","[""坏我"",""坏她"",""好她"",""好我""]","[""弱我"",""弱她"",""强她"",""强我""]","","","","","","","","","","","","","","","","","","","","","","","","","","","","","","feedback_test","","","","","","","","",""
"625","","j","psychophysics","28","202014","0.0-8.0-0.0-1.0-0.0-0.9","4","5","5","4","3","4","4","3","4","4","4","1","0","-1","1","0","0","1","1","4","5","4","4","4","4","5","4","4","5","5","6","6","7","5","5","6","6","6","5","5","4","5","5","2","4","5","5","3","1","3","2","5","6","5","5","5","4","5","2","3","3","3","3","2","5","3","6","3","6","3","3","3","3","3","5","2","6","3","4","792726336467771393","陈","275","Female","[""坏我"",""坏她"",""好她"",""好我""]","[""弱我"",""弱她"",""强她"",""强我""]","","","","","","","","match","","","","","","","","","","key","j","16.552083333333332","540","337","j","true","match","img/ellipse.png","坏她","坏她","prac_ALT2_moral","practice_moral","","","","","","","","",""
"null","<span style='color:GreenYellow; font-size: 70px;'>正确! </span>","null","html-keyboard-response","29","202517","0.0-8.0-0.0-1.0-0.0-1.9","4","5","5","4","3","4","4","3","4","4","4","1","0","-1","1","0","0","1","1","4","5","4","4","4","4","5","4","4","5","5","6","6","7","5","5","6","6","6","5","5","4","5","5","2","4","5","5","3","1","3","2","5","6","5","5","5","4","5","2","3","3","3","3","2","5","3","6","3","6","3","3","3","3","3","5","2","6","3","4","792726336467771393","陈","275","Female","[""坏我"",""坏她"",""好她"",""好我""]","[""弱我"",""弱她"",""强她"",""强我""]","","","","","","","","","","","","","","","","","","","","","","","","","","","","","","feedback_test","","","","","","","","",""
"641","","f","psychophysics","30","204162","0.0-8.0-0.0-1.0-0.0-0.10","4","5","5","4","3","4","4","3","4","4","4","1","0","-1","1","0","0","1","1","4","5","4","4","4","4","5","4","4","5","5","6","6","7","5","5","6","6","6","5","5","4","5","5","2","4","5","5","3","1","3","2","5","6","5","5","5","4","5","2","3","3","3","3","2","5","3","6","3","6","3","3","3","3","3","5","2","6","3","4","792726336467771393","陈","275","Female","[""坏我"",""坏她"",""好她"",""好我""]","[""弱我"",""弱她"",""强她"",""强我""]","","","","","","","","nonmatch","","","","","","","","","","key","f","16.6875","540","337","f","true","nonmatch","img/square.png","坏我","好我","prac_ALT2_moral","practice_moral","","","","","","","","",""
"null","<span style='color:GreenYellow; font-size: 70px;'>正确! </span>","null","html-keyboard-response","31","204665","0.0-8.0-0.0-1.0-0.0-1.10","4","5","5","4","3","4","4","3","4","4","4","1","0","-1","1","0","0","1","1","4","5","4","4","4","4","5","4","4","5","5","6","6","7","5","5","6","6","6","5","5","4","5","5","2","4","5","5","3","1","3","2","5","6","5","5","5","4","5","2","3","3","3","3","2","5","3","6","3","6","3","3","3","3","3","5","2","6","3","4","792726336467771393","陈","275","Female","[""坏我"",""坏她"",""好她"",""好我""]","[""弱我"",""弱她"",""强她"",""强我""]","","","","","","","","","","","","","","","","","","","","","","","","","","","","","","feedback_test","","","","","","","","",""
"593","","j","psychophysics","32","206262","0.0-8.0-0.0-1.0-0.0-0.11","4","5","5","4","3","4","4","3","4","4","4","1","0","-1","1","0","0","1","1","4","5","4","4","4","4","5","4","4","5","5","6","6","7","5","5","6","6","6","5","5","4","5","5","2","4","5","5","3","1","3","2","5","6","5","5","5","4","5","2","3","3","3","3","2","5","3","6","3","6","3","3","3","3","3","5","2","6","3","4","792726336467771393","陈","275","Female","[""坏我"",""坏她"",""好她"",""好我""]","[""弱我"",""弱她"",""强她"",""强我""]","","","","","","","","match","","","","","","","","","","key","j","16.677419354838708","540","337","f","false","nonmatch","img/square.png","好她","好我","prac_ALT2_moral","practice_moral","","","","","","","","",""
"null","<span style='color:red; font-size: 70px;'>错误! </span>","null","html-keyboard-response","33","206765","0.0-8.0-0.0-1.0-0.0-1.11","4","5","5","4","3","4","4","3","4","4","4","1","0","-1","1","0","0","1","1","4","5","4","4","4","4","5","4","4","5","5","6","6","7","5","5","6","6","6","5","5","4","5","5","2","4","5","5","3","1","3","2","5","6","5","5","5","4","5","2","3","3","3","3","2","5","3","6","3","6","3","3","3","3","3","5","2","6","3","4","792726336467771393","陈","275","Female","[""坏我"",""坏她"",""好她"",""好我""]","[""弱我"",""弱她"",""强她"",""强我""]","","","","","","","","","","","","","","","","","","","","","","","","","","","","","","feedback_test","","","","","","","","",""
"608","","j","psychophysics","34","208378","0.0-8.0-0.0-1.0-0.0-0.12","4","5","5","4","3","4","4","3","4","4","4","1","0","-1","1","0","0","1","1","4","5","4","4","4","4","5","4","4","5","5","6","6","7","5","5","6","6","6","5","5","4","5","5","2","4","5","5","3","1","3","2","5","6","5","5","5","4","5","2","3","3","3","3","2","5","3","6","3","6","3","3","3","3","3","5","2","6","3","4","792726336467771393","陈","275","Female","[""坏我"",""坏她"",""好她"",""好我""]","[""弱我"",""弱她"",""强她"",""强我""]","","","","","","","","match","","","","","","","","","","key","j","16.70212765957447","540","337","j","true","match","img/square.png","好我","好我","prac_ALT2_moral","practice_moral","","","","","","","","",""
"null","<span style='color:GreenYellow; font-size: 70px;'>正确! </span>","null","html-keyboard-response","35","208882","0.0-8.0-0.0-1.0-0.0-1.12","4","5","5","4","3","4","4","3","4","4","4","1","0","-1","1","0","0","1","1","4","5","4","4","4","4","5","4","4","5","5","6","6","7","5","5","6","6","6","5","5","4","5","5","2","4","5","5","3","1","3","2","5","6","5","5","5","4","5","2","3","3","3","3","2","5","3","6","3","6","3","3","3","3","3","5","2","6","3","4","792726336467771393","陈","275","Female","[""坏我"",""坏她"",""好她"",""好我""]","[""弱我"",""弱她"",""强她"",""强我""]","","","","","","","","","","","","","","","","","","","","","","","","","","","","","","feedback_test","","","","","","","","",""
"642","","j","psychophysics","36","210527","0.0-8.0-0.0-1.0-0.0-0.13","4","5","5","4","3","4","4","3","4","4","4","1","0","-1","1","0","0","1","1","4","5","4","4","4","4","5","4","4","5","5","6","6","7","5","5","6","6","6","5","5","4","5","5","2","4","5","5","3","1","3","2","5","6","5","5","5","4","5","2","3","3","3","3","2","5","3","6","3","6","3","3","3","3","3","5","2","6","3","4","792726336467771393","陈","275","Female","[""坏我"",""坏她"",""好她"",""好我""]","[""弱我"",""弱她"",""强她"",""强我""]","","","","","","","","match","","","","","","","","","","key","j","16.6875","540","337","j","true","match","img/hexagon.png","坏我","坏我","prac_ALT2_moral","practice_moral","","","","","","","","",""
"null","<span style='color:GreenYellow; font-size: 70px;'>正确! </span>","null","html-keyboard-response","37","211030","0.0-8.0-0.0-1.0-0.0-1.13","4","5","5","4","3","4","4","3","4","4","4","1","0","-1","1","0","0","1","1","4","5","4","4","4","4","5","4","4","5","5","6","6","7","5","5","6","6","6","5","5","4","5","5","2","4","5","5","3","1","3","2","5","6","5","5","5","4","5","2","3","3","3","3","2","5","3","6","3","6","3","3","3","3","3","5","2","6","3","4","792726336467771393","陈","275","Female","[""坏我"",""坏她"",""好她"",""好我""]","[""弱我"",""弱她"",""强她"",""强我""]","","","","","","","","","","","","","","","","","","","","","","","","","","","","","","feedback_test","","","","","","","","",""
"659","","j","psychophysics","38","212693","0.0-8.0-0.0-1.0-0.0-0.14","4","5","5","4","3","4","4","3","4","4","4","1","0","-1","1","0","0","1","1","4","5","4","4","4","4","5","4","4","5","5","6","6","7","5","5","6","6","6","5","5","4","5","5","2","4","5","5","3","1","3","2","5","6","5","5","5","4","5","2","3","3","3","3","2","5","3","6","3","6","3","3","3","3","3","5","2","6","3","4","792726336467771393","陈","275","Female","[""坏我"",""坏她"",""好她"",""好我""]","[""弱我"",""弱她"",""强她"",""强我""]","","","","","","","","match","","","","","","","","","","key","j","16.551020408163264","540","337","j","true","match","img/square.png","好我","好我","prac_ALT2_moral","practice_moral","","","","","","","","",""
"null","<span style='color:GreenYellow; font-size: 70px;'>正确! </span>","null","html-keyboard-response","39","213196","0.0-8.0-0.0-1.0-0.0-1.14","4","5","5","4","3","4","4","3","4","4","4","1","0","-1","1","0","0","1","1","4","5","4","4","4","4","5","4","4","5","5","6","6","7","5","5","6","6","6","5","5","4","5","5","2","4","5","5","3","1","3","2","5","6","5","5","5","4","5","2","3","3","3","3","2","5","3","6","3","6","3","3","3","3","3","5","2","6","3","4","792726336467771393","陈","275","Female","[""坏我"",""坏她"",""好她"",""好我""]","[""弱我"",""弱她"",""强她"",""强我""]","","","","","","","","","","","","","","","","","","","","","","","","","","","","","","feedback_test","","","","","","","","",""
"610","","f","psychophysics","40","214809","0.0-8.0-0.0-1.0-0.0-0.15","4","5","5","4","3","4","4","3","4","4","4","1","0","-1","1","0","0","1","1","4","5","4","4","4","4","5","4","4","5","5","6","6","7","5","5","6","6","6","5","5","4","5","5","2","4","5","5","3","1","3","2","5","6","5","5","5","4","5","2","3","3","3","3","2","5","3","6","3","6","3","3","3","3","3","5","2","6","3","4","792726336467771393","陈","275","Female","[""坏我"",""坏她"",""好她"",""好我""]","[""弱我"",""弱她"",""强她"",""强我""]","","","","","","","","nonmatch","","","","","","","","","","key","f","16.51578947368421","540","337","j","false","match","img/ellipse.png","坏她","坏她","prac_ALT2_moral","practice_moral","","","","","","","","",""
"null","<span style='color:red; font-size: 70px;'>错误! </span>","null","html-keyboard-response","41","215313","0.0-8.0-0.0-1.0-0.0-1.15","4","5","5","4","3","4","4","3","4","4","4","1","0","-1","1","0","0","1","1","4","5","4","4","4","4","5","4","4","5","5","6","6","7","5","5","6","6","6","5","5","4","5","5","2","4","5","5","3","1","3","2","5","6","5","5","5","4","5","2","3","3","3","3","2","5","3","6","3","6","3","3","3","3","3","5","2","6","3","4","792726336467771393","陈","275","Female","[""坏我"",""坏她"",""好她"",""好我""]","[""弱我"",""弱她"",""强她"",""强我""]","","","","","","","","","","","","","","","","","","","","","","","","","","","","","","feedback_test","","","","","","","","",""
"459","","j","psychophysics","42","216776","0.0-8.0-0.0-1.0-0.0-0.16","4","5","5","4","3","4","4","3","4","4","4","1","0","-1","1","0","0","1","1","4","5","4","4","4","4","5","4","4","5","5","6","6","7","5","5","6","6","6","5","5","4","5","5","2","4","5","5","3","1","3","2","5","6","5","5","5","4","5","2","3","3","3","3","2","5","3","6","3","6","3","3","3","3","3","5","2","6","3","4","792726336467771393","陈","275","Female","[""坏我"",""坏她"",""好她"",""好我""]","[""弱我"",""弱她"",""强她"",""强我""]","","","","","","","","match","","","","","","","","","","key","j","16.705882352941178","540","337","j","true","match","img/triangle.png","好她","好她","prac_ALT2_moral","practice_moral","","","","","","","","",""
"null","<span style='color:GreenYellow; font-size: 70px;'>正确! </span>","null","html-keyboard-response","43","217279","0.0-8.0-0.0-1.0-0.0-1.16","4","5","5","4","3","4","4","3","4","4","4","1","0","-1","1","0","0","1","1","4","5","4","4","4","4","5","4","4","5","5","6","6","7","5","5","6","6","6","5","5","4","5","5","2","4","5","5","3","1","3","2","5","6","5","5","5","4","5","2","3","3","3","3","2","5","3","6","3","6","3","3","3","3","3","5","2","6","3","4","792726336467771393","陈","275","Female","[""坏我"",""坏她"",""好她"",""好我""]","[""弱我"",""弱她"",""强她"",""强我""]","","","","","","","","","","","","","","","","","","","","","","","","","","","","","","feedback_test","","","","","","","","",""
"309","","j","psychophysics","44","218592","0.0-8.0-0.0-1.0-0.0-0.17","4","5","5","4","3","4","4","3","4","4","4","1","0","-1","1","0","0","1","1","4","5","4","4","4","4","5","4","4","5","5","6","6","7","5","5","6","6","6","5","5","4","5","5","2","4","5","5","3","1","3","2","5","6","5","5","5","4","5","2","3","3","3","3","2","5","3","6","3","6","3","3","3","3","3","5","2","6","3","4","792726336467771393","陈","275","Female","[""坏我"",""坏她"",""好她"",""好我""]","[""弱我"",""弱她"",""强她"",""强我""]","","","","","","","","match","","","","","","","","","","key","j","16.710526315789473","540","337","j","true","match","img/square.png","好我","好我","prac_ALT2_moral","practice_moral","","","","","","","","",""
"null","<span style='color:GreenYellow; font-size: 70px;'>正确! </span>","null","html-keyboard-response","45","219095","0.0-8.0-0.0-1.0-0.0-1.17","4","5","5","4","3","4","4","3","4","4","4","1","0","-1","1","0","0","1","1","4","5","4","4","4","4","5","4","4","5","5","6","6","7","5","5","6","6","6","5","5","4","5","5","2","4","5","5","3","1","3","2","5","6","5","5","5","4","5","2","3","3","3","3","2","5","3","6","3","6","3","3","3","3","3","5","2","6","3","4","792726336467771393","陈","275","Female","[""坏我"",""坏她"",""好她"",""好我""]","[""弱我"",""弱她"",""强她"",""强我""]","","","","","","","","","","","","","","","","","","","","","","","","","","","","","","feedback_test","","","","","","","","",""
"509","","j","psychophysics","46","220607","0.0-8.0-0.0-1.0-0.0-0.18","4","5","5","4","3","4","4","3","4","4","4","1","0","-1","1","0","0","1","1","4","5","4","4","4","4","5","4","4","5","5","6","6","7","5","5","6","6","6","5","5","4","5","5","2","4","5","5","3","1","3","2","5","6","5","5","5","4","5","2","3","3","3","3","2","5","3","6","3","6","3","3","3","3","3","5","2","6","3","4","792726336467771393","陈","275","Female","[""坏我"",""坏她"",""好她"",""好我""]","[""弱我"",""弱她"",""强她"",""强我""]","","","","","","","","match","","","","","","","","","","key","j","16.670454545454547","540","337","j","true","match","img/hexagon.png","坏我","坏我","prac_ALT2_moral","practice_moral","","","","","","","","",""
"null","<span style='color:GreenYellow; font-size: 70px;'>正确! </span>","null","html-keyboard-response","47","221110","0.0-8.0-0.0-1.0-0.0-1.18","4","5","5","4","3","4","4","3","4","4","4","1","0","-1","1","0","0","1","1","4","5","4","4","4","4","5","4","4","5","5","6","6","7","5","5","6","6","6","5","5","4","5","5","2","4","5","5","3","1","3","2","5","6","5","5","5","4","5","2","3","3","3","3","2","5","3","6","3","6","3","3","3","3","3","5","2","6","3","4","792726336467771393","陈","275","Female","[""坏我"",""坏她"",""好她"",""好我""]","[""弱我"",""弱她"",""强她"",""强我""]","","","","","","","","","","","","","","","","","","","","","","","","","","","","","","feedback_test","","","","","","","","",""
"515","","j","psychophysics","48","222628","0.0-8.0-0.0-1.0-0.0-0.19","4","5","5","4","3","4","4","3","4","4","4","1","0","-1","1","0","0","1","1","4","5","4","4","4","4","5","4","4","5","5","6","6","7","5","5","6","6","6","5","5","4","5","5","2","4","5","5","3","1","3","2","5","6","5","5","5","4","5","2","3","3","3","3","2","5","3","6","3","6","3","3","3","3","3","5","2","6","3","4","792726336467771393","陈","275","Female","[""坏我"",""坏她"",""好她"",""好我""]","[""弱我"",""弱她"",""强她"",""强我""]","","","","","","","","match","","","","","","","","","","key","j","16.528089887640448","540","337","f","false","nonmatch","img/triangle.png","坏她","好她","prac_ALT2_moral","practice_moral","","","","","","","","",""
"null","<span style='color:red; font-size: 70px;'>错误! </span>","null","html-keyboard-response","49","223131","0.0-8.0-0.0-1.0-0.0-1.19","4","5","5","4","3","4","4","3","4","4","4","1","0","-1","1","0","0","1","1","4","5","4","4","4","4","5","4","4","5","5","6","6","7","5","5","6","6","6","5","5","4","5","5","2","4","5","5","3","1","3","2","5","6","5","5","5","4","5","2","3","3","3","3","2","5","3","6","3","6","3","3","3","3","3","5","2","6","3","4","792726336467771393","陈","275","Female","[""坏我"",""坏她"",""好她"",""好我""]","[""弱我"",""弱她"",""强她"",""强我""]","","","","","","","","","","","","","","","","","","","","","","","","","","","","","","feedback_test","","","","","","","","",""
"537","","j","psychophysics","50","224673","0.0-8.0-0.0-1.0-0.0-0.20","4","5","5","4","3","4","4","3","4","4","4","1","0","-1","1","0","0","1","1","4","5","4","4","4","4","5","4","4","5","5","6","6","7","5","5","6","6","6","5","5","4","5","5","2","4","5","5","3","1","3","2","5","6","5","5","5","4","5","2","3","3","3","3","2","5","3","6","3","6","3","3","3","3","3","5","2","6","3","4","792726336467771393","陈","275","Female","[""坏我"",""坏她"",""好她"",""好我""]","[""弱我"",""弱她"",""强她"",""强我""]","","","","","","","","match","","","","","","","","","","key","j","16.644444444444446","540","337","f","false","nonmatch","img/ellipse.png","好她","坏她","prac_ALT2_moral","practice_moral","","","","","","","","",""
"null","<span style='color:red; font-size: 70px;'>错误! </span>","null","html-keyboard-response","51","225176","0.0-8.0-0.0-1.0-0.0-1.20","4","5","5","4","3","4","4","3","4","4","4","1","0","-1","1","0","0","1","1","4","5","4","4","4","4","5","4","4","5","5","6","6","7","5","5","6","6","6","5","5","4","5","5","2","4","5","5","3","1","3","2","5","6","5","5","5","4","5","2","3","3","3","3","2","5","3","6","3","6","3","3","3","3","3","5","2","6","3","4","792726336467771393","陈","275","Female","[""坏我"",""坏她"",""好她"",""好我""]","[""弱我"",""弱她"",""强她"",""强我""]","","","","","","","","","","","","","","","","","","","","","","","","","","","","","","feedback_test","","","","","","","","",""
"643","","j","psychophysics","52","226823","0.0-8.0-0.0-1.0-0.0-0.21","4","5","5","4","3","4","4","3","4","4","4","1","0","-1","1","0","0","1","1","4","5","4","4","4","4","5","4","4","5","5","6","6","7","5","5","6","6","6","5","5","4","5","5","2","4","5","5","3","1","3","2","5","6","5","5","5","4","5","2","3","3","3","3","2","5","3","6","3","6","3","3","3","3","3","5","2","6","3","4","792726336467771393","陈","275","Female","[""坏我"",""坏她"",""好她"",""好我""]","[""弱我"",""弱她"",""强她"",""强我""]","","","","","","","","match","","","","","","","","","","key","j","16.708333333333332","540","337","f","false","nonmatch","img/hexagon.png","坏她","坏我","prac_ALT2_moral","practice_moral","","","","","","","","",""
"null","<span style='color:red; font-size: 70px;'>错误! </span>","null","html-keyboard-response","53","227326","0.0-8.0-0.0-1.0-0.0-1.21","4","5","5","4","3","4","4","3","4","4","4","1","0","-1","1","0","0","1","1","4","5","4","4","4","4","5","4","4","5","5","6","6","7","5","5","6","6","6","5","5","4","5","5","2","4","5","5","3","1","3","2","5","6","5","5","5","4","5","2","3","3","3","3","2","5","3","6","3","6","3","3","3","3","3","5","2","6","3","4","792726336467771393","陈","275","Female","[""坏我"",""坏她"",""好她"",""好我""]","[""弱我"",""弱她"",""强她"",""强我""]","","","","","","","","","","","","","","","","","","","","","","","","","","","","","","feedback_test","","","","","","","","",""
"726","","j","psychophysics","54","229056","0.0-8.0-0.0-1.0-0.0-0.22","4","5","5","4","3","4","4","3","4","4","4","1","0","-1","1","0","0","1","1","4","5","4","4","4","4","5","4","4","5","5","6","6","7","5","5","6","6","6","5","5","4","5","5","2","4","5","5","3","1","3","2","5","6","5","5","5","4","5","2","3","3","3","3","2","5","3","6","3","6","3","3","3","3","3","5","2","6","3","4","792726336467771393","陈","275","Female","[""坏我"",""坏她"",""好她"",""好我""]","[""弱我"",""弱她"",""强她"",""强我""]","","","","","","","","match","","","","","","","","","","key","j","16.5","540","337","j","true","match","img/triangle.png","好她","好她","prac_ALT2_moral","practice_moral","","","","","","","","",""
"null","<span style='color:GreenYellow; font-size: 70px;'>正确! </span>","null","html-keyboard-response","55","229560","0.0-8.0-0.0-1.0-0.0-1.22","4","5","5","4","3","4","4","3","4","4","4","1","0","-1","1","0","0","1","1","4","5","4","4","4","4","5","4","4","5","5","6","6","7","5","5","6","6","6","5","5","4","5","5","2","4","5","5","3","1","3","2","5","6","5","5","5","4","5","2","3","3","3","3","2","5","3","6","3","6","3","3","3","3","3","5","2","6","3","4","792726336467771393","陈","275","Female","[""坏我"",""坏她"",""好她"",""好我""]","[""弱我"",""弱她"",""强她"",""强我""]","","","","","","","","","","","","","","","","","","","","","","","","","","","","","","feedback_test","","","","","","","","",""
"738","","f","psychophysics","56","231304","0.0-8.0-0.0-1.0-0.0-0.23","4","5","5","4","3","4","4","3","4","4","4","1","0","-1","1","0","0","1","1","4","5","4","4","4","4","5","4","4","5","5","6","6","7","5","5","6","6","6","5","5","4","5","5","2","4","5","5","3","1","3","2","5","6","5","5","5","4","5","2","3","3","3","3","2","5","3","6","3","6","3","3","3","3","3","5","2","6","3","4","792726336467771393","陈","275","Female","[""坏我"",""坏她"",""好她"",""好我""]","[""弱我"",""弱她"",""强她"",""强我""]","","","","","","","","nonmatch","","","","","","","","","","key","f","16.666666666666668","540","337","f","true","nonmatch","img/square.png","坏她","好我","prac_ALT2_moral","practice_moral","","","","","","","","",""
"null","<span style='color:GreenYellow; font-size: 70px;'>正确! </span>","null","html-keyboard-response","57","231807","0.0-8.0-0.0-1.0-0.0-1.23","4","5","5","4","3","4","4","3","4","4","4","1","0","-1","1","0","0","1","1","4","5","4","4","4","4","5","4","4","5","5","6","6","7","5","5","6","6","6","5","5","4","5","5","2","4","5","5","3","1","3","2","5","6","5","5","5","4","5","2","3","3","3","3","2","5","3","6","3","6","3","3","3","3","3","5","2","6","3","4","792726336467771393","陈","275","Female","[""坏我"",""坏她"",""好她"",""好我""]","[""弱我"",""弱她"",""强她"",""强我""]","","","","","","","","","","","","","","","","","","","","","","","","","","","","","","feedback_test","","","","","","","","",""
"641","","j","psychophysics","58","233453","0.0-8.0-0.0-1.0-0.0-0.24","4","5","5","4","3","4","4","3","4","4","4","1","0","-1","1","0","0","1","1","4","5","4","4","4","4","5","4","4","5","5","6","6","7","5","5","6","6","6","5","5","4","5","5","2","4","5","5","3","1","3","2","5","6","5","5","5","4","5","2","3","3","3","3","2","5","3","6","3","6","3","3","3","3","3","5","2","6","3","4","792726336467771393","陈","275","Female","[""坏我"",""坏她"",""好她"",""好我""]","[""弱我"",""弱她"",""强她"",""强我""]","","","","","","","","match","","","","","","","","","","key","j","16.697916666666668","540","337","j","true","match","img/square.png","好我","好我","prac_ALT2_moral","practice_moral","","","","","","","","",""
"null","<span style='color:GreenYellow; font-size: 70px;'>正确! </span>","null","html-keyboard-response","59","233956","0.0-8.0-0.0-1.0-0.0-1.24","4","5","5","4","3","4","4","3","4","4","4","1","0","-1","1","0","0","1","1","4","5","4","4","4","4","5","4","4","5","5","6","6","7","5","5","6","6","6","5","5","4","5","5","2","4","5","5","3","1","3","2","5","6","5","5","5","4","5","2","3","3","3","3","2","5","3","6","3","6","3","3","3","3","3","5","2","6","3","4","792726336467771393","陈","275","Female","[""坏我"",""坏她"",""好她"",""好我""]","[""弱我"",""弱她"",""强她"",""强我""]","","","","","","","","","","","","","","","","","","","","","","","","","","","","","","feedback_test","","","","","","","","",""
"741","","f","psychophysics","60","235702","0.0-8.0-0.0-1.0-0.0-0.25","4","5","5","4","3","4","4","3","4","4","4","1","0","-1","1","0","0","1","1","4","5","4","4","4","4","5","4","4","5","5","6","6","7","5","5","6","6","6","5","5","4","5","5","2","4","5","5","3","1","3","2","5","6","5","5","5","4","5","2","3","3","3","3","2","5","3","6","3","6","3","3","3","3","3","5","2","6","3","4","792726336467771393","陈","275","Female","[""坏我"",""坏她"",""好她"",""好我""]","[""弱我"",""弱她"",""强她"",""强我""]","","","","","","","","nonmatch","","","","","","","","","","key","f","16.65686274509804","540","337","f","true","nonmatch","img/square.png","坏我","好我","prac_ALT2_moral","practice_moral","","","","","","","","",""
"null","<span style='color:GreenYellow; font-size: 70px;'>正确! </span>","null","html-keyboard-response","61","236204","0.0-8.0-0.0-1.0-0.0-1.25","4","5","5","4","3","4","4","3","4","4","4","1","0","-1","1","0","0","1","1","4","5","4","4","4","4","5","4","4","5","5","6","6","7","5","5","6","6","6","5","5","4","5","5","2","4","5","5","3","1","3","2","5","6","5","5","5","4","5","2","3","3","3","3","2","5","3","6","3","6","3","3","3","3","3","5","2","6","3","4","792726336467771393","陈","275","Female","[""坏我"",""坏她"",""好她"",""好我""]","[""弱我"",""弱她"",""强她"",""强我""]","","","","","","","","","","","","","","","","","","","","","","","","","","","","","","feedback_test","","","","","","","","",""
"665","","j","psychophysics","62","237873","0.0-8.0-0.0-1.0-0.0-0.26","4","5","5","4","3","4","4","3","4","4","4","1","0","-1","1","0","0","1","1","4","5","4","4","4","4","5","4","4","5","5","6","6","7","5","5","6","6","6","5","5","4","5","5","2","4","5","5","3","1","3","2","5","6","5","5","5","4","5","2","3","3","3","3","2","5","3","6","3","6","3","3","3","3","3","5","2","6","3","4","792726336467771393","陈","275","Female","[""坏我"",""坏她"",""好她"",""好我""]","[""弱我"",""弱她"",""强她"",""强我""]","","","","","","","","match","","","","","","","","","","key","j","16.540816326530614","540","337","f","false","nonmatch","img/triangle.png","坏她","好她","prac_ALT2_moral","practice_moral","","","","","","","","",""
"null","<span style='color:red; font-size: 70px;'>错误! </span>","null","html-keyboard-response","63","238375","0.0-8.0-0.0-1.0-0.0-1.26","4","5","5","4","3","4","4","3","4","4","4","1","0","-1","1","0","0","1","1","4","5","4","4","4","4","5","4","4","5","5","6","6","7","5","5","6","6","6","5","5","4","5","5","2","4","5","5","3","1","3","2","5","6","5","5","5","4","5","2","3","3","3","3","2","5","3","6","3","6","3","3","3","3","3","5","2","6","3","4","792726336467771393","陈","275","Female","[""坏我"",""坏她"",""好她"",""好我""]","[""弱我"",""弱她"",""强她"",""强我""]","","","","","","","","","","","","","","","","","","","","","","","","","","","","","","feedback_test","","","","","","","","",""
"821","","f","psychophysics","64","240202","0.0-8.0-0.0-1.0-0.0-0.27","4","5","5","4","3","4","4","3","4","4","4","1","0","-1","1","0","0","1","1","4","5","4","4","4","4","5","4","4","5","5","6","6","7","5","5","6","6","6","5","5","4","5","5","2","4","5","5","3","1","3","2","5","6","5","5","5","4","5","2","3","3","3","3","2","5","3","6","3","6","3","3","3","3","3","5","2","6","3","4","792726336467771393","陈","275","Female","[""坏我"",""坏她"",""好她"",""好我""]","[""弱我"",""弱她"",""强她"",""强我""]","","","","","","","","nonmatch","","","","","","","","","","key","f","16.654205607476637","540","337","j","false","match","img/hexagon.png","坏我","坏我","prac_ALT2_moral","practice_moral","","","","","","","","",""
"null","<span style='color:red; font-size: 70px;'>错误! </span>","null","html-keyboard-response","65","240704","0.0-8.0-0.0-1.0-0.0-1.27","4","5","5","4","3","4","4","3","4","4","4","1","0","-1","1","0","0","1","1","4","5","4","4","4","4","5","4","4","5","5","6","6","7","5","5","6","6","6","5","5","4","5","5","2","4","5","5","3","1","3","2","5","6","5","5","5","4","5","2","3","3","3","3","2","5","3","6","3","6","3","3","3","3","3","5","2","6","3","4","792726336467771393","陈","275","Female","[""坏我"",""坏她"",""好她"",""好我""]","[""弱我"",""弱她"",""强她"",""强我""]","","","","","","","","","","","","","","","","","","","","","","","","","","","","","","feedback_test","","","","","","","","",""
"830","","f","psychophysics","66","242543","0.0-8.0-0.0-1.0-0.0-0.28","4","5","5","4","3","4","4","3","4","4","4","1","0","-1","1","0","0","1","1","4","5","4","4","4","4","5","4","4","5","5","6","6","7","5","5","6","6","6","5","5","4","5","5","2","4","5","5","3","1","3","2","5","6","5","5","5","4","5","2","3","3","3","3","2","5","3","6","3","6","3","3","3","3","3","5","2","6","3","4","792726336467771393","陈","275","Female","[""坏我"",""坏她"",""好她"",""好我""]","[""弱我"",""弱她"",""强她"",""强我""]","","","","","","","","nonmatch","","","","","","","","","","key","f","16.69158878504673","540","337","f","true","nonmatch","img/hexagon.png","好她","坏我","prac_ALT2_moral","practice_moral","","","","","","","","",""
"null","<span style='color:GreenYellow; font-size: 70px;'>正确! </span>","null","html-keyboard-response","67","243049","0.0-8.0-0.0-1.0-0.0-1.28","4","5","5","4","3","4","4","3","4","4","4","1","0","-1","1","0","0","1","1","4","5","4","4","4","4","5","4","4","5","5","6","6","7","5","5","6","6","6","5","5","4","5","5","2","4","5","5","3","1","3","2","5","6","5","5","5","4","5","2","3","3","3","3","2","5","3","6","3","6","3","3","3","3","3","5","2","6","3","4","792726336467771393","陈","275","Female","[""坏我"",""坏她"",""好她"",""好我""]","[""弱我"",""弱她"",""强她"",""强我""]","","","","","","","","","","","","","","","","","","","","","","","","","","","","","","feedback_test","","","","","","","","",""
"695","","j","psychophysics","68","244750","0.0-8.0-0.0-1.0-0.0-0.29","4","5","5","4","3","4","4","3","4","4","4","1","0","-1","1","0","0","1","1","4","5","4","4","4","4","5","4","4","5","5","6","6","7","5","5","6","6","6","5","5","4","5","5","2","4","5","5","3","1","3","2","5","6","5","5","5","4","5","2","3","3","3","3","2","5","3","6","3","6","3","3","3","3","3","5","2","6","3","4","792726336467771393","陈","275","Female","[""坏我"",""坏她"",""好她"",""好我""]","[""弱我"",""弱她"",""强她"",""强我""]","","","","","","","","match","","","","","","","","","","key","j","16.57","540","337","f","false","nonmatch","img/triangle.png","好我","好她","prac_ALT2_moral","practice_moral","","","","","","","","",""
"null","<span style='color:red; font-size: 70px;'>错误! </span>","null","html-keyboard-response","69","245252","0.0-8.0-0.0-1.0-0.0-1.29","4","5","5","4","3","4","4","3","4","4","4","1","0","-1","1","0","0","1","1","4","5","4","4","4","4","5","4","4","5","5","6","6","7","5","5","6","6","6","5","5","4","5","5","2","4","5","5","3","1","3","2","5","6","5","5","5","4","5","2","3","3","3","3","2","5","3","6","3","6","3","3","3","3","3","5","2","6","3","4","792726336467771393","陈","275","Female","[""坏我"",""坏她"",""好她"",""好我""]","[""弱我"",""弱她"",""强她"",""强我""]","","","","","","","","","","","","","","","","","","","","","","","","","","","","","","feedback_test","","","","","","","","",""
"659","","j","psychophysics","70","246916","0.0-8.0-0.0-1.0-0.0-0.30","4","5","5","4","3","4","4","3","4","4","4","1","0","-1","1","0","0","1","1","4","5","4","4","4","4","5","4","4","5","5","6","6","7","5","5","6","6","6","5","5","4","5","5","2","4","5","5","3","1","3","2","5","6","5","5","5","4","5","2","3","3","3","3","2","5","3","6","3","6","3","3","3","3","3","5","2","6","3","4","792726336467771393","陈","275","Female","[""坏我"",""坏她"",""好她"",""好我""]","[""弱我"",""弱她"",""强她"",""强我""]","","","","","","","","match","","","","","","","","","","key","j","16.540816326530614","540","337","j","true","match","img/square.png","好我","好我","prac_ALT2_moral","practice_moral","","","","","","","","",""
"null","<span style='color:GreenYellow; font-size: 70px;'>正确! </span>","null","html-keyboard-response","71","247418","0.0-8.0-0.0-1.0-0.0-1.30","4","5","5","4","3","4","4","3","4","4","4","1","0","-1","1","0","0","1","1","4","5","4","4","4","4","5","4","4","5","5","6","6","7","5","5","6","6","6","5","5","4","5","5","2","4","5","5","3","1","3","2","5","6","5","5","5","4","5","2","3","3","3","3","2","5","3","6","3","6","3","3","3","3","3","5","2","6","3","4","792726336467771393","陈","275","Female","[""坏我"",""坏她"",""好她"",""好我""]","[""弱我"",""弱她"",""强她"",""强我""]","","","","","","","","","","","","","","","","","","","","","","","","","","","","","","feedback_test","","","","","","","","",""
"843","","f","psychophysics","72","249265","0.0-8.0-0.0-1.0-0.0-0.31","4","5","5","4","3","4","4","3","4","4","4","1","0","-1","1","0","0","1","1","4","5","4","4","4","4","5","4","4","5","5","6","6","7","5","5","6","6","6","5","5","4","5","5","2","4","5","5","3","1","3","2","5","6","5","5","5","4","5","2","3","3","3","3","2","5","3","6","3","6","3","3","3","3","3","5","2","6","3","4","792726336467771393","陈","275","Female","[""坏我"",""坏她"",""好她"",""好我""]","[""弱我"",""弱她"",""强她"",""强我""]","","","","","","","","nonmatch","","","","","","","","","","key","f","16.65740740740741","540","337","f","true","nonmatch","img/ellipse.png","坏我","坏她","prac_ALT2_moral","practice_moral","","","","","","","","",""
"null","<span style='color:GreenYellow; font-size: 70px;'>正确! </span>","null","html-keyboard-response","73","249768","0.0-8.0-0.0-1.0-0.0-1.31","4","5","5","4","3","4","4","3","4","4","4","1","0","-1","1","0","0","1","1","4","5","4","4","4","4","5","4","4","5","5","6","6","7","5","5","6","6","6","5","5","4","5","5","2","4","5","5","3","1","3","2","5","6","5","5","5","4","5","2","3","3","3","3","2","5","3","6","3","6","3","3","3","3","3","5","2","6","3","4","792726336467771393","陈","275","Female","[""坏我"",""坏她"",""好她"",""好我""]","[""弱我"",""弱她"",""强她"",""强我""]","","","","","","","","","","","","","","","","","","","","","","","","","","","","","","feedback_test","","","","","","","","",""
"842","","f","psychophysics","74","251615","0.0-8.0-0.0-1.0-0.0-0.32","4","5","5","4","3","4","4","3","4","4","4","1","0","-1","1","0","0","1","1","4","5","4","4","4","4","5","4","4","5","5","6","6","7","5","5","6","6","6","5","5","4","5","5","2","4","5","5","3","1","3","2","5","6","5","5","5","4","5","2","3","3","3","3","2","5","3","6","3","6","3","3","3","3","3","5","2","6","3","4","792726336467771393","陈","275","Female","[""坏我"",""坏她"",""好她"",""好我""]","[""弱我"",""弱她"",""强她"",""强我""]","","","","","","","","nonmatch","","","","","","","","","","key","f","16.559633027522935","540","337","f","true","nonmatch","img/ellipse.png","好我","坏她","prac_ALT2_moral","practice_moral","","","","","","","","",""
"null","<span style='color:GreenYellow; font-size: 70px;'>正确! </span>","null","html-keyboard-response","75","252118","0.0-8.0-0.0-1.0-0.0-1.32","4","5","5","4","3","4","4","3","4","4","4","1","0","-1","1","0","0","1","1","4","5","4","4","4","4","5","4","4","5","5","6","6","7","5","5","6","6","6","5","5","4","5","5","2","4","5","5","3","1","3","2","5","6","5","5","5","4","5","2","3","3","3","3","2","5","3","6","3","6","3","3","3","3","3","5","2","6","3","4","792726336467771393","陈","275","Female","[""坏我"",""坏她"",""好她"",""好我""]","[""弱我"",""弱她"",""强她"",""强我""]","","","","","","","","","","","","","","","","","","","","","","","","","","","","","","feedback_test","","","","","","","","",""
"840","","f","psychophysics","76","253963","0.0-8.0-0.0-1.0-0.0-0.33","4","5","5","4","3","4","4","3","4","4","4","1","0","-1","1","0","0","1","1","4","5","4","4","4","4","5","4","4","5","5","6","6","7","5","5","6","6","6","5","5","4","5","5","2","4","5","5","3","1","3","2","5","6","5","5","5","4","5","2","3","3","3","3","2","5","3","6","3","6","3","3","3","3","3","5","2","6","3","4","792726336467771393","陈","275","Female","[""坏我"",""坏她"",""好她"",""好我""]","[""弱我"",""弱她"",""强她"",""强我""]","","","","","","","","nonmatch","","","","","","","","","","key","f","16.703703703703702","540","337","f","true","nonmatch","img/hexagon.png","坏她","坏我","prac_ALT2_moral","practice_moral","","","","","","","","",""
"null","<span style='color:GreenYellow; font-size: 70px;'>正确! </span>","null","html-keyboard-response","77","254465","0.0-8.0-0.0-1.0-0.0-1.33","4","5","5","4","3","4","4","3","4","4","4","1","0","-1","1","0","0","1","1","4","5","4","4","4","4","5","4","4","5","5","6","6","7","5","5","6","6","6","5","5","4","5","5","2","4","5","5","3","1","3","2","5","6","5","5","5","4","5","2","3","3","3","3","2","5","3","6","3","6","3","3","3","3","3","5","2","6","3","4","792726336467771393","陈","275","Female","[""坏我"",""坏她"",""好她"",""好我""]","[""弱我"",""弱她"",""强她"",""强我""]","","","","","","","","","","","","","","","","","","","","","","","","","","","","","","feedback_test","","","","","","","","",""
"644","","j","psychophysics","78","256113","0.0-8.0-0.0-1.0-0.0-0.34","4","5","5","4","3","4","4","3","4","4","4","1","0","-1","1","0","0","1","1","4","5","4","4","4","4","5","4","4","5","5","6","6","7","5","5","6","6","6","5","5","4","5","5","2","4","5","5","3","1","3","2","5","6","5","5","5","4","5","2","3","3","3","3","2","5","3","6","3","6","3","3","3","3","3","5","2","6","3","4","792726336467771393","陈","275","Female","[""坏我"",""坏她"",""好她"",""好我""]","[""弱我"",""弱她"",""强她"",""强我""]","","","","","","","","match","","","","","","","","","","key","j","16.54639175257732","540","337","j","true","match","img/ellipse.png","坏她","坏她","prac_ALT2_moral","practice_moral","","","","","","","","",""
"null","<span style='color:GreenYellow; font-size: 70px;'>正确! </span>","null","html-keyboard-response","79","256615","0.0-8.0-0.0-1.0-0.0-1.34","4","5","5","4","3","4","4","3","4","4","4","1","0","-1","1","0","0","1","1","4","5","4","4","4","4","5","4","4","5","5","6","6","7","5","5","6","6","6","5","5","4","5","5","2","4","5","5","3","1","3","2","5","6","5","5","5","4","5","2","3","3","3","3","2","5","3","6","3","6","3","3","3","3","3","5","2","6","3","4","792726336467771393","陈","275","Female","[""坏我"",""坏她"",""好她"",""好我""]","[""弱我"",""弱她"",""强她"",""强我""]","","","","","","","","","","","","","","","","","","","","","","","","","","","","","","feedback_test","","","","","","","","",""
"785","","j","psychophysics","80","258412","0.0-8.0-0.0-1.0-0.0-0.35","4","5","5","4","3","4","4","3","4","4","4","1","0","-1","1","0","0","1","1","4","5","4","4","4","4","5","4","4","5","5","6","6","7","5","5","6","6","6","5","5","4","5","5","2","4","5","5","3","1","3","2","5","6","5","5","5","4","5","2","3","3","3","3","2","5","3","6","3","6","3","3","3","3","3","5","2","6","3","4","792726336467771393","陈","275","Female","[""坏我"",""坏她"",""好她"",""好我""]","[""弱我"",""弱她"",""强她"",""强我""]","","","","","","","","match","","","","","","","","","","key","j","16.590476190476192","540","337","j","true","match","img/hexagon.png","坏我","坏我","prac_ALT2_moral","practice_moral","","","","","","","","",""
"null","<span style='color:GreenYellow; font-size: 70px;'>正确! </span>","null","html-keyboard-response","81","258916","0.0-8.0-0.0-1.0-0.0-1.35","4","5","5","4","3","4","4","3","4","4","4","1","0","-1","1","0","0","1","1","4","5","4","4","4","4","5","4","4","5","5","6","6","7","5","5","6","6","6","5","5","4","5","5","2","4","5","5","3","1","3","2","5","6","5","5","5","4","5","2","3","3","3","3","2","5","3","6","3","6","3","3","3","3","3","5","2","6","3","4","792726336467771393","陈","275","Female","[""坏我"",""坏她"",""好她"",""好我""]","[""弱我"",""弱她"",""强她"",""强我""]","","","","","","","","","","","","","","","","","","","","","","","","","","","","","","feedback_test","","","","","","","","",""
"607","","j","psychophysics","82","260529","0.0-8.0-0.0-1.0-0.0-0.36","4","5","5","4","3","4","4","3","4","4","4","1","0","-1","1","0","0","1","1","4","5","4","4","4","4","5","4","4","5","5","6","6","7","5","5","6","6","6","5","5","4","5","5","2","4","5","5","3","1","3","2","5","6","5","5","5","4","5","2","3","3","3","3","2","5","3","6","3","6","3","3","3","3","3","5","2","6","3","4","792726336467771393","陈","275","Female","[""坏我"",""坏她"",""好她"",""好我""]","[""弱我"",""弱她"",""强她"",""强我""]","","","","","","","","match","","","","","","","","","","key","j","16.69148936170213","540","337","j","true","match","img/square.png","好我","好我","prac_ALT2_moral","practice_moral","","","","","","","","",""
"null","<span style='color:GreenYellow; font-size: 70px;'>正确! </span>","null","html-keyboard-response","83","261032","0.0-8.0-0.0-1.0-0.0-1.36","4","5","5","4","3","4","4","3","4","4","4","1","0","-1","1","0","0","1","1","4","5","4","4","4","4","5","4","4","5","5","6","6","7","5","5","6","6","6","5","5","4","5","5","2","4","5","5","3","1","3","2","5","6","5","5","5","4","5","2","3","3","3","3","2","5","3","6","3","6","3","3","3","3","3","5","2","6","3","4","792726336467771393","陈","275","Female","[""坏我"",""坏她"",""好她"",""好我""]","[""弱我"",""弱她"",""强她"",""强我""]","","","","","","","","","","","","","","","","","","","","","","","","","","","","","","feedback_test","","","","","","","","",""
"591","","j","psychophysics","84","262628","0.0-8.0-0.0-1.0-0.0-0.37","4","5","5","4","3","4","4","3","4","4","4","1","0","-1","1","0","0","1","1","4","5","4","4","4","4","5","4","4","5","5","6","6","7","5","5","6","6","6","5","5","4","5","5","2","4","5","5","3","1","3","2","5","6","5","5","5","4","5","2","3","3","3","3","2","5","3","6","3","6","3","3","3","3","3","5","2","6","3","4","792726336467771393","陈","275","Female","[""坏我"",""坏她"",""好她"",""好我""]","[""弱我"",""弱她"",""强她"",""强我""]","","","","","","","","match","","","","","","","","","","key","j","16.688172043010752","540","337","j","true","match","img/triangle.png","好她","好她","prac_ALT2_moral","practice_moral","","","","","","","","",""
"null","<span style='color:GreenYellow; font-size: 70px;'>正确! </span>","null","html-keyboard-response","85","263130","0.0-8.0-0.0-1.0-0.0-1.37","4","5","5","4","3","4","4","3","4","4","4","1","0","-1","1","0","0","1","1","4","5","4","4","4","4","5","4","4","5","5","6","6","7","5","5","6","6","6","5","5","4","5","5","2","4","5","5","3","1","3","2","5","6","5","5","5","4","5","2","3","3","3","3","2","5","3","6","3","6","3","3","3","3","3","5","2","6","3","4","792726336467771393","陈","275","Female","[""坏我"",""坏她"",""好她"",""好我""]","[""弱我"",""弱她"",""强她"",""强我""]","","","","","","","","","","","","","","","","","","","","","","","","","","","","","","feedback_test","","","","","","","","",""
"541","","j","psychophysics","86","264678","0.0-8.0-0.0-1.0-0.0-0.38","4","5","5","4","3","4","4","3","4","4","4","1","0","-1","1","0","0","1","1","4","5","4","4","4","4","5","4","4","5","5","6","6","7","5","5","6","6","6","5","5","4","5","5","2","4","5","5","3","1","3","2","5","6","5","5","5","4","5","2","3","3","3","3","2","5","3","6","3","6","3","3","3","3","3","5","2","6","3","4","792726336467771393","陈","275","Female","[""坏我"",""坏她"",""好她"",""好我""]","[""弱我"",""弱她"",""强她"",""强我""]","","","","","","","","match","","","","","","","","","","key","j","16.644444444444446","540","337","j","true","match","img/ellipse.png","坏她","坏她","prac_ALT2_moral","practice_moral","","","","","","","","",""
"null","<span style='color:GreenYellow; font-size: 70px;'>正确! </span>","null","html-keyboard-response","87","265180","0.0-8.0-0.0-1.0-0.0-1.38","4","5","5","4","3","4","4","3","4","4","4","1","0","-1","1","0","0","1","1","4","5","4","4","4","4","5","4","4","5","5","6","6","7","5","5","6","6","6","5","5","4","5","5","2","4","5","5","3","1","3","2","5","6","5","5","5","4","5","2","3","3","3","3","2","5","3","6","3","6","3","3","3","3","3","5","2","6","3","4","792726336467771393","陈","275","Female","[""坏我"",""坏她"",""好她"",""好我""]","[""弱我"",""弱她"",""强她"",""强我""]","","","","","","","","","","","","","","","","","","","","","","","","","","","","","","feedback_test","","","","","","","","",""
"596","","j","psychophysics","88","266781","0.0-8.0-0.0-1.0-0.0-0.39","4","5","5","4","3","4","4","3","4","4","4","1","0","-1","1","0","0","1","1","4","5","4","4","4","4","5","4","4","5","5","6","6","7","5","5","6","6","6","5","5","4","5","5","2","4","5","5","3","1","3","2","5","6","5","5","5","4","5","2","3","3","3","3","2","5","3","6","3","6","3","3","3","3","3","5","2","6","3","4","792726336467771393","陈","275","Female","[""坏我"",""坏她"",""好她"",""好我""]","[""弱我"",""弱她"",""强她"",""强我""]","","","","","","","","match","","","","","","","","","","key","j","16.698924731182796","540","337","j","true","match","img/ellipse.png","坏她","坏她","prac_ALT2_moral","practice_moral","","","","","","","","",""
"null","<span style='color:GreenYellow; font-size: 70px;'>正确! </span>","null","html-keyboard-response","89","267283","0.0-8.0-0.0-1.0-0.0-1.39","4","5","5","4","3","4","4","3","4","4","4","1","0","-1","1","0","0","1","1","4","5","4","4","4","4","5","4","4","5","5","6","6","7","5","5","6","6","6","5","5","4","5","5","2","4","5","5","3","1","3","2","5","6","5","5","5","4","5","2","3","3","3","3","2","5","3","6","3","6","3","3","3","3","3","5","2","6","3","4","792726336467771393","陈","275","Female","[""坏我"",""坏她"",""好她"",""好我""]","[""弱我"",""弱她"",""强她"",""强我""]","","","","","","","","","","","","","","","","","","","","","","","","","","","","","","feedback_test","","","","","","","","",""
"738","","j","psychophysics","90","269026","0.0-8.0-0.0-1.0-0.0-0.40","4","5","5","4","3","4","4","3","4","4","4","1","0","-1","1","0","0","1","1","4","5","4","4","4","4","5","4","4","5","5","6","6","7","5","5","6","6","6","5","5","4","5","5","2","4","5","5","3","1","3","2","5","6","5","5","5","4","5","2","3","3","3","3","2","5","3","6","3","6","3","3","3","3","3","5","2","6","3","4","792726336467771393","陈","275","Female","[""坏我"",""坏她"",""好她"",""好我""]","[""弱我"",""弱她"",""强她"",""强我""]","","","","","","","","match","","","","","","","","","","key","j","16.647058823529413","540","337","f","false","nonmatch","img/square.png","坏她","好我","prac_ALT2_moral","practice_moral","","","","","","","","",""
"null","<span style='color:red; font-size: 70px;'>错误! </span>","null","html-keyboard-response","91","269528","0.0-8.0-0.0-1.0-0.0-1.40","4","5","5","4","3","4","4","3","4","4","4","1","0","-1","1","0","0","1","1","4","5","4","4","4","4","5","4","4","5","5","6","6","7","5","5","6","6","6","5","5","4","5","5","2","4","5","5","3","1","3","2","5","6","5","5","5","4","5","2","3","3","3","3","2","5","3","6","3","6","3","3","3","3","3","5","2","6","3","4","792726336467771393","陈","275","Female","[""坏我"",""坏她"",""好她"",""好我""]","[""弱我"",""弱她"",""强她"",""强我""]","","","","","","","","","","","","","","","","","","","","","","","","","","","","","","feedback_test","","","","","","","","",""
"660","","j","psychophysics","92","271192","0.0-8.0-0.0-1.0-0.0-0.41","4","5","5","4","3","4","4","3","4","4","4","1","0","-1","1","0","0","1","1","4","5","4","4","4","4","5","4","4","5","5","6","6","7","5","5","6","6","6","5","5","4","5","5","2","4","5","5","3","1","3","2","5","6","5","5","5","4","5","2","3","3","3","3","2","5","3","6","3","6","3","3","3","3","3","5","2","6","3","4","792726336467771393","陈","275","Female","[""坏我"",""坏她"",""好她"",""好我""]","[""弱我"",""弱她"",""强她"",""强我""]","","","","","","","","match","","","","","","","","","","key","j","16.581632653061224","540","337","f","false","nonmatch","img/square.png","好她","好我","prac_ALT2_moral","practice_moral","","","","","","","","",""
"null","<span style='color:red; font-size: 70px;'>错误! </span>","null","html-keyboard-response","93","271694","0.0-8.0-0.0-1.0-0.0-1.41","4","5","5","4","3","4","4","3","4","4","4","1","0","-1","1","0","0","1","1","4","5","4","4","4","4","5","4","4","5","5","6","6","7","5","5","6","6","6","5","5","4","5","5","2","4","5","5","3","1","3","2","5","6","5","5","5","4","5","2","3","3","3","3","2","5","3","6","3","6","3","3","3","3","3","5","2","6","3","4","792726336467771393","陈","275","Female","[""坏我"",""坏她"",""好她"",""好我""]","[""弱我"",""弱她"",""强她"",""强我""]","","","","","","","","","","","","","","","","","","","","","","","","","","","","","","feedback_test","","","","","","","","",""
"843","","f","psychophysics","94","273541","0.0-8.0-0.0-1.0-0.0-0.42","4","5","5","4","3","4","4","3","4","4","4","1","0","-1","1","0","0","1","1","4","5","4","4","4","4","5","4","4","5","5","6","6","7","5","5","6","6","6","5","5","4","5","5","2","4","5","5","3","1","3","2","5","6","5","5","5","4","5","2","3","3","3","3","2","5","3","6","3","6","3","3","3","3","3","5","2","6","3","4","792726336467771393","陈","275","Female","[""坏我"",""坏她"",""好她"",""好我""]","[""弱我"",""弱她"",""强她"",""强我""]","","","","","","","","nonmatch","","","","","","","","","","key","f","16.65740740740741","540","337","j","false","match","img/triangle.png","好她","好她","prac_ALT2_moral","practice_moral","","","","","","","","",""
"null","<span style='color:red; font-size: 70px;'>错误! </span>","null","html-keyboard-response","95","274045","0.0-8.0-0.0-1.0-0.0-1.42","4","5","5","4","3","4","4","3","4","4","4","1","0","-1","1","0","0","1","1","4","5","4","4","4","4","5","4","4","5","5","6","6","7","5","5","6","6","6","5","5","4","5","5","2","4","5","5","3","1","3","2","5","6","5","5","5","4","5","2","3","3","3","3","2","5","3","6","3","6","3","3","3","3","3","5","2","6","3","4","792726336467771393","陈","275","Female","[""坏我"",""坏她"",""好她"",""好我""]","[""弱我"",""弱她"",""强她"",""强我""]","","","","","","","","","","","","","","","","","","","","","","","","","","","","","","feedback_test","","","","","","","","",""
"574","","j","psychophysics","96","275624","0.0-8.0-0.0-1.0-0.0-0.43","4","5","5","4","3","4","4","3","4","4","4","1","0","-1","1","0","0","1","1","4","5","4","4","4","4","5","4","4","5","5","6","6","7","5","5","6","6","6","5","5","4","5","5","2","4","5","5","3","1","3","2","5","6","5","5","5","4","5","2","3","3","3","3","2","5","3","6","3","6","3","3","3","3","3","5","2","6","3","4","792726336467771393","陈","275","Female","[""坏我"",""坏她"",""好她"",""好我""]","[""弱我"",""弱她"",""强她"",""强我""]","","","","","","","","match","","","","","","","","","","key","j","16.684782608695652","540","337","j","true","match","img/hexagon.png","坏我","坏我","prac_ALT2_moral","practice_moral","","","","","","","","",""
"null","<span style='color:GreenYellow; font-size: 70px;'>正确! </span>","null","html-keyboard-response","97","276126","0.0-8.0-0.0-1.0-0.0-1.43","4","5","5","4","3","4","4","3","4","4","4","1","0","-1","1","0","0","1","1","4","5","4","4","4","4","5","4","4","5","5","6","6","7","5","5","6","6","6","5","5","4","5","5","2","4","5","5","3","1","3","2","5","6","5","5","5","4","5","2","3","3","3","3","2","5","3","6","3","6","3","3","3","3","3","5","2","6","3","4","792726336467771393","陈","275","Female","[""坏我"",""坏她"",""好她"",""好我""]","[""弱我"",""弱她"",""强她"",""强我""]","","","","","","","","","","","","","","","","","","","","","","","","","","","","","","feedback_test","","","","","","","","",""
"876","","f","psychophysics","98","278006","0.0-8.0-0.0-1.0-0.0-0.44","4","5","5","4","3","4","4","3","4","4","4","1","0","-1","1","0","0","1","1","4","5","4","4","4","4","5","4","4","5","5","6","6","7","5","5","6","6","6","5","5","4","5","5","2","4","5","5","3","1","3","2","5","6","5","5","5","4","5","2","3","3","3","3","2","5","3","6","3","6","3","3","3","3","3","5","2","6","3","4","792726336467771393","陈","275","Female","[""坏我"",""坏她"",""好她"",""好我""]","[""弱我"",""弱她"",""强她"",""强我""]","","","","","","","","nonmatch","","","","","","","","","","key","f","16.7","540","337","f","true","nonmatch","img/hexagon.png","好我","坏我","prac_ALT2_moral","practice_moral","","","","","","","","",""
"null","<span style='color:GreenYellow; font-size: 70px;'>正确! </span>","null","html-keyboard-response","99","278508","0.0-8.0-0.0-1.0-0.0-1.44","4","5","5","4","3","4","4","3","4","4","4","1","0","-1","1","0","0","1","1","4","5","4","4","4","4","5","4","4","5","5","6","6","7","5","5","6","6","6","5","5","4","5","5","2","4","5","5","3","1","3","2","5","6","5","5","5","4","5","2","3","3","3","3","2","5","3","6","3","6","3","3","3","3","3","5","2","6","3","4","792726336467771393","陈","275","Female","[""坏我"",""坏她"",""好她"",""好我""]","[""弱我"",""弱她"",""强她"",""强我""]","","","","","","","","","","","","","","","","","","","","","","","","","","","","","","feedback_test","","","","","","","","",""
"526","","j","psychophysics","100","280038","0.0-8.0-0.0-1.0-0.0-0.45","4","5","5","4","3","4","4","3","4","4","4","1","0","-1","1","0","0","1","1","4","5","4","4","4","4","5","4","4","5","5","6","6","7","5","5","6","6","6","5","5","4","5","5","2","4","5","5","3","1","3","2","5","6","5","5","5","4","5","2","3","3","3","3","2","5","3","6","3","6","3","3","3","3","3","5","2","6","3","4","792726336467771393","陈","275","Female","[""坏我"",""坏她"",""好她"",""好我""]","[""弱我"",""弱她"",""强她"",""强我""]","","","","","","","","match","","","","","","","","","","key","j","16.640449438202246","540","337","j","true","match","img/triangle.png","好她","好她","prac_ALT2_moral","practice_moral","","","","","","","","",""
"null","<span style='color:GreenYellow; font-size: 70px;'>正确! </span>","null","html-keyboard-response","101","280541","0.0-8.0-0.0-1.0-0.0-1.45","4","5","5","4","3","4","4","3","4","4","4","1","0","-1","1","0","0","1","1","4","5","4","4","4","4","5","4","4","5","5","6","6","7","5","5","6","6","6","5","5","4","5","5","2","4","5","5","3","1","3","2","5","6","5","5","5","4","5","2","3","3","3","3","2","5","3","6","3","6","3","3","3","3","3","5","2","6","3","4","792726336467771393","陈","275","Female","[""坏我"",""坏她"",""好她"",""好我""]","[""弱我"",""弱她"",""强她"",""强我""]","","","","","","","","","","","","","","","","","","","","","","","","","","","","","","feedback_test","","","","","","","","",""
"643","","j","psychophysics","102","282188","0.0-8.0-0.0-1.0-0.0-0.46","4","5","5","4","3","4","4","3","4","4","4","1","0","-1","1","0","0","1","1","4","5","4","4","4","4","5","4","4","5","5","6","6","7","5","5","6","6","6","5","5","4","5","5","2","4","5","5","3","1","3","2","5","6","5","5","5","4","5","2","3","3","3","3","2","5","3","6","3","6","3","3","3","3","3","5","2","6","3","4","792726336467771393","陈","275","Female","[""坏我"",""坏她"",""好她"",""好我""]","[""弱我"",""弱她"",""强她"",""强我""]","","","","","","","","match","","","","","","","","","","key","j","16.697916666666668","540","337","f","false","nonmatch","img/triangle.png","坏我","好她","prac_ALT2_moral","practice_moral","","","","","","","","",""
"null","<span style='color:red; font-size: 70px;'>错误! </span>","null","html-keyboard-response","103","282691","0.0-8.0-0.0-1.0-0.0-1.46","4","5","5","4","3","4","4","3","4","4","4","1","0","-1","1","0","0","1","1","4","5","4","4","4","4","5","4","4","5","5","6","6","7","5","5","6","6","6","5","5","4","5","5","2","4","5","5","3","1","3","2","5","6","5","5","5","4","5","2","3","3","3","3","2","5","3","6","3","6","3","3","3","3","3","5","2","6","3","4","792726336467771393","陈","275","Female","[""坏我"",""坏她"",""好她"",""好我""]","[""弱我"",""弱她"",""强她"",""强我""]","","","","","","","","","","","","","","","","","","","","","","","","","","","","","","feedback_test","","","","","","","","",""
"576","","j","psychophysics","104","284270","0.0-8.0-0.0-1.0-0.0-0.47","4","5","5","4","3","4","4","3","4","4","4","1","0","-1","1","0","0","1","1","4","5","4","4","4","4","5","4","4","5","5","6","6","7","5","5","6","6","6","5","5","4","5","5","2","4","5","5","3","1","3","2","5","6","5","5","5","4","5","2","3","3","3","3","2","5","3","6","3","6","3","3","3","3","3","5","2","6","3","4","792726336467771393","陈","275","Female","[""坏我"",""坏她"",""好她"",""好我""]","[""弱我"",""弱她"",""强她"",""强我""]","","","","","","","","match","","","","","","","","","","key","j","16.695652173913043","540","337","f","false","nonmatch","img/ellipse.png","好她","坏她","prac_ALT2_moral","practice_moral","","","","","","","","",""
"null","<span style='color:red; font-size: 70px;'>错误! </span>","null","html-keyboard-response","105","284772","0.0-8.0-0.0-1.0-0.0-1.47","4","5","5","4","3","4","4","3","4","4","4","1","0","-1","1","0","0","1","1","4","5","4","4","4","4","5","4","4","5","5","6","6","7","5","5","6","6","6","5","5","4","5","5","2","4","5","5","3","1","3","2","5","6","5","5","5","4","5","2","3","3","3","3","2","5","3","6","3","6","3","3","3","3","3","5","2","6","3","4","792726336467771393","陈","275","Female","[""坏我"",""坏她"",""好她"",""好我""]","[""弱我"",""弱她"",""强她"",""强我""]","","","","","","","","","","","","","","","","","","","","","","","","","","","","","","feedback_test","","","","","","","","",""
"37317","<style>.context{color:white; font-size: 35px; line-height:40px}</style>                            <div><p class='context'>您正确回答了69% 的试次。</p><p class='context'>您的平均反应时为696毫秒。</p><p class='context'>恭喜您完成练习。按空格键进入正式实验。</p><p class='footer' style='font-size: 35px; line-height:40px;'>请在进入正式实验实验之前将您的<span style='color: lightgreen;'>食指</span>放在电脑键盘的相应键位上进行按键。</p>"," ","html-keyboard-response","106","322103","0.0-8.0-0.0-2.0","4","5","5","4","3","4","4","3","4","4","4","1","0","-1","1","0","0","1","1","4","5","4","4","4","4","5","4","4","5","5","6","6","7","5","5","6","6","6","5","5","4","5","5","2","4","5","5","3","1","3","2","5","6","5","5","5","4","5","2","3","3","3","3","2","5","3","6","3","6","3","3","3","3","3","5","2","6","3","4","792726336467771393","陈","275","Female","[""坏我"",""坏她"",""好她"",""好我""]","[""弱我"",""弱她"",""强她"",""强我""]","","","","","","","","","","","","","","","","","","","","","","","","","","","","","","","","","","","","","","",""
"3229","
    <p style='color: white; font-size: 22px'>请您将手指放在按键上，准备进入正式的匹配任务。</p>
    <p> <div style = ""color: green""><按空格键进入下一阶段的匹配任务></div></p>
    "," ","html-keyboard-response","107","325346","0.0-8.0-0.0-3.0","4","5","5","4","3","4","4","3","4","4","4","1","0","-1","1","0","0","1","1","4","5","4","4","4","4","5","4","4","5","5","6","6","7","5","5","6","6","6","5","5","4","5","5","2","4","5","5","3","1","3","2","5","6","5","5","5","4","5","2","3","3","3","3","2","5","3","6","3","6","3","3","3","3","3","5","2","6","3","4","792726336467771393","陈","275","Female","[""坏我"",""坏她"",""好她"",""好我""]","[""弱我"",""弱她"",""强她"",""强我""]","","","","","","","","","","","","","","","","","","","","","","","","","","","","","","","","","","","","","","",""
"788","","j","psychophysics","108","327141","0.0-8.0-0.0-4.0-0.0-0.0","4","5","5","4","3","4","4","3","4","4","4","1","0","-1","1","0","0","1","1","4","5","4","4","4","4","5","4","4","5","5","6","6","7","5","5","6","6","6","5","5","4","5","5","2","4","5","5","3","1","3","2","5","6","5","5","5","4","5","2","3","3","3","3","2","5","3","6","3","6","3","3","3","3","3","5","2","6","3","4","792726336467771393","陈","275","Female","[""坏我"",""坏她"",""好她"",""好我""]","[""弱我"",""弱她"",""强她"",""强我""]","","","","","","","","match","","","","","","","","","","key","j","16.65714285714286","540","337","j","true","match","img/hexagon.png","坏我","坏我","ALT2","moral","","","","","","","","",""
"null","<span style='color:GreenYellow; font-size: 70px;'>正确! </span>","null","html-keyboard-response","109","327643","0.0-8.0-0.0-4.0-0.0-1.0","4","5","5","4","3","4","4","3","4","4","4","1","0","-1","1","0","0","1","1","4","5","4","4","4","4","5","4","4","5","5","6","6","7","5","5","6","6","6","5","5","4","5","5","2","4","5","5","3","1","3","2","5","6","5","5","5","4","5","2","3","3","3","3","2","5","3","6","3","6","3","3","3","3","3","5","2","6","3","4","792726336467771393","陈","275","Female","[""坏我"",""坏她"",""好她"",""好我""]","[""弱我"",""弱她"",""强她"",""强我""]","","","","","","","","","","","","","","","","","","","","","","","","","","","","","","feedback_test","","","","","","","","",""
"523","","j","psychophysics","110","329173","0.0-8.0-0.0-4.0-0.0-0.1","4","5","5","4","3","4","4","3","4","4","4","1","0","-1","1","0","0","1","1","4","5","4","4","4","4","5","4","4","5","5","6","6","7","5","5","6","6","6","5","5","4","5","5","2","4","5","5","3","1","3","2","5","6","5","5","5","4","5","2","3","3","3","3","2","5","3","6","3","6","3","3","3","3","3","5","2","6","3","4","792726336467771393","陈","275","Female","[""坏我"",""坏她"",""好她"",""好我""]","[""弱我"",""弱她"",""强她"",""强我""]","","","","","","","","match","","","","","","","","","","key","j","16.640449438202246","540","337","f","false","nonmatch","img/triangle.png","好我","好她","ALT2","moral","","","","","","","","",""
"null","<span style='color:red; font-size: 70px;'>错误! </span>","null","html-keyboard-response","111","329675","0.0-8.0-0.0-4.0-0.0-1.1","4","5","5","4","3","4","4","3","4","4","4","1","0","-1","1","0","0","1","1","4","5","4","4","4","4","5","4","4","5","5","6","6","7","5","5","6","6","6","5","5","4","5","5","2","4","5","5","3","1","3","2","5","6","5","5","5","4","5","2","3","3","3","3","2","5","3","6","3","6","3","3","3","3","3","5","2","6","3","4","792726336467771393","陈","275","Female","[""坏我"",""坏她"",""好她"",""好我""]","[""弱我"",""弱她"",""强她"",""强我""]","","","","","","","","","","","","","","","","","","","","","","","","","","","","","","feedback_test","","","","","","","","",""
"575","","j","psychophysics","112","331255","0.0-8.0-0.0-4.0-0.0-0.2","4","5","5","4","3","4","4","3","4","4","4","1","0","-1","1","0","0","1","1","4","5","4","4","4","4","5","4","4","5","5","6","6","7","5","5","6","6","6","5","5","4","5","5","2","4","5","5","3","1","3","2","5","6","5","5","5","4","5","2","3","3","3","3","2","5","3","6","3","6","3","3","3","3","3","5","2","6","3","4","792726336467771393","陈","275","Female","[""坏我"",""坏她"",""好她"",""好我""]","[""弱我"",""弱她"",""强她"",""强我""]","","","","","","","","match","","","","","","","","","","key","j","16.695652173913043","540","337","f","false","nonmatch","img/square.png","好她","好我","ALT2","moral","","","","","","","","",""
"null","<span style='color:red; font-size: 70px;'>错误! </span>","null","html-keyboard-response","113","331758","0.0-8.0-0.0-4.0-0.0-1.2","4","5","5","4","3","4","4","3","4","4","4","1","0","-1","1","0","0","1","1","4","5","4","4","4","4","5","4","4","5","5","6","6","7","5","5","6","6","6","5","5","4","5","5","2","4","5","5","3","1","3","2","5","6","5","5","5","4","5","2","3","3","3","3","2","5","3","6","3","6","3","3","3","3","3","5","2","6","3","4","792726336467771393","陈","275","Female","[""坏我"",""坏她"",""好她"",""好我""]","[""弱我"",""弱她"",""强她"",""强我""]","","","","","","","","","","","","","","","","","","","","","","","","","","","","","","feedback_test","","","","","","","","",""
"558","","j","psychophysics","114","333321","0.0-8.0-0.0-4.0-0.0-0.3","4","5","5","4","3","4","4","3","4","4","4","1","0","-1","1","0","0","1","1","4","5","4","4","4","4","5","4","4","5","5","6","6","7","5","5","6","6","6","5","5","4","5","5","2","4","5","5","3","1","3","2","5","6","5","5","5","4","5","2","3","3","3","3","2","5","3","6","3","6","3","3","3","3","3","5","2","6","3","4","792726336467771393","陈","275","Female","[""坏我"",""坏她"",""好她"",""好我""]","[""弱我"",""弱她"",""强她"",""强我""]","","","","","","","","match","","","","","","","","","","key","j","16.67032967032967","540","337","j","true","match","img/square.png","好我","好我","ALT2","moral","","","","","","","","",""
"null","<span style='color:GreenYellow; font-size: 70px;'>正确! </span>","null","html-keyboard-response","115","333823","0.0-8.0-0.0-4.0-0.0-1.3","4","5","5","4","3","4","4","3","4","4","4","1","0","-1","1","0","0","1","1","4","5","4","4","4","4","5","4","4","5","5","6","6","7","5","5","6","6","6","5","5","4","5","5","2","4","5","5","3","1","3","2","5","6","5","5","5","4","5","2","3","3","3","3","2","5","3","6","3","6","3","3","3","3","3","5","2","6","3","4","792726336467771393","陈","275","Female","[""坏我"",""坏她"",""好她"",""好我""]","[""弱我"",""弱她"",""强她"",""强我""]","","","","","","","","","","","","","","","","","","","","","","","","","","","","","","feedback_test","","","","","","","","",""
"576","","j","psychophysics","116","335404","0.0-8.0-0.0-4.0-0.0-0.4","4","5","5","4","3","4","4","3","4","4","4","1","0","-1","1","0","0","1","1","4","5","4","4","4","4","5","4","4","5","5","6","6","7","5","5","6","6","6","5","5","4","5","5","2","4","5","5","3","1","3","2","5","6","5","5","5","4","5","2","3","3","3","3","2","5","3","6","3","6","3","3","3","3","3","5","2","6","3","4","792726336467771393","陈","275","Female","[""坏我"",""坏她"",""好她"",""好我""]","[""弱我"",""弱她"",""强她"",""强我""]","","","","","","","","match","","","","","","","","","","key","j","16.516129032258064","540","337","f","false","nonmatch","img/ellipse.png","好她","坏她","ALT2","moral","","","","","","","","",""
"null","<span style='color:red; font-size: 70px;'>错误! </span>","null","html-keyboard-response","117","335907","0.0-8.0-0.0-4.0-0.0-1.4","4","5","5","4","3","4","4","3","4","4","4","1","0","-1","1","0","0","1","1","4","5","4","4","4","4","5","4","4","5","5","6","6","7","5","5","6","6","6","5","5","4","5","5","2","4","5","5","3","1","3","2","5","6","5","5","5","4","5","2","3","3","3","3","2","5","3","6","3","6","3","3","3","3","3","5","2","6","3","4","792726336467771393","陈","275","Female","[""坏我"",""坏她"",""好她"",""好我""]","[""弱我"",""弱她"",""强她"",""强我""]","","","","","","","","","","","","","","","","","","","","","","","","","","","","","","feedback_test","","","","","","","","",""
"693","","f","psychophysics","118","337604","0.0-8.0-0.0-4.0-0.0-0.5","4","5","5","4","3","4","4","3","4","4","4","1","0","-1","1","0","0","1","1","4","5","4","4","4","4","5","4","4","5","5","6","6","7","5","5","6","6","6","5","5","4","5","5","2","4","5","5","3","1","3","2","5","6","5","5","5","4","5","2","3","3","3","3","2","5","3","6","3","6","3","3","3","3","3","5","2","6","3","4","792726336467771393","陈","275","Female","[""坏我"",""坏她"",""好她"",""好我""]","[""弱我"",""弱她"",""强她"",""强我""]","","","","","","","","nonmatch","","","","","","","","","","key","f","16.67676767676768","540","337","f","true","nonmatch","img/square.png","坏我","好我","ALT2","moral","","","","","","","","",""
"null","<span style='color:GreenYellow; font-size: 70px;'>正确! </span>","null","html-keyboard-response","119","338106","0.0-8.0-0.0-4.0-0.0-1.5","4","5","5","4","3","4","4","3","4","4","4","1","0","-1","1","0","0","1","1","4","5","4","4","4","4","5","4","4","5","5","6","6","7","5","5","6","6","6","5","5","4","5","5","2","4","5","5","3","1","3","2","5","6","5","5","5","4","5","2","3","3","3","3","2","5","3","6","3","6","3","3","3","3","3","5","2","6","3","4","792726336467771393","陈","275","Female","[""坏我"",""坏她"",""好她"",""好我""]","[""弱我"",""弱她"",""强她"",""强我""]","","","","","","","","","","","","","","","","","","","","","","","","","","","","","","feedback_test","","","","","","","","",""
"641","","f","psychophysics","120","339752","0.0-8.0-0.0-4.0-0.0-0.6","4","5","5","4","3","4","4","3","4","4","4","1","0","-1","1","0","0","1","1","4","5","4","4","4","4","5","4","4","5","5","6","6","7","5","5","6","6","6","5","5","4","5","5","2","4","5","5","3","1","3","2","5","6","5","5","5","4","5","2","3","3","3","3","2","5","3","6","3","6","3","3","3","3","3","5","2","6","3","4","792726336467771393","陈","275","Female","[""坏我"",""坏她"",""好她"",""好我""]","[""弱我"",""弱她"",""强她"",""强我""]","","","","","","","","nonmatch","","","","","","","","","","key","f","16.708333333333332","540","337","f","true","nonmatch","img/hexagon.png","好我","坏我","ALT2","moral","","","","","","","","",""
"null","<span style='color:GreenYellow; font-size: 70px;'>正确! </span>","null","html-keyboard-response","121","340255","0.0-8.0-0.0-4.0-0.0-1.6","4","5","5","4","3","4","4","3","4","4","4","1","0","-1","1","0","0","1","1","4","5","4","4","4","4","5","4","4","5","5","6","6","7","5","5","6","6","6","5","5","4","5","5","2","4","5","5","3","1","3","2","5","6","5","5","5","4","5","2","3","3","3","3","2","5","3","6","3","6","3","3","3","3","3","5","2","6","3","4","792726336467771393","陈","275","Female","[""坏我"",""坏她"",""好她"",""好我""]","[""弱我"",""弱她"",""强她"",""强我""]","","","","","","","","","","","","","","","","","","","","","","","","","","","","","","feedback_test","","","","","","","","",""
"710","","j","psychophysics","122","341969","0.0-8.0-0.0-4.0-0.0-0.7","4","5","5","4","3","4","4","3","4","4","4","1","0","-1","1","0","0","1","1","4","5","4","4","4","4","5","4","4","5","5","6","6","7","5","5","6","6","6","5","5","4","5","5","2","4","5","5","3","1","3","2","5","6","5","5","5","4","5","2","3","3","3","3","2","5","3","6","3","6","3","3","3","3","3","5","2","6","3","4","792726336467771393","陈","275","Female","[""坏我"",""坏她"",""好她"",""好我""]","[""弱我"",""弱她"",""强她"",""强我""]","","","","","","","","match","","","","","","","","","","key","j","16.66","540","337","j","true","match","img/triangle.png","好她","好她","ALT2","moral","","","","","","","","",""
"null","<span style='color:GreenYellow; font-size: 70px;'>正确! </span>","null","html-keyboard-response","123","342472","0.0-8.0-0.0-4.0-0.0-1.7","4","5","5","4","3","4","4","3","4","4","4","1","0","-1","1","0","0","1","1","4","5","4","4","4","4","5","4","4","5","5","6","6","7","5","5","6","6","6","5","5","4","5","5","2","4","5","5","3","1","3","2","5","6","5","5","5","4","5","2","3","3","3","3","2","5","3","6","3","6","3","3","3","3","3","5","2","6","3","4","792726336467771393","陈","275","Female","[""坏我"",""坏她"",""好她"",""好我""]","[""弱我"",""弱她"",""强她"",""强我""]","","","","","","","","","","","","","","","","","","","","","","","","","","","","","","feedback_test","","","","","","","","",""
"752","","f","psychophysics","124","344233","0.0-8.0-0.0-4.0-0.0-0.8","4","5","5","4","3","4","4","3","4","4","4","1","0","-1","1","0","0","1","1","4","5","4","4","4","4","5","4","4","5","5","6","6","7","5","5","6","6","6","5","5","4","5","5","2","4","5","5","3","1","3","2","5","6","5","5","5","4","5","2","3","3","3","3","2","5","3","6","3","6","3","3","3","3","3","5","2","6","3","4","792726336467771393","陈","275","Female","[""坏我"",""坏她"",""好她"",""好我""]","[""弱我"",""弱她"",""强她"",""强我""]","","","","","","","","nonmatch","","","","","","","","","","key","f","16.689320388349515","540","337","f","true","nonmatch","img/hexagon.png","好她","坏我","ALT2","moral","","","","","","","","",""
"null","<span style='color:GreenYellow; font-size: 70px;'>正确! </span>","null","html-keyboard-response","125","344736","0.0-8.0-0.0-4.0-0.0-1.8","4","5","5","4","3","4","4","3","4","4","4","1","0","-1","1","0","0","1","1","4","5","4","4","4","4","5","4","4","5","5","6","6","7","5","5","6","6","6","5","5","4","5","5","2","4","5","5","3","1","3","2","5","6","5","5","5","4","5","2","3","3","3","3","2","5","3","6","3","6","3","3","3","3","3","5","2","6","3","4","792726336467771393","陈","275","Female","[""坏我"",""坏她"",""好她"",""好我""]","[""弱我"",""弱她"",""强她"",""强我""]","","","","","","","","","","","","","","","","","","","","","","","","","","","","","","feedback_test","","","","","","","","",""
"557","","j","psychophysics","126","346300","0.0-8.0-0.0-4.0-0.0-0.9","4","5","5","4","3","4","4","3","4","4","4","1","0","-1","1","0","0","1","1","4","5","4","4","4","4","5","4","4","5","5","6","6","7","5","5","6","6","6","5","5","4","5","5","2","4","5","5","3","1","3","2","5","6","5","5","5","4","5","2","3","3","3","3","2","5","3","6","3","6","3","3","3","3","3","5","2","6","3","4","792726336467771393","陈","275","Female","[""坏我"",""坏她"",""好她"",""好我""]","[""弱我"",""弱她"",""强她"",""强我""]","","","","","","","","match","","","","","","","","","","key","j","16.52173913043478","540","337","f","false","nonmatch","img/ellipse.png","好我","坏她","ALT2","moral","","","","","","","","",""
"null","<span style='color:red; font-size: 70px;'>错误! </span>","null","html-keyboard-response","127","346802","0.0-8.0-0.0-4.0-0.0-1.9","4","5","5","4","3","4","4","3","4","4","4","1","0","-1","1","0","0","1","1","4","5","4","4","4","4","5","4","4","5","5","6","6","7","5","5","6","6","6","5","5","4","5","5","2","4","5","5","3","1","3","2","5","6","5","5","5","4","5","2","3","3","3","3","2","5","3","6","3","6","3","3","3","3","3","5","2","6","3","4","792726336467771393","陈","275","Female","[""坏我"",""坏她"",""好她"",""好我""]","[""弱我"",""弱她"",""强她"",""强我""]","","","","","","","","","","","","","","","","","","","","","","","","","","","","","","feedback_test","","","","","","","","",""
"576","","j","psychophysics","128","348381","0.0-8.0-0.0-4.0-0.0-0.10","4","5","5","4","3","4","4","3","4","4","4","1","0","-1","1","0","0","1","1","4","5","4","4","4","4","5","4","4","5","5","6","6","7","5","5","6","6","6","5","5","4","5","5","2","4","5","5","3","1","3","2","5","6","5","5","5","4","5","2","3","3","3","3","2","5","3","6","3","6","3","3","3","3","3","5","2","6","3","4","792726336467771393","陈","275","Female","[""坏我"",""坏她"",""好她"",""好我""]","[""弱我"",""弱她"",""强她"",""强我""]","","","","","","","","match","","","","","","","","","","key","j","16.537634408602152","540","337","j","true","match","img/square.png","好我","好我","ALT2","moral","","","","","","","","",""
"null","<span style='color:GreenYellow; font-size: 70px;'>正确! </span>","null","html-keyboard-response","129","348883","0.0-8.0-0.0-4.0-0.0-1.10","4","5","5","4","3","4","4","3","4","4","4","1","0","-1","1","0","0","1","1","4","5","4","4","4","4","5","4","4","5","5","6","6","7","5","5","6","6","6","5","5","4","5","5","2","4","5","5","3","1","3","2","5","6","5","5","5","4","5","2","3","3","3","3","2","5","3","6","3","6","3","3","3","3","3","5","2","6","3","4","792726336467771393","陈","275","Female","[""坏我"",""坏她"",""好她"",""好我""]","[""弱我"",""弱她"",""强她"",""强我""]","","","","","","","","","","","","","","","","","","","","","","","","","","","","","","feedback_test","","","","","","","","",""
"778","","j","psychophysics","130","350665","0.0-8.0-0.0-4.0-0.0-0.11","4","5","5","4","3","4","4","3","4","4","4","1","0","-1","1","0","0","1","1","4","5","4","4","4","4","5","4","4","5","5","6","6","7","5","5","6","6","6","5","5","4","5","5","2","4","5","5","3","1","3","2","5","6","5","5","5","4","5","2","3","3","3","3","2","5","3","6","3","6","3","3","3","3","3","5","2","6","3","4","792726336467771393","陈","275","Female","[""坏我"",""坏她"",""好她"",""好我""]","[""弱我"",""弱她"",""强她"",""强我""]","","","","","","","","match","","","","","","","","","","key","j","16.60952380952381","540","337","j","true","match","img/hexagon.png","坏我","坏我","ALT2","moral","","","","","","","","",""
"null","<span style='color:GreenYellow; font-size: 70px;'>正确! </span>","null","html-keyboard-response","131","351168","0.0-8.0-0.0-4.0-0.0-1.11","4","5","5","4","3","4","4","3","4","4","4","1","0","-1","1","0","0","1","1","4","5","4","4","4","4","5","4","4","5","5","6","6","7","5","5","6","6","6","5","5","4","5","5","2","4","5","5","3","1","3","2","5","6","5","5","5","4","5","2","3","3","3","3","2","5","3","6","3","6","3","3","3","3","3","5","2","6","3","4","792726336467771393","陈","275","Female","[""坏我"",""坏她"",""好她"",""好我""]","[""弱我"",""弱她"",""强她"",""强我""]","","","","","","","","","","","","","","","","","","","","","","","","","","","","","","feedback_test","","","","","","","","",""
"723","","j","psychophysics","132","352898","0.0-8.0-0.0-4.0-0.0-0.12","4","5","5","4","3","4","4","3","4","4","4","1","0","-1","1","0","0","1","1","4","5","4","4","4","4","5","4","4","5","5","6","6","7","5","5","6","6","6","5","5","4","5","5","2","4","5","5","3","1","3","2","5","6","5","5","5","4","5","2","3","3","3","3","2","5","3","6","3","6","3","3","3","3","3","5","2","6","3","4","792726336467771393","陈","275","Female","[""坏我"",""坏她"",""好她"",""好我""]","[""弱我"",""弱她"",""强她"",""强我""]","","","","","","","","match","","","","","","","","","","key","j","16.693069306930692","540","337","j","true","match","img/triangle.png","好她","好她","ALT2","moral","","","","","","","","",""
"null","<span style='color:GreenYellow; font-size: 70px;'>正确! </span>","null","html-keyboard-response","133","353402","0.0-8.0-0.0-4.0-0.0-1.12","4","5","5","4","3","4","4","3","4","4","4","1","0","-1","1","0","0","1","1","4","5","4","4","4","4","5","4","4","5","5","6","6","7","5","5","6","6","6","5","5","4","5","5","2","4","5","5","3","1","3","2","5","6","5","5","5","4","5","2","3","3","3","3","2","5","3","6","3","6","3","3","3","3","3","5","2","6","3","4","792726336467771393","陈","275","Female","[""坏我"",""坏她"",""好她"",""好我""]","[""弱我"",""弱她"",""强她"",""强我""]","","","","","","","","","","","","","","","","","","","","","","","","","","","","","","feedback_test","","","","","","","","",""
"424","","j","psychophysics","134","354831","0.0-8.0-0.0-4.0-0.0-0.13","4","5","5","4","3","4","4","3","4","4","4","1","0","-1","1","0","0","1","1","4","5","4","4","4","4","5","4","4","5","5","6","6","7","5","5","6","6","6","5","5","4","5","5","2","4","5","5","3","1","3","2","5","6","5","5","5","4","5","2","3","3","3","3","2","5","3","6","3","6","3","3","3","3","3","5","2","6","3","4","792726336467771393","陈","275","Female","[""坏我"",""坏她"",""好她"",""好我""]","[""弱我"",""弱她"",""强她"",""强我""]","","","","","","","","match","","","","","","","","","","key","j","16.698795180722893","540","337","j","true","match","img/ellipse.png","坏她","坏她","ALT2","moral","","","","","","","","",""
"null","<span style='color:GreenYellow; font-size: 70px;'>正确! </span>","null","html-keyboard-response","135","355333","0.0-8.0-0.0-4.0-0.0-1.13","4","5","5","4","3","4","4","3","4","4","4","1","0","-1","1","0","0","1","1","4","5","4","4","4","4","5","4","4","5","5","6","6","7","5","5","6","6","6","5","5","4","5","5","2","4","5","5","3","1","3","2","5","6","5","5","5","4","5","2","3","3","3","3","2","5","3","6","3","6","3","3","3","3","3","5","2","6","3","4","792726336467771393","陈","275","Female","[""坏我"",""坏她"",""好她"",""好我""]","[""弱我"",""弱她"",""强她"",""强我""]","","","","","","","","","","","","","","","","","","","","","","","","","","","","","","feedback_test","","","","","","","","",""
"611","","f","psychophysics","136","356947","0.0-8.0-0.0-4.0-0.0-0.14","4","5","5","4","3","4","4","3","4","4","4","1","0","-1","1","0","0","1","1","4","5","4","4","4","4","5","4","4","5","5","6","6","7","5","5","6","6","6","5","5","4","5","5","2","4","5","5","3","1","3","2","5","6","5","5","5","4","5","2","3","3","3","3","2","5","3","6","3","6","3","3","3","3","3","5","2","6","3","4","792726336467771393","陈","275","Female","[""坏我"",""坏她"",""好她"",""好我""]","[""弱我"",""弱她"",""强她"",""强我""]","","","","","","","","nonmatch","","","","","","","","","","key","f","16.670212765957448","540","337","f","true","nonmatch","img/ellipse.png","坏我","坏她","ALT2","moral","","","","","","","","",""
"null","<span style='color:GreenYellow; font-size: 70px;'>正确! </span>","null","html-keyboard-response","137","357450","0.0-8.0-0.0-4.0-0.0-1.14","4","5","5","4","3","4","4","3","4","4","4","1","0","-1","1","0","0","1","1","4","5","4","4","4","4","5","4","4","5","5","6","6","7","5","5","6","6","6","5","5","4","5","5","2","4","5","5","3","1","3","2","5","6","5","5","5","4","5","2","3","3","3","3","2","5","3","6","3","6","3","3","3","3","3","5","2","6","3","4","792726336467771393","陈","275","Female","[""坏我"",""坏她"",""好她"",""好我""]","[""弱我"",""弱她"",""强她"",""强我""]","","","","","","","","","","","","","","","","","","","","","","","","","","","","","","feedback_test","","","","","","","","",""
"675","","f","psychophysics","138","359129","0.0-8.0-0.0-4.0-0.0-0.15","4","5","5","4","3","4","4","3","4","4","4","1","0","-1","1","0","0","1","1","4","5","4","4","4","4","5","4","4","5","5","6","6","7","5","5","6","6","6","5","5","4","5","5","2","4","5","5","3","1","3","2","5","6","5","5","5","4","5","2","3","3","3","3","2","5","3","6","3","6","3","3","3","3","3","5","2","6","3","4","792726336467771393","陈","275","Female","[""坏我"",""坏她"",""好她"",""好我""]","[""弱我"",""弱她"",""强她"",""强我""]","","","","","","","","nonmatch","","","","","","","","","","key","f","16.693877551020407","540","337","f","true","nonmatch","img/square.png","坏她","好我","ALT2","moral","","","","","","","","",""
"null","<span style='color:GreenYellow; font-size: 70px;'>正确! </span>","null","html-keyboard-response","139","359632","0.0-8.0-0.0-4.0-0.0-1.15","4","5","5","4","3","4","4","3","4","4","4","1","0","-1","1","0","0","1","1","4","5","4","4","4","4","5","4","4","5","5","6","6","7","5","5","6","6","6","5","5","4","5","5","2","4","5","5","3","1","3","2","5","6","5","5","5","4","5","2","3","3","3","3","2","5","3","6","3","6","3","3","3","3","3","5","2","6","3","4","792726336467771393","陈","275","Female","[""坏我"",""坏她"",""好她"",""好我""]","[""弱我"",""弱她"",""强她"",""强我""]","","","","","","","","","","","","","","","","","","","","","","","","","","","","","","feedback_test","","","","","","","","",""
