"rt","stimulus","response","trial_type","trial_index","time_elapsed","internal_node_id","swb_1","swb_2","swb_3","swb_4","swb_5","LOT_1","LOT_2","LOT_3","LOT_4","LOT_5","LOT_6","IPC_1","IPC_2","IPC_3","IPC_4","IPC_5","IPC_6","IPC_7","IPC_8","MorIden_1","MorIden_2","MorIden_3","MorIden_4","MorIden_5","MorIden_6","MorIden_7","MorIden_8","MorIden_9","MorIden_10","moralSeImag_1","moralSeImag_2","moralSeImag_3","moralSeImag_4","moralSeImag_5","moralSeImag_6","moralSeImag_7","moralSeImag_8","moralSeImag_9","sde_1","sde_2","sde_3","sde_4","sde_5","sde_6","sde_7","sde_8","sde_9","sde_10","trap2","sde_11","sde_12","sde_13","sde_14","sde_15","sde_16","sde_17","sde_18","sde_19","sde_20","IM_1","IM_2","IM_3","IM_4","IM_5","IM_6","IM_7","IM_8","IM_9","IM_10","IM_11","IM_12","IM_13","IM_14","IM_15","IM_16","IM_17","IM_18","IM_19","IM_20","subj_idx","friend_name","ParticipantID","Sex","Word","Word2","value","success","timeout","failed_images","failed_audio","failed_video","user_agent","responses","item_order","radio_event_ids","radio_event_times","key_event_times","mouse_event_times","straightlining","zigzagging","honeypot","view_history","response_type","key_press","avg_frame_time","center_x","center_y","correct_response","correct","identity","Image","word","condition","task_id","screen_id","time_stamp","person","valence","domain","math","status","duration","question_order","trap2_item"
"3341","
   <p><div style='color:white; font-size: 25px'>您好，欢迎参加本次实验。</div></p>
   <p><div style='color:white; font-size: 25px'>为充分保障您的权利，请确保您已经知晓并同意《参与实验同意书》以及《数据公开知情同意书》。</div></p>
   <p><div style='color:white; font-size: 25px'>如果您未见过上述内容，请咨询实验员。</div></p>
   <p style='color:white; font-size: 25px'>如果您选择继续实验，则表示您已经清楚两份知情同意书的内容并同意。</p>
   <p><div style = ""color: pink;font-size:30px;"">请确保您记得day0的实验编号，您将在本次实验输入该编号，若您忘记，请咨询实验员后作答。</div></p>
   <p><div style = ""color:lightblue;font-size:25px;"">请您尽可能认真地作答，我们将依据您在各问卷和按键任务中的作答质量发放报酬。</div></p>
   <p> <div style = ""color: green""><按空格键至下页></div> </p>
   "," ","html-keyboard-response","0","3356","0.0-0.0","5","5","4","2","3","2","2","3","4","5","4","0","1","-1","0","-2","1","0","1","5","4","5","4","4","3","4","3","3","4","6","8","4","6","3","4","8","3","5","5","3","3","2","4","3","2","5","5","2","1","3","2","5","3","2","3","3","4","6","3","2","3","3","1","2","3","3","4","7","7","6","3","7","3","3","2","3","6","2","3","774978739443601410","屈","541","Female","[""好她"",""好我"",""坏她"",""坏我""]","[""强她"",""强我"",""弱她"",""弱我""]","","","","","","","","","","","","","","","","","","","","","","","","","","","","","","","","","","","","","","",""
"","","","call-function","1","3363","0.0-1.0-0.0","5","5","4","2","3","2","2","3","4","5","4","0","1","-1","0","-2","1","0","1","5","4","5","4","4","3","4","3","3","4","6","8","4","6","3","4","8","3","5","5","3","3","2","4","3","2","5","5","2","1","3","2","5","3","2","3","3","4","6","3","2","3","3","1","2","3","3","4","7","7","6","3","7","3","3","2","3","6","2","3","774978739443601410","屈","541","Female","[""好她"",""好我"",""坏她"",""坏我""]","[""强她"",""强我"",""弱她"",""弱我""]","","","","","","","","","","","","","","","","","","","","","","","","","","","","","","","","","","","","","","",""
"20044","","[{""name"":""Sex"",""value"":""1""},{""name"":""friend_name"",""value"":""屈""},{""name"":""ParticipantID"",""value"":""541""}]","survey-html-form","2","23411","0.0-1.0-1.0","5","5","4","2","3","2","2","3","4","5","4","0","1","-1","0","-2","1","0","1","5","4","5","4","4","3","4","3","3","4","6","8","4","6","3","4","8","3","5","5","3","3","2","4","3","2","5","5","2","1","3","2","5","3","2","3","3","4","6","3","2","3","3","1","2","3","3","4","7","7","6","3","7","3","3","2","3","6","2","3","774978739443601410","屈","541","Female","[""好她"",""好我"",""坏她"",""坏我""]","[""强她"",""强我"",""弱她"",""弱我""]","","","","","","","","","","","","","","","","","","","","","","","","","","","","","","","","","","","","","","",""
"","","","preload","3","23787","0.0-2.0","5","5","4","2","3","2","2","3","4","5","4","0","1","-1","0","-2","1","0","1","5","4","5","4","4","3","4","3","3","4","6","8","4","6","3","4","8","3","5","5","3","3","2","4","3","2","5","5","2","1","3","2","5","3","2","3","3","4","6","3","2","3","3","1","2","3","3","4","7","7","6","3","7","3","3","2","3","6","2","3","774978739443601410","屈","541","Female","[""好她"",""好我"",""坏她"",""坏我""]","[""强她"",""强我"",""弱她"",""弱我""]","","true","false","[]","[]","[]","","","","","","","","","","","","","","","","","","","","","","","","","","","","","","","","",""
"","","","fullscreen","4","25357","0.0-3.0","5","5","4","2","3","2","2","3","4","5","4","0","1","-1","0","-2","1","0","1","5","4","5","4","4","3","4","3","3","4","6","8","4","6","3","4","8","3","5","5","3","3","2","4","3","2","5","5","2","1","3","2","5","3","2","3","3","4","6","3","2","3","3","1","2","3","3","4","7","7","6","3","7","3","3","2","3","6","2","3","774978739443601410","屈","541","Female","[""好她"",""好我"",""坏她"",""坏我""]","[""强她"",""强我"",""弱她"",""弱我""]","","true","","","","","{}","","","","","","","","","","","","","","","","","","","","","","","","","","","","","","","",""
"20943","","{""Q01"":""5"",""Q02"":""5"",""Q03"":""4"",""Q04"":""2"",""Q05"":""3""}","survey-template","5","46324","0.0-4.0","5","5","4","2","3","2","2","3","4","5","4","0","1","-1","0","-2","1","0","1","5","4","5","4","4","3","4","3","3","4","6","8","4","6","3","4","8","3","5","5","3","3","2","4","3","2","5","5","2","1","3","2","5","3","2","3","3","4","6","3","2","3","3","1","2","3","3","4","7","7","6","3","7","3","3","2","3","6","2","3","774978739443601410","屈","541","Female","[""好她"",""好我"",""坏她"",""坏我""]","[""强她"",""强我"",""弱她"",""弱我""]","","","","","","","","{""Q01"":""5"",""Q02"":""5"",""Q03"":""4"",""Q04"":""2"",""Q05"":""3""}","[0,1,2,3,4]","[""Q04"",""Q05"",""Q01"",""Q02"",""Q03""]","[13030.899999999965,14310.599999999977,16167.099999999977,18118,19734.20000000001]","[]","[13030.899999999965,14310.599999999977,16167.099999999977,18118,19269,19734.20000000001,20925.899999999965]","0.4","0.5","0","","","","","","","","","","","","","","","","","","","","","","",""
"27365.70000000001","","{""Q01"":""2"",""Q02"":""2"",""Q03"":""3"",""Q04"":""4"",""Q05"":""5"",""Q06"":""4""}","survey-template","6","73711","0.0-5.0","5","5","4","2","3","2","2","3","4","5","4","0","1","-1","0","-2","1","0","1","5","4","5","4","4","3","4","3","3","4","6","8","4","6","3","4","8","3","5","5","3","3","2","4","3","2","5","5","2","1","3","2","5","3","2","3","3","4","6","3","2","3","3","1","2","3","3","4","7","7","6","3","7","3","3","2","3","6","2","3","774978739443601410","屈","541","Female","[""好她"",""好我"",""坏她"",""坏我""]","[""强她"",""强我"",""弱她"",""弱我""]","","","","","","","","{""Q01"":""2"",""Q02"":""2"",""Q03"":""3"",""Q04"":""4"",""Q05"":""5"",""Q06"":""4""}","[0,1,2,3,4,5]","[""Q02"",""Q03"",""Q04"",""Q05"",""Q06"",""Q01"",""Q04""]","[8024.700000000012,11659.599999999977,14492.399999999965,15392.399999999965,18779.79999999999,21908.20000000001,23864.29999999999]","[]","[8024.700000000012,11659.599999999977,14492.399999999965,15392.399999999965,18779.79999999999,21328.5,21908.20000000001,23864.29999999999,27360.899999999965]","0.3333333333333333","0.6","0","","","","","","","","","","","","","","","","","","","","","","",""
"20322.5","","{""Q01"":""0"",""Q02"":""1"",""Q03"":""-1"",""Q04"":""0"",""Q05"":""-2"",""Q06"":""1"",""Q07"":""0"",""Q08"":""1""}","survey-template","7","94056","0.0-6.0","5","5","4","2","3","2","2","3","4","5","4","0","1","-1","0","-2","1","0","1","5","4","5","4","4","3","4","3","3","4","6","8","4","6","3","4","8","3","5","5","3","3","2","4","3","2","5","5","2","1","3","2","5","3","2","3","3","4","6","3","2","3","3","1","2","3","3","4","7","7","6","3","7","3","3","2","3","6","2","3","774978739443601410","屈","541","Female","[""好她"",""好我"",""坏她"",""坏我""]","[""强她"",""强我"",""弱她"",""弱我""]","","","","","","","","{""Q01"":""0"",""Q02"":""1"",""Q03"":""-1"",""Q04"":""0"",""Q05"":""-2"",""Q06"":""1"",""Q07"":""0"",""Q08"":""1""}","[0,1,2,3,4,5,6,7]","[""Q01"",""Q02"",""Q03"",""Q04"",""Q05"",""Q06"",""Q07"",""Q08""]","[3118.5,6237.799999999988,9789.299999999988,10957.799999999988,12581.5,14245,16013.299999999988,19173.399999999965]","[]","[3118.5,6237.799999999988,8525.200000000012,9789.299999999988,10957.799999999988,12581.5,14245,16013.299999999988,18653.599999999977,19173.399999999965,20309.70000000001]","0.375","0.5714285714285714","0","","","","","","","","","","","","","","","","","","","","","","",""
"199252","","","instructions","8","293328","0.0-7.0","5","5","4","2","3","2","2","3","4","5","4","0","1","-1","0","-2","1","0","1","5","4","5","4","4","3","4","3","3","4","6","8","4","6","3","4","8","3","5","5","3","3","2","4","3","2","5","5","2","1","3","2","5","3","2","3","3","4","6","3","2","3","3","1","2","3","3","4","7","7","6","3","7","3","3","2","3","6","2","3","774978739443601410","屈","541","Female","[""好她"",""好我"",""坏她"",""坏我""]","[""强她"",""强我"",""弱她"",""弱我""]","","","","","","","","","","","","","","","","","[{""page_index"":0,""viewing_time"":199251}]","","","","","","","","","","","","","","","","","","","","","",""
"42942","","","instructions","9","336275","0.0-8.0-0.0-0.0","5","5","4","2","3","2","2","3","4","5","4","0","1","-1","0","-2","1","0","1","5","4","5","4","4","3","4","3","3","4","6","8","4","6","3","4","8","3","5","5","3","3","2","4","3","2","5","5","2","1","3","2","5","3","2","3","3","4","6","3","2","3","3","1","2","3","3","4","7","7","6","3","7","3","3","2","3","6","2","3","774978739443601410","屈","541","Female","[""好她"",""好我"",""坏她"",""坏我""]","[""强她"",""强我"",""弱她"",""弱我""]","","","","","","","","","","","","","","","","","[{""page_index"":0,""viewing_time"":14290},{""page_index"":1,""viewing_time"":23429},{""page_index"":2,""viewing_time"":2403},{""page_index"":3,""viewing_time"":2816}]","","","","","","","","","","","","","","","","","","","","","",""
"916","","j","psychophysics","10","338215","0.0-8.0-0.0-1.0-0.0-0.0","5","5","4","2","3","2","2","3","4","5","4","0","1","-1","0","-2","1","0","1","5","4","5","4","4","3","4","3","3","4","6","8","4","6","3","4","8","3","5","5","3","3","2","4","3","2","5","5","2","1","3","2","5","3","2","3","3","4","6","3","2","3","3","1","2","3","3","4","7","7","6","3","7","3","3","2","3","6","2","3","774978739443601410","屈","541","Female","[""好她"",""好我"",""坏她"",""坏我""]","[""强她"",""强我"",""弱她"",""弱我""]","","","","","","","","match","","","","","","","","","","key","j","16.965553571428504","683","380","f","false","nonmatch","img/square.png","好她","好我","prac_ALT2_moral","practice_moral","","","","","","","","",""
"null","<span style='color:red; font-size: 70px;'>错误! </span>","null","html-keyboard-response","11","338728","0.0-8.0-0.0-1.0-0.0-1.0","5","5","4","2","3","2","2","3","4","5","4","0","1","-1","0","-2","1","0","1","5","4","5","4","4","3","4","3","3","4","6","8","4","6","3","4","8","3","5","5","3","3","2","4","3","2","5","5","2","1","3","2","5","3","2","3","3","4","6","3","2","3","3","1","2","3","3","4","7","7","6","3","7","3","3","2","3","6","2","3","774978739443601410","屈","541","Female","[""好她"",""好我"",""坏她"",""坏我""]","[""强她"",""强我"",""弱她"",""弱我""]","","","","","","","","","","","","","","","","","","","","","","","","","","","","","","feedback_test","","","","","","","","",""
"902","","j","psychophysics","12","340643","0.0-8.0-0.0-1.0-0.0-0.1","5","5","4","2","3","2","2","3","4","5","4","0","1","-1","0","-2","1","0","1","5","4","5","4","4","3","4","3","3","4","6","8","4","6","3","4","8","3","5","5","3","3","2","4","3","2","5","5","2","1","3","2","5","3","2","3","3","4","6","3","2","3","3","1","2","3","3","4","7","7","6","3","7","3","3","2","3","6","2","3","774978739443601410","屈","541","Female","[""好她"",""好我"",""坏她"",""坏我""]","[""强她"",""强我"",""弱她"",""弱我""]","","","","","","","","match","","","","","","","","","","key","j","16.81525925925935","683","380","f","false","nonmatch","img/hexagon.png","好她","坏她","prac_ALT2_moral","practice_moral","","","","","","","","",""
"null","<span style='color:red; font-size: 70px;'>错误! </span>","null","html-keyboard-response","13","341147","0.0-8.0-0.0-1.0-0.0-1.1","5","5","4","2","3","2","2","3","4","5","4","0","1","-1","0","-2","1","0","1","5","4","5","4","4","3","4","3","3","4","6","8","4","6","3","4","8","3","5","5","3","3","2","4","3","2","5","5","2","1","3","2","5","3","2","3","3","4","6","3","2","3","3","1","2","3","3","4","7","7","6","3","7","3","3","2","3","6","2","3","774978739443601410","屈","541","Female","[""好她"",""好我"",""坏她"",""坏我""]","[""强她"",""强我"",""弱她"",""弱我""]","","","","","","","","","","","","","","","","","","","","","","","","","","","","","","feedback_test","","","","","","","","",""
"1030","","f","psychophysics","14","343188","0.0-8.0-0.0-1.0-0.0-0.2","5","5","4","2","3","2","2","3","4","5","4","0","1","-1","0","-2","1","0","1","5","4","5","4","4","3","4","3","3","4","6","8","4","6","3","4","8","3","5","5","3","3","2","4","3","2","5","5","2","1","3","2","5","3","2","3","3","4","6","3","2","3","3","1","2","3","3","4","7","7","6","3","7","3","3","2","3","6","2","3","774978739443601410","屈","541","Female","[""好她"",""好我"",""坏她"",""坏我""]","[""强她"",""强我"",""弱她"",""弱我""]","","","","","","","","nonmatch","","","","","","","","","","key","f","17.38417391304342","683","380","f","true","nonmatch","img/square.png","坏我","好我","prac_ALT2_moral","practice_moral","","","","","","","","",""
"null","<span style='color:GreenYellow; font-size: 70px;'>正确! </span>","null","html-keyboard-response","15","343696","0.0-8.0-0.0-1.0-0.0-1.2","5","5","4","2","3","2","2","3","4","5","4","0","1","-1","0","-2","1","0","1","5","4","5","4","4","3","4","3","3","4","6","8","4","6","3","4","8","3","5","5","3","3","2","4","3","2","5","5","2","1","3","2","5","3","2","3","3","4","6","3","2","3","3","1","2","3","3","4","7","7","6","3","7","3","3","2","3","6","2","3","774978739443601410","屈","541","Female","[""好她"",""好我"",""坏她"",""坏我""]","[""强她"",""强我"",""弱她"",""弱我""]","","","","","","","","","","","","","","","","","","","","","","","","","","","","","","feedback_test","","","","","","","","",""
"868","","j","psychophysics","16","345575","0.0-8.0-0.0-1.0-0.0-0.3","5","5","4","2","3","2","2","3","4","5","4","0","1","-1","0","-2","1","0","1","5","4","5","4","4","3","4","3","3","4","6","8","4","6","3","4","8","3","5","5","3","3","2","4","3","2","5","5","2","1","3","2","5","3","2","3","3","4","6","3","2","3","3","1","2","3","3","4","7","7","6","3","7","3","3","2","3","6","2","3","774978739443601410","屈","541","Female","[""好她"",""好我"",""坏她"",""坏我""]","[""强她"",""强我"",""弱她"",""弱我""]","","","","","","","","match","","","","","","","","","","key","j","16.9921428571433","683","380","f","false","nonmatch","img/hexagon.png","好我","坏她","prac_ALT2_moral","practice_moral","","","","","","","","",""
"null","<span style='color:red; font-size: 70px;'>错误! </span>","null","html-keyboard-response","17","346086","0.0-8.0-0.0-1.0-0.0-1.3","5","5","4","2","3","2","2","3","4","5","4","0","1","-1","0","-2","1","0","1","5","4","5","4","4","3","4","3","3","4","6","8","4","6","3","4","8","3","5","5","3","3","2","4","3","2","5","5","2","1","3","2","5","3","2","3","3","4","6","3","2","3","3","1","2","3","3","4","7","7","6","3","7","3","3","2","3","6","2","3","774978739443601410","屈","541","Female","[""好她"",""好我"",""坏她"",""坏我""]","[""强她"",""强我"",""弱她"",""弱我""]","","","","","","","","","","","","","","","","","","","","","","","","","","","","","","feedback_test","","","","","","","","",""
"745","","j","psychophysics","18","347841","0.0-8.0-0.0-1.0-0.0-0.4","5","5","4","2","3","2","2","3","4","5","4","0","1","-1","0","-2","1","0","1","5","4","5","4","4","3","4","3","3","4","6","8","4","6","3","4","8","3","5","5","3","3","2","4","3","2","5","5","2","1","3","2","5","3","2","3","3","4","6","3","2","3","3","1","2","3","3","4","7","7","6","3","7","3","3","2","3","6","2","3","774978739443601410","屈","541","Female","[""好她"",""好我"",""坏她"",""坏我""]","[""强她"",""强我"",""弱她"",""弱我""]","","","","","","","","match","","","","","","","","","","key","j","16.835212121212578","683","380","f","false","nonmatch","img/square.png","坏她","好我","prac_ALT2_moral","practice_moral","","","","","","","","",""
"null","<span style='color:red; font-size: 70px;'>错误! </span>","null","html-keyboard-response","19","348349","0.0-8.0-0.0-1.0-0.0-1.4","5","5","4","2","3","2","2","3","4","5","4","0","1","-1","0","-2","1","0","1","5","4","5","4","4","3","4","3","3","4","6","8","4","6","3","4","8","3","5","5","3","3","2","4","3","2","5","5","2","1","3","2","5","3","2","3","3","4","6","3","2","3","3","1","2","3","3","4","7","7","6","3","7","3","3","2","3","6","2","3","774978739443601410","屈","541","Female","[""好她"",""好我"",""坏她"",""坏我""]","[""强她"",""强我"",""弱她"",""弱我""]","","","","","","","","","","","","","","","","","","","","","","","","","","","","","","feedback_test","","","","","","","","",""
"863","","f","psychophysics","20","350222","0.0-8.0-0.0-1.0-0.0-0.5","5","5","4","2","3","2","2","3","4","5","4","0","1","-1","0","-2","1","0","1","5","4","5","4","4","3","4","3","3","4","6","8","4","6","3","4","8","3","5","5","3","3","2","4","3","2","5","5","2","1","3","2","5","3","2","3","3","4","6","3","2","3","3","1","2","3","3","4","7","7","6","3","7","3","3","2","3","6","2","3","774978739443601410","屈","541","Female","[""好她"",""好我"",""坏她"",""坏我""]","[""强她"",""强我"",""弱她"",""弱我""]","","","","","","","","nonmatch","","","","","","","","","","key","f","16.97708333333355","683","380","j","false","match","img/square.png","好我","好我","prac_ALT2_moral","practice_moral","","","","","","","","",""
"null","<span style='color:red; font-size: 70px;'>错误! </span>","null","html-keyboard-response","21","350730","0.0-8.0-0.0-1.0-0.0-1.5","5","5","4","2","3","2","2","3","4","5","4","0","1","-1","0","-2","1","0","1","5","4","5","4","4","3","4","3","3","4","6","8","4","6","3","4","8","3","5","5","3","3","2","4","3","2","5","5","2","1","3","2","5","3","2","3","3","4","6","3","2","3","3","1","2","3","3","4","7","7","6","3","7","3","3","2","3","6","2","3","774978739443601410","屈","541","Female","[""好她"",""好我"",""坏她"",""坏我""]","[""强她"",""强我"",""弱她"",""弱我""]","","","","","","","","","","","","","","","","","","","","","","","","","","","","","","feedback_test","","","","","","","","",""
"958","","j","psychophysics","22","352700","0.0-8.0-0.0-1.0-0.0-0.6","5","5","4","2","3","2","2","3","4","5","4","0","1","-1","0","-2","1","0","1","5","4","5","4","4","3","4","3","3","4","6","8","4","6","3","4","8","3","5","5","3","3","2","4","3","2","5","5","2","1","3","2","5","3","2","3","3","4","6","3","2","3","3","1","2","3","3","4","7","7","6","3","7","3","3","2","3","6","2","3","774978739443601410","屈","541","Female","[""好她"",""好我"",""坏她"",""坏我""]","[""强她"",""强我"",""弱她"",""弱我""]","","","","","","","","match","","","","","","","","","","key","j","17.107292035398324","683","380","j","true","match","img/triangle.png","好她","好她","prac_ALT2_moral","practice_moral","","","","","","","","",""
"null","<span style='color:GreenYellow; font-size: 70px;'>正确! </span>","null","html-keyboard-response","23","353213","0.0-8.0-0.0-1.0-0.0-1.6","5","5","4","2","3","2","2","3","4","5","4","0","1","-1","0","-2","1","0","1","5","4","5","4","4","3","4","3","3","4","6","8","4","6","3","4","8","3","5","5","3","3","2","4","3","2","5","5","2","1","3","2","5","3","2","3","3","4","6","3","2","3","3","1","2","3","3","4","7","7","6","3","7","3","3","2","3","6","2","3","774978739443601410","屈","541","Female","[""好她"",""好我"",""坏她"",""坏我""]","[""强她"",""强我"",""弱她"",""弱我""]","","","","","","","","","","","","","","","","","","","","","","","","","","","","","","feedback_test","","","","","","","","",""
"785","","j","psychophysics","24","355010","0.0-8.0-0.0-1.0-0.0-0.7","5","5","4","2","3","2","2","3","4","5","4","0","1","-1","0","-2","1","0","1","5","4","5","4","4","3","4","3","3","4","6","8","4","6","3","4","8","3","5","5","3","3","2","4","3","2","5","5","2","1","3","2","5","3","2","3","3","4","6","3","2","3","3","1","2","3","3","4","7","7","6","3","7","3","3","2","3","6","2","3","774978739443601410","屈","541","Female","[""好她"",""好我"",""坏她"",""坏我""]","[""强她"",""强我"",""弱她"",""弱我""]","","","","","","","","match","","","","","","","","","","key","j","16.664274509803864","683","380","j","true","match","img/hexagon.png","坏她","坏她","prac_ALT2_moral","practice_moral","","","","","","","","",""
"null","<span style='color:GreenYellow; font-size: 70px;'>正确! </span>","null","html-keyboard-response","25","355526","0.0-8.0-0.0-1.0-0.0-1.7","5","5","4","2","3","2","2","3","4","5","4","0","1","-1","0","-2","1","0","1","5","4","5","4","4","3","4","3","3","4","6","8","4","6","3","4","8","3","5","5","3","3","2","4","3","2","5","5","2","1","3","2","5","3","2","3","3","4","6","3","2","3","3","1","2","3","3","4","7","7","6","3","7","3","3","2","3","6","2","3","774978739443601410","屈","541","Female","[""好她"",""好我"",""坏她"",""坏我""]","[""强她"",""强我"",""弱她"",""弱我""]","","","","","","","","","","","","","","","","","","","","","","","","","","","","","","feedback_test","","","","","","","","",""
"877","","f","psychophysics","26","357420","0.0-8.0-0.0-1.0-0.0-0.8","5","5","4","2","3","2","2","3","4","5","4","0","1","-1","0","-2","1","0","1","5","4","5","4","4","3","4","3","3","4","6","8","4","6","3","4","8","3","5","5","3","3","2","4","3","2","5","5","2","1","3","2","5","3","2","3","3","4","6","3","2","3","3","1","2","3","3","4","7","7","6","3","7","3","3","2","3","6","2","3","774978739443601410","屈","541","Female","[""好她"",""好我"",""坏她"",""坏我""]","[""强她"",""强我"",""弱她"",""弱我""]","","","","","","","","nonmatch","","","","","","","","","","key","f","16.667144144144274","683","380","f","true","nonmatch","img/hexagon.png","坏我","坏她","prac_ALT2_moral","practice_moral","","","","","","","","",""
"null","<span style='color:GreenYellow; font-size: 70px;'>正确! </span>","null","html-keyboard-response","27","357935","0.0-8.0-0.0-1.0-0.0-1.8","5","5","4","2","3","2","2","3","4","5","4","0","1","-1","0","-2","1","0","1","5","4","5","4","4","3","4","3","3","4","6","8","4","6","3","4","8","3","5","5","3","3","2","4","3","2","5","5","2","1","3","2","5","3","2","3","3","4","6","3","2","3","3","1","2","3","3","4","7","7","6","3","7","3","3","2","3","6","2","3","774978739443601410","屈","541","Female","[""好她"",""好我"",""坏她"",""坏我""]","[""强她"",""强我"",""弱她"",""弱我""]","","","","","","","","","","","","","","","","","","","","","","","","","","","","","","feedback_test","","","","","","","","",""
"783","","j","psychophysics","28","359728","0.0-8.0-0.0-1.0-0.0-0.9","5","5","4","2","3","2","2","3","4","5","4","0","1","-1","0","-2","1","0","1","5","4","5","4","4","3","4","3","3","4","6","8","4","6","3","4","8","3","5","5","3","3","2","4","3","2","5","5","2","1","3","2","5","3","2","3","3","4","6","3","2","3","3","1","2","3","3","4","7","7","6","3","7","3","3","2","3","6","2","3","774978739443601410","屈","541","Female","[""好她"",""好我"",""坏她"",""坏我""]","[""强她"",""强我"",""弱她"",""弱我""]","","","","","","","","match","","","","","","","","","","key","j","16.842643564356614","683","380","j","true","match","img/hexagon.png","坏她","坏她","prac_ALT2_moral","practice_moral","","","","","","","","",""
"null","<span style='color:GreenYellow; font-size: 70px;'>正确! </span>","null","html-keyboard-response","29","360240","0.0-8.0-0.0-1.0-0.0-1.9","5","5","4","2","3","2","2","3","4","5","4","0","1","-1","0","-2","1","0","1","5","4","5","4","4","3","4","3","3","4","6","8","4","6","3","4","8","3","5","5","3","3","2","4","3","2","5","5","2","1","3","2","5","3","2","3","3","4","6","3","2","3","3","1","2","3","3","4","7","7","6","3","7","3","3","2","3","6","2","3","774978739443601410","屈","541","Female","[""好她"",""好我"",""坏她"",""坏我""]","[""强她"",""强我"",""弱她"",""弱我""]","","","","","","","","","","","","","","","","","","","","","","","","","","","","","","feedback_test","","","","","","","","",""
"1076","","f","psychophysics","30","362326","0.0-8.0-0.0-1.0-0.0-0.10","5","5","4","2","3","2","2","3","4","5","4","0","1","-1","0","-2","1","0","1","5","4","5","4","4","3","4","3","3","4","6","8","4","6","3","4","8","3","5","5","3","3","2","4","3","2","5","5","2","1","3","2","5","3","2","3","3","4","6","3","2","3","3","1","2","3","3","4","7","7","6","3","7","3","3","2","3","6","2","3","774978739443601410","屈","541","Female","[""好她"",""好我"",""坏她"",""坏我""]","[""强她"",""强我"",""弱她"",""弱我""]","","","","","","","","nonmatch","","","","","","","","","","key","f","17.23882352941163","683","380","f","true","nonmatch","img/triangle.png","坏我","好她","prac_ALT2_moral","practice_moral","","","","","","","","",""
"null","<span style='color:GreenYellow; font-size: 70px;'>正确! </span>","null","html-keyboard-response","31","362840","0.0-8.0-0.0-1.0-0.0-1.10","5","5","4","2","3","2","2","3","4","5","4","0","1","-1","0","-2","1","0","1","5","4","5","4","4","3","4","3","3","4","6","8","4","6","3","4","8","3","5","5","3","3","2","4","3","2","5","5","2","1","3","2","5","3","2","3","3","4","6","3","2","3","3","1","2","3","3","4","7","7","6","3","7","3","3","2","3","6","2","3","774978739443601410","屈","541","Female","[""好她"",""好我"",""坏她"",""坏我""]","[""强她"",""强我"",""弱她"",""弱我""]","","","","","","","","","","","","","","","","","","","","","","","","","","","","","","feedback_test","","","","","","","","",""
"904","","f","psychophysics","32","364754","0.0-8.0-0.0-1.0-0.0-0.11","5","5","4","2","3","2","2","3","4","5","4","0","1","-1","0","-2","1","0","1","5","4","5","4","4","3","4","3","3","4","6","8","4","6","3","4","8","3","5","5","3","3","2","4","3","2","5","5","2","1","3","2","5","3","2","3","3","4","6","3","2","3","3","1","2","3","3","4","7","7","6","3","7","3","3","2","3","6","2","3","774978739443601410","屈","541","Female","[""好她"",""好我"",""坏她"",""坏我""]","[""强她"",""强我"",""弱她"",""弱我""]","","","","","","","","nonmatch","","","","","","","","","","key","f","16.659814159291596","683","380","f","true","nonmatch","img/triangle.png","好我","好她","prac_ALT2_moral","practice_moral","","","","","","","","",""
"null","<span style='color:GreenYellow; font-size: 70px;'>正确! </span>","null","html-keyboard-response","33","365258","0.0-8.0-0.0-1.0-0.0-1.11","5","5","4","2","3","2","2","3","4","5","4","0","1","-1","0","-2","1","0","1","5","4","5","4","4","3","4","3","3","4","6","8","4","6","3","4","8","3","5","5","3","3","2","4","3","2","5","5","2","1","3","2","5","3","2","3","3","4","6","3","2","3","3","1","2","3","3","4","7","7","6","3","7","3","3","2","3","6","2","3","774978739443601410","屈","541","Female","[""好她"",""好我"",""坏她"",""坏我""]","[""强她"",""强我"",""弱她"",""弱我""]","","","","","","","","","","","","","","","","","","","","","","","","","","","","","","feedback_test","","","","","","","","",""
"741","","f","psychophysics","34","367007","0.0-8.0-0.0-1.0-0.0-0.12","5","5","4","2","3","2","2","3","4","5","4","0","1","-1","0","-2","1","0","1","5","4","5","4","4","3","4","3","3","4","6","8","4","6","3","4","8","3","5","5","3","3","2","4","3","2","5","5","2","1","3","2","5","3","2","3","3","4","6","3","2","3","3","1","2","3","3","4","7","7","6","3","7","3","3","2","3","6","2","3","774978739443601410","屈","541","Female","[""好她"",""好我"",""坏她"",""坏我""]","[""强她"",""强我"",""弱她"",""弱我""]","","","","","","","","nonmatch","","","","","","","","","","key","f","16.999679999999934","683","380","j","false","match","img/ellipse.png","坏我","坏我","prac_ALT2_moral","practice_moral","","","","","","","","",""
"null","<span style='color:red; font-size: 70px;'>错误! </span>","null","html-keyboard-response","35","367512","0.0-8.0-0.0-1.0-0.0-1.12","5","5","4","2","3","2","2","3","4","5","4","0","1","-1","0","-2","1","0","1","5","4","5","4","4","3","4","3","3","4","6","8","4","6","3","4","8","3","5","5","3","3","2","4","3","2","5","5","2","1","3","2","5","3","2","3","3","4","6","3","2","3","3","1","2","3","3","4","7","7","6","3","7","3","3","2","3","6","2","3","774978739443601410","屈","541","Female","[""好她"",""好我"",""坏她"",""坏我""]","[""强她"",""强我"",""弱她"",""弱我""]","","","","","","","","","","","","","","","","","","","","","","","","","","","","","","feedback_test","","","","","","","","",""
"863","","j","psychophysics","36","369388","0.0-8.0-0.0-1.0-0.0-0.13","5","5","4","2","3","2","2","3","4","5","4","0","1","-1","0","-2","1","0","1","5","4","5","4","4","3","4","3","3","4","6","8","4","6","3","4","8","3","5","5","3","3","2","4","3","2","5","5","2","1","3","2","5","3","2","3","3","4","6","3","2","3","3","1","2","3","3","4","7","7","6","3","7","3","3","2","3","6","2","3","774978739443601410","屈","541","Female","[""好她"",""好我"",""坏她"",""坏我""]","[""强她"",""强我"",""弱她"",""弱我""]","","","","","","","","match","","","","","","","","","","key","j","16.68123809523836","683","380","f","false","nonmatch","img/triangle.png","坏她","好她","prac_ALT2_moral","practice_moral","","","","","","","","",""
"null","<span style='color:red; font-size: 70px;'>错误! </span>","null","html-keyboard-response","37","369898","0.0-8.0-0.0-1.0-0.0-1.13","5","5","4","2","3","2","2","3","4","5","4","0","1","-1","0","-2","1","0","1","5","4","5","4","4","3","4","3","3","4","6","8","4","6","3","4","8","3","5","5","3","3","2","4","3","2","5","5","2","1","3","2","5","3","2","3","3","4","6","3","2","3","3","1","2","3","3","4","7","7","6","3","7","3","3","2","3","6","2","3","774978739443601410","屈","541","Female","[""好她"",""好我"",""坏她"",""坏我""]","[""强她"",""强我"",""弱她"",""弱我""]","","","","","","","","","","","","","","","","","","","","","","","","","","","","","","feedback_test","","","","","","","","",""
"879","","j","psychophysics","38","371791","0.0-8.0-0.0-1.0-0.0-0.14","5","5","4","2","3","2","2","3","4","5","4","0","1","-1","0","-2","1","0","1","5","4","5","4","4","3","4","3","3","4","6","8","4","6","3","4","8","3","5","5","3","3","2","4","3","2","5","5","2","1","3","2","5","3","2","3","3","4","6","3","2","3","3","1","2","3","3","4","7","7","6","3","7","3","3","2","3","6","2","3","774978739443601410","屈","541","Female","[""好她"",""好我"",""坏她"",""坏我""]","[""强她"",""强我"",""弱她"",""弱我""]","","","","","","","","match","","","","","","","","","","key","j","16.657155963302795","683","380","j","true","match","img/square.png","好我","好我","prac_ALT2_moral","practice_moral","","","","","","","","",""
"null","<span style='color:GreenYellow; font-size: 70px;'>正确! </span>","null","html-keyboard-response","39","372297","0.0-8.0-0.0-1.0-0.0-1.14","5","5","4","2","3","2","2","3","4","5","4","0","1","-1","0","-2","1","0","1","5","4","5","4","4","3","4","3","3","4","6","8","4","6","3","4","8","3","5","5","3","3","2","4","3","2","5","5","2","1","3","2","5","3","2","3","3","4","6","3","2","3","3","1","2","3","3","4","7","7","6","3","7","3","3","2","3","6","2","3","774978739443601410","屈","541","Female","[""好她"",""好我"",""坏她"",""坏我""]","[""强她"",""强我"",""弱她"",""弱我""]","","","","","","","","","","","","","","","","","","","","","","","","","","","","","","feedback_test","","","","","","","","",""
"691","","j","psychophysics","40","373998","0.0-8.0-0.0-1.0-0.0-0.15","5","5","4","2","3","2","2","3","4","5","4","0","1","-1","0","-2","1","0","1","5","4","5","4","4","3","4","3","3","4","6","8","4","6","3","4","8","3","5","5","3","3","2","4","3","2","5","5","2","1","3","2","5","3","2","3","3","4","6","3","2","3","3","1","2","3","3","4","7","7","6","3","7","3","3","2","3","6","2","3","774978739443601410","屈","541","Female","[""好她"",""好我"",""坏她"",""坏我""]","[""强她"",""强我"",""弱她"",""弱我""]","","","","","","","","match","","","","","","","","","","key","j","16.998163265306193","683","380","j","true","match","img/square.png","好我","好我","prac_ALT2_moral","practice_moral","","","","","","","","",""
"null","<span style='color:GreenYellow; font-size: 70px;'>正确! </span>","null","html-keyboard-response","41","374508","0.0-8.0-0.0-1.0-0.0-1.15","5","5","4","2","3","2","2","3","4","5","4","0","1","-1","0","-2","1","0","1","5","4","5","4","4","3","4","3","3","4","6","8","4","6","3","4","8","3","5","5","3","3","2","4","3","2","5","5","2","1","3","2","5","3","2","3","3","4","6","3","2","3","3","1","2","3","3","4","7","7","6","3","7","3","3","2","3","6","2","3","774978739443601410","屈","541","Female","[""好她"",""好我"",""坏她"",""坏我""]","[""强她"",""强我"",""弱她"",""弱我""]","","","","","","","","","","","","","","","","","","","","","","","","","","","","","","feedback_test","","","","","","","","",""
"806","","j","psychophysics","42","376331","0.0-8.0-0.0-1.0-0.0-0.16","5","5","4","2","3","2","2","3","4","5","4","0","1","-1","0","-2","1","0","1","5","4","5","4","4","3","4","3","3","4","6","8","4","6","3","4","8","3","5","5","3","3","2","4","3","2","5","5","2","1","3","2","5","3","2","3","3","4","6","3","2","3","3","1","2","3","3","4","7","7","6","3","7","3","3","2","3","6","2","3","774978739443601410","屈","541","Female","[""好她"",""好我"",""坏她"",""坏我""]","[""强她"",""强我"",""弱她"",""弱我""]","","","","","","","","match","","","","","","","","","","key","j","17.009673267326868","683","380","f","false","nonmatch","img/ellipse.png","好我","坏我","prac_ALT2_moral","practice_moral","","","","","","","","",""
"null","<span style='color:red; font-size: 70px;'>错误! </span>","null","html-keyboard-response","43","376841","0.0-8.0-0.0-1.0-0.0-1.16","5","5","4","2","3","2","2","3","4","5","4","0","1","-1","0","-2","1","0","1","5","4","5","4","4","3","4","3","3","4","6","8","4","6","3","4","8","3","5","5","3","3","2","4","3","2","5","5","2","1","3","2","5","3","2","3","3","4","6","3","2","3","3","1","2","3","3","4","7","7","6","3","7","3","3","2","3","6","2","3","774978739443601410","屈","541","Female","[""好她"",""好我"",""坏她"",""坏我""]","[""强她"",""强我"",""弱她"",""弱我""]","","","","","","","","","","","","","","","","","","","","","","","","","","","","","","feedback_test","","","","","","","","",""
"1078","","j","psychophysics","44","378927","0.0-8.0-0.0-1.0-0.0-0.17","5","5","4","2","3","2","2","3","4","5","4","0","1","-1","0","-2","1","0","1","5","4","5","4","4","3","4","3","3","4","6","8","4","6","3","4","8","3","5","5","3","3","2","4","3","2","5","5","2","1","3","2","5","3","2","3","3","4","6","3","2","3","3","1","2","3","3","4","7","7","6","3","7","3","3","2","3","6","2","3","774978739443601410","屈","541","Female","[""好她"",""好我"",""坏她"",""坏我""]","[""强她"",""强我"",""弱她"",""弱我""]","","","","","","","","match","","","","","","","","","","key","j","16.799317073170663","683","380","f","false","nonmatch","img/ellipse.png","好她","坏我","prac_ALT2_moral","practice_moral","","","","","","","","",""
"null","<span style='color:red; font-size: 70px;'>错误! </span>","null","html-keyboard-response","45","379434","0.0-8.0-0.0-1.0-0.0-1.17","5","5","4","2","3","2","2","3","4","5","4","0","1","-1","0","-2","1","0","1","5","4","5","4","4","3","4","3","3","4","6","8","4","6","3","4","8","3","5","5","3","3","2","4","3","2","5","5","2","1","3","2","5","3","2","3","3","4","6","3","2","3","3","1","2","3","3","4","7","7","6","3","7","3","3","2","3","6","2","3","774978739443601410","屈","541","Female","[""好她"",""好我"",""坏她"",""坏我""]","[""强她"",""强我"",""弱她"",""弱我""]","","","","","","","","","","","","","","","","","","","","","","","","","","","","","","feedback_test","","","","","","","","",""
"647","","f","psychophysics","46","381086","0.0-8.0-0.0-1.0-0.0-0.18","5","5","4","2","3","2","2","3","4","5","4","0","1","-1","0","-2","1","0","1","5","4","5","4","4","3","4","3","3","4","6","8","4","6","3","4","8","3","5","5","3","3","2","4","3","2","5","5","2","1","3","2","5","3","2","3","3","4","6","3","2","3","3","1","2","3","3","4","7","7","6","3","7","3","3","2","3","6","2","3","774978739443601410","屈","541","Female","[""好她"",""好我"",""坏她"",""坏我""]","[""强她"",""强我"",""弱她"",""弱我""]","","","","","","","","nonmatch","","","","","","","","","","key","f","17.025673684210663","683","380","j","false","match","img/ellipse.png","坏我","坏我","prac_ALT2_moral","practice_moral","","","","","","","","",""
"null","<span style='color:red; font-size: 70px;'>错误! </span>","null","html-keyboard-response","47","381608","0.0-8.0-0.0-1.0-0.0-1.18","5","5","4","2","3","2","2","3","4","5","4","0","1","-1","0","-2","1","0","1","5","4","5","4","4","3","4","3","3","4","6","8","4","6","3","4","8","3","5","5","3","3","2","4","3","2","5","5","2","1","3","2","5","3","2","3","3","4","6","3","2","3","3","1","2","3","3","4","7","7","6","3","7","3","3","2","3","6","2","3","774978739443601410","屈","541","Female","[""好她"",""好我"",""坏她"",""坏我""]","[""强她"",""强我"",""弱她"",""弱我""]","","","","","","","","","","","","","","","","","","","","","","","","","","","","","","feedback_test","","","","","","","","",""
"910","","j","psychophysics","48","383527","0.0-8.0-0.0-1.0-0.0-0.19","5","5","4","2","3","2","2","3","4","5","4","0","1","-1","0","-2","1","0","1","5","4","5","4","4","3","4","3","3","4","6","8","4","6","3","4","8","3","5","5","3","3","2","4","3","2","5","5","2","1","3","2","5","3","2","3","3","4","6","3","2","3","3","1","2","3","3","4","7","7","6","3","7","3","3","2","3","6","2","3","774978739443601410","屈","541","Female","[""好她"",""好我"",""坏她"",""坏我""]","[""强她"",""强我"",""弱她"",""弱我""]","","","","","","","","match","","","","","","","","","","key","j","16.956819819819774","683","380","j","true","match","img/hexagon.png","坏她","坏她","prac_ALT2_moral","practice_moral","","","","","","","","",""
"null","<span style='color:GreenYellow; font-size: 70px;'>正确! </span>","null","html-keyboard-response","49","384035","0.0-8.0-0.0-1.0-0.0-1.19","5","5","4","2","3","2","2","3","4","5","4","0","1","-1","0","-2","1","0","1","5","4","5","4","4","3","4","3","3","4","6","8","4","6","3","4","8","3","5","5","3","3","2","4","3","2","5","5","2","1","3","2","5","3","2","3","3","4","6","3","2","3","3","1","2","3","3","4","7","7","6","3","7","3","3","2","3","6","2","3","774978739443601410","屈","541","Female","[""好她"",""好我"",""坏她"",""坏我""]","[""强她"",""强我"",""弱她"",""弱我""]","","","","","","","","","","","","","","","","","","","","","","","","","","","","","","feedback_test","","","","","","","","",""
"658","","j","psychophysics","50","385703","0.0-8.0-0.0-1.0-0.0-0.20","5","5","4","2","3","2","2","3","4","5","4","0","1","-1","0","-2","1","0","1","5","4","5","4","4","3","4","3","3","4","6","8","4","6","3","4","8","3","5","5","3","3","2","4","3","2","5","5","2","1","3","2","5","3","2","3","3","4","6","3","2","3","3","1","2","3","3","4","7","7","6","3","7","3","3","2","3","6","2","3","774978739443601410","屈","541","Female","[""好她"",""好我"",""坏她"",""坏我""]","[""强她"",""强我"",""弱她"",""弱我""]","","","","","","","","match","","","","","","","","","","key","j","16.842170212765847","683","380","f","false","nonmatch","img/ellipse.png","坏她","坏我","prac_ALT2_moral","practice_moral","","","","","","","","",""
"null","<span style='color:red; font-size: 70px;'>错误! </span>","null","html-keyboard-response","51","386210","0.0-8.0-0.0-1.0-0.0-1.20","5","5","4","2","3","2","2","3","4","5","4","0","1","-1","0","-2","1","0","1","5","4","5","4","4","3","4","3","3","4","6","8","4","6","3","4","8","3","5","5","3","3","2","4","3","2","5","5","2","1","3","2","5","3","2","3","3","4","6","3","2","3","3","1","2","3","3","4","7","7","6","3","7","3","3","2","3","6","2","3","774978739443601410","屈","541","Female","[""好她"",""好我"",""坏她"",""坏我""]","[""强她"",""强我"",""弱她"",""弱我""]","","","","","","","","","","","","","","","","","","","","","","","","","","","","","","feedback_test","","","","","","","","",""
"933","","f","psychophysics","52","388158","0.0-8.0-0.0-1.0-0.0-0.21","5","5","4","2","3","2","2","3","4","5","4","0","1","-1","0","-2","1","0","1","5","4","5","4","4","3","4","3","3","4","6","8","4","6","3","4","8","3","5","5","3","3","2","4","3","2","5","5","2","1","3","2","5","3","2","3","3","4","6","3","2","3","3","1","2","3","3","4","7","7","6","3","7","3","3","2","3","6","2","3","774978739443601410","屈","541","Female","[""好她"",""好我"",""坏她"",""坏我""]","[""强她"",""强我"",""弱她"",""弱我""]","","","","","","","","nonmatch","","","","","","","","","","key","f","16.805876106194805","683","380","j","false","match","img/triangle.png","好她","好她","prac_ALT2_moral","practice_moral","","","","","","","","",""
"null","<span style='color:red; font-size: 70px;'>错误! </span>","null","html-keyboard-response","53","388676","0.0-8.0-0.0-1.0-0.0-1.21","5","5","4","2","3","2","2","3","4","5","4","0","1","-1","0","-2","1","0","1","5","4","5","4","4","3","4","3","3","4","6","8","4","6","3","4","8","3","5","5","3","3","2","4","3","2","5","5","2","1","3","2","5","3","2","3","3","4","6","3","2","3","3","1","2","3","3","4","7","7","6","3","7","3","3","2","3","6","2","3","774978739443601410","屈","541","Female","[""好她"",""好我"",""坏她"",""坏我""]","[""强她"",""强我"",""弱她"",""弱我""]","","","","","","","","","","","","","","","","","","","","","","","","","","","","","","feedback_test","","","","","","","","",""
"805","","j","psychophysics","54","390492","0.0-8.0-0.0-1.0-0.0-0.22","5","5","4","2","3","2","2","3","4","5","4","0","1","-1","0","-2","1","0","1","5","4","5","4","4","3","4","3","3","4","6","8","4","6","3","4","8","3","5","5","3","3","2","4","3","2","5","5","2","1","3","2","5","3","2","3","3","4","6","3","2","3","3","1","2","3","3","4","7","7","6","3","7","3","3","2","3","6","2","3","774978739443601410","屈","541","Female","[""好她"",""好我"",""坏她"",""坏我""]","[""强她"",""强我"",""弱她"",""弱我""]","","","","","","","","match","","","","","","","","","","key","j","16.82464150943352","683","380","j","true","match","img/triangle.png","好她","好她","prac_ALT2_moral","practice_moral","","","","","","","","",""
"null","<span style='color:GreenYellow; font-size: 70px;'>正确! </span>","null","html-keyboard-response","55","390999","0.0-8.0-0.0-1.0-0.0-1.22","5","5","4","2","3","2","2","3","4","5","4","0","1","-1","0","-2","1","0","1","5","4","5","4","4","3","4","3","3","4","6","8","4","6","3","4","8","3","5","5","3","3","2","4","3","2","5","5","2","1","3","2","5","3","2","3","3","4","6","3","2","3","3","1","2","3","3","4","7","7","6","3","7","3","3","2","3","6","2","3","774978739443601410","屈","541","Female","[""好她"",""好我"",""坏她"",""坏我""]","[""强她"",""强我"",""弱她"",""弱我""]","","","","","","","","","","","","","","","","","","","","","","","","","","","","","","feedback_test","","","","","","","","",""
"979","","f","psychophysics","56","392988","0.0-8.0-0.0-1.0-0.0-0.23","5","5","4","2","3","2","2","3","4","5","4","0","1","-1","0","-2","1","0","1","5","4","5","4","4","3","4","3","3","4","6","8","4","6","3","4","8","3","5","5","3","3","2","4","3","2","5","5","2","1","3","2","5","3","2","3","3","4","6","3","2","3","3","1","2","3","3","4","7","7","6","3","7","3","3","2","3","6","2","3","774978739443601410","屈","541","Female","[""好她"",""好我"",""坏她"",""坏我""]","[""强她"",""强我"",""弱她"",""弱我""]","","","","","","","","nonmatch","","","","","","","","","","key","f","17.117385964912135","683","380","j","false","match","img/ellipse.png","坏我","坏我","prac_ALT2_moral","practice_moral","","","","","","","","",""
"null","<span style='color:red; font-size: 70px;'>错误! </span>","null","html-keyboard-response","57","393496","0.0-8.0-0.0-1.0-0.0-1.23","5","5","4","2","3","2","2","3","4","5","4","0","1","-1","0","-2","1","0","1","5","4","5","4","4","3","4","3","3","4","6","8","4","6","3","4","8","3","5","5","3","3","2","4","3","2","5","5","2","1","3","2","5","3","2","3","3","4","6","3","2","3","3","1","2","3","3","4","7","7","6","3","7","3","3","2","3","6","2","3","774978739443601410","屈","541","Female","[""好她"",""好我"",""坏她"",""坏我""]","[""强她"",""强我"",""弱她"",""弱我""]","","","","","","","","","","","","","","","","","","","","","","","","","","","","","","feedback_test","","","","","","","","",""
"955","","j","psychophysics","58","395464","0.0-8.0-0.0-1.0-0.0-0.24","5","5","4","2","3","2","2","3","4","5","4","0","1","-1","0","-2","1","0","1","5","4","5","4","4","3","4","3","3","4","6","8","4","6","3","4","8","3","5","5","3","3","2","4","3","2","5","5","2","1","3","2","5","3","2","3","3","4","6","3","2","3","3","1","2","3","3","4","7","7","6","3","7","3","3","2","3","6","2","3","774978739443601410","屈","541","Female","[""好她"",""好我"",""坏她"",""坏我""]","[""强她"",""强我"",""弱她"",""弱我""]","","","","","","","","match","","","","","","","","","","key","j","16.67672321428576","683","380","j","true","match","img/square.png","好我","好我","prac_ALT2_moral","practice_moral","","","","","","","","",""
"null","<span style='color:GreenYellow; font-size: 70px;'>正确! </span>","null","html-keyboard-response","59","395977","0.0-8.0-0.0-1.0-0.0-1.24","5","5","4","2","3","2","2","3","4","5","4","0","1","-1","0","-2","1","0","1","5","4","5","4","4","3","4","3","3","4","6","8","4","6","3","4","8","3","5","5","3","3","2","4","3","2","5","5","2","1","3","2","5","3","2","3","3","4","6","3","2","3","3","1","2","3","3","4","7","7","6","3","7","3","3","2","3","6","2","3","774978739443601410","屈","541","Female","[""好她"",""好我"",""坏她"",""坏我""]","[""强她"",""强我"",""弱她"",""弱我""]","","","","","","","","","","","","","","","","","","","","","","","","","","","","","","feedback_test","","","","","","","","",""
"870","","f","psychophysics","60","397863","0.0-8.0-0.0-1.0-0.0-0.25","5","5","4","2","3","2","2","3","4","5","4","0","1","-1","0","-2","1","0","1","5","4","5","4","4","3","4","3","3","4","6","8","4","6","3","4","8","3","5","5","3","3","2","4","3","2","5","5","2","1","3","2","5","3","2","3","3","4","6","3","2","3","3","1","2","3","3","4","7","7","6","3","7","3","3","2","3","6","2","3","774978739443601410","屈","541","Female","[""好她"",""好我"",""坏她"",""坏我""]","[""强她"",""强我"",""弱她"",""弱我""]","","","","","","","","nonmatch","","","","","","","","","","key","f","16.986228571428608","683","380","j","false","match","img/ellipse.png","坏我","坏我","prac_ALT2_moral","practice_moral","","","","","","","","",""
"null","<span style='color:red; font-size: 70px;'>错误! </span>","null","html-keyboard-response","61","398371","0.0-8.0-0.0-1.0-0.0-1.25","5","5","4","2","3","2","2","3","4","5","4","0","1","-1","0","-2","1","0","1","5","4","5","4","4","3","4","3","3","4","6","8","4","6","3","4","8","3","5","5","3","3","2","4","3","2","5","5","2","1","3","2","5","3","2","3","3","4","6","3","2","3","3","1","2","3","3","4","7","7","6","3","7","3","3","2","3","6","2","3","774978739443601410","屈","541","Female","[""好她"",""好我"",""坏她"",""坏我""]","[""强她"",""强我"",""弱她"",""弱我""]","","","","","","","","","","","","","","","","","","","","","","","","","","","","","","feedback_test","","","","","","","","",""
"798","","j","psychophysics","62","400175","0.0-8.0-0.0-1.0-0.0-0.26","5","5","4","2","3","2","2","3","4","5","4","0","1","-1","0","-2","1","0","1","5","4","5","4","4","3","4","3","3","4","6","8","4","6","3","4","8","3","5","5","3","3","2","4","3","2","5","5","2","1","3","2","5","3","2","3","3","4","6","3","2","3","3","1","2","3","3","4","7","7","6","3","7","3","3","2","3","6","2","3","774978739443601410","屈","541","Female","[""好她"",""好我"",""坏她"",""坏我""]","[""强她"",""强我"",""弱她"",""弱我""]","","","","","","","","match","","","","","","","","","","key","j","16.82748514851486","683","380","j","true","match","img/ellipse.png","坏我","坏我","prac_ALT2_moral","practice_moral","","","","","","","","",""
"null","<span style='color:GreenYellow; font-size: 70px;'>正确! </span>","null","html-keyboard-response","63","400690","0.0-8.0-0.0-1.0-0.0-1.26","5","5","4","2","3","2","2","3","4","5","4","0","1","-1","0","-2","1","0","1","5","4","5","4","4","3","4","3","3","4","6","8","4","6","3","4","8","3","5","5","3","3","2","4","3","2","5","5","2","1","3","2","5","3","2","3","3","4","6","3","2","3","3","1","2","3","3","4","7","7","6","3","7","3","3","2","3","6","2","3","774978739443601410","屈","541","Female","[""好她"",""好我"",""坏她"",""坏我""]","[""强她"",""强我"",""弱她"",""弱我""]","","","","","","","","","","","","","","","","","","","","","","","","","","","","","","feedback_test","","","","","","","","",""
"932","","j","psychophysics","64","402629","0.0-8.0-0.0-1.0-0.0-0.27","5","5","4","2","3","2","2","3","4","5","4","0","1","-1","0","-2","1","0","1","5","4","5","4","4","3","4","3","3","4","6","8","4","6","3","4","8","3","5","5","3","3","2","4","3","2","5","5","2","1","3","2","5","3","2","3","3","4","6","3","2","3","3","1","2","3","3","4","7","7","6","3","7","3","3","2","3","6","2","3","774978739443601410","屈","541","Female","[""好她"",""好我"",""坏她"",""坏我""]","[""强她"",""强我"",""弱她"",""弱我""]","","","","","","","","match","","","","","","","","","","key","j","16.83653636363663","683","380","f","false","nonmatch","img/triangle.png","好我","好她","prac_ALT2_moral","practice_moral","","","","","","","","",""
"null","<span style='color:red; font-size: 70px;'>错误! </span>","null","html-keyboard-response","65","403146","0.0-8.0-0.0-1.0-0.0-1.27","5","5","4","2","3","2","2","3","4","5","4","0","1","-1","0","-2","1","0","1","5","4","5","4","4","3","4","3","3","4","6","8","4","6","3","4","8","3","5","5","3","3","2","4","3","2","5","5","2","1","3","2","5","3","2","3","3","4","6","3","2","3","3","1","2","3","3","4","7","7","6","3","7","3","3","2","3","6","2","3","774978739443601410","屈","541","Female","[""好她"",""好我"",""坏她"",""坏我""]","[""强她"",""强我"",""弱她"",""弱我""]","","","","","","","","","","","","","","","","","","","","","","","","","","","","","","feedback_test","","","","","","","","",""
"974","","j","psychophysics","66","405134","0.0-8.0-0.0-1.0-0.0-0.28","5","5","4","2","3","2","2","3","4","5","4","0","1","-1","0","-2","1","0","1","5","4","5","4","4","3","4","3","3","4","6","8","4","6","3","4","8","3","5","5","3","3","2","4","3","2","5","5","2","1","3","2","5","3","2","3","3","4","6","3","2","3","3","1","2","3","3","4","7","7","6","3","7","3","3","2","3","6","2","3","774978739443601410","屈","541","Female","[""好她"",""好我"",""坏她"",""坏我""]","[""强她"",""强我"",""弱她"",""弱我""]","","","","","","","","match","","","","","","","","","","key","j","16.665035398229875","683","380","f","false","nonmatch","img/triangle.png","坏我","好她","prac_ALT2_moral","practice_moral","","","","","","","","",""
"null","<span style='color:red; font-size: 70px;'>错误! </span>","null","html-keyboard-response","67","405642","0.0-8.0-0.0-1.0-0.0-1.28","5","5","4","2","3","2","2","3","4","5","4","0","1","-1","0","-2","1","0","1","5","4","5","4","4","3","4","3","3","4","6","8","4","6","3","4","8","3","5","5","3","3","2","4","3","2","5","5","2","1","3","2","5","3","2","3","3","4","6","3","2","3","3","1","2","3","3","4","7","7","6","3","7","3","3","2","3","6","2","3","774978739443601410","屈","541","Female","[""好她"",""好我"",""坏她"",""坏我""]","[""强她"",""强我"",""弱她"",""弱我""]","","","","","","","","","","","","","","","","","","","","","","","","","","","","","","feedback_test","","","","","","","","",""
"751","","j","psychophysics","68","407410","0.0-8.0-0.0-1.0-0.0-0.29","5","5","4","2","3","2","2","3","4","5","4","0","1","-1","0","-2","1","0","1","5","4","5","4","4","3","4","3","3","4","6","8","4","6","3","4","8","3","5","5","3","3","2","4","3","2","5","5","2","1","3","2","5","3","2","3","3","4","6","3","2","3","3","1","2","3","3","4","7","7","6","3","7","3","3","2","3","6","2","3","774978739443601410","屈","541","Female","[""好她"",""好我"",""坏她"",""坏我""]","[""强她"",""强我"",""弱她"",""弱我""]","","","","","","","","match","","","","","","","","","","key","j","16.820050000000048","683","380","j","true","match","img/square.png","好我","好我","prac_ALT2_moral","practice_moral","","","","","","","","",""
"null","<span style='color:GreenYellow; font-size: 70px;'>正确! </span>","null","html-keyboard-response","69","407917","0.0-8.0-0.0-1.0-0.0-1.29","5","5","4","2","3","2","2","3","4","5","4","0","1","-1","0","-2","1","0","1","5","4","5","4","4","3","4","3","3","4","6","8","4","6","3","4","8","3","5","5","3","3","2","4","3","2","5","5","2","1","3","2","5","3","2","3","3","4","6","3","2","3","3","1","2","3","3","4","7","7","6","3","7","3","3","2","3","6","2","3","774978739443601410","屈","541","Female","[""好她"",""好我"",""坏她"",""坏我""]","[""强她"",""强我"",""弱她"",""弱我""]","","","","","","","","","","","","","","","","","","","","","","","","","","","","","","feedback_test","","","","","","","","",""
"824","","f","psychophysics","70","409751","0.0-8.0-0.0-1.0-0.0-0.30","5","5","4","2","3","2","2","3","4","5","4","0","1","-1","0","-2","1","0","1","5","4","5","4","4","3","4","3","3","4","6","8","4","6","3","4","8","3","5","5","3","3","2","4","3","2","5","5","2","1","3","2","5","3","2","3","3","4","6","3","2","3","3","1","2","3","3","4","7","7","6","3","7","3","3","2","3","6","2","3","774978739443601410","屈","541","Female","[""好她"",""好我"",""坏她"",""坏我""]","[""强她"",""强我"",""弱她"",""弱我""]","","","","","","","","nonmatch","","","","","","","","","","key","f","16.829310679611595","683","380","f","true","nonmatch","img/square.png","坏她","好我","prac_ALT2_moral","practice_moral","","","","","","","","",""
"null","<span style='color:GreenYellow; font-size: 70px;'>正确! </span>","null","html-keyboard-response","71","410261","0.0-8.0-0.0-1.0-0.0-1.30","5","5","4","2","3","2","2","3","4","5","4","0","1","-1","0","-2","1","0","1","5","4","5","4","4","3","4","3","3","4","6","8","4","6","3","4","8","3","5","5","3","3","2","4","3","2","5","5","2","1","3","2","5","3","2","3","3","4","6","3","2","3","3","1","2","3","3","4","7","7","6","3","7","3","3","2","3","6","2","3","774978739443601410","屈","541","Female","[""好她"",""好我"",""坏她"",""坏我""]","[""强她"",""强我"",""弱她"",""弱我""]","","","","","","","","","","","","","","","","","","","","","","","","","","","","","","feedback_test","","","","","","","","",""
"878","","j","psychophysics","72","412148","0.0-8.0-0.0-1.0-0.0-0.31","5","5","4","2","3","2","2","3","4","5","4","0","1","-1","0","-2","1","0","1","5","4","5","4","4","3","4","3","3","4","6","8","4","6","3","4","8","3","5","5","3","3","2","4","3","2","5","5","2","1","3","2","5","3","2","3","3","4","6","3","2","3","3","1","2","3","3","4","7","7","6","3","7","3","3","2","3","6","2","3","774978739443601410","屈","541","Female","[""好她"",""好我"",""坏她"",""坏我""]","[""强她"",""强我"",""弱她"",""弱我""]","","","","","","","","match","","","","","","","","","","key","j","16.822626168224375","683","380","f","false","nonmatch","img/hexagon.png","好她","坏她","prac_ALT2_moral","practice_moral","","","","","","","","",""
"null","<span style='color:red; font-size: 70px;'>错误! </span>","null","html-keyboard-response","73","412660","0.0-8.0-0.0-1.0-0.0-1.31","5","5","4","2","3","2","2","3","4","5","4","0","1","-1","0","-2","1","0","1","5","4","5","4","4","3","4","3","3","4","6","8","4","6","3","4","8","3","5","5","3","3","2","4","3","2","5","5","2","1","3","2","5","3","2","3","3","4","6","3","2","3","3","1","2","3","3","4","7","7","6","3","7","3","3","2","3","6","2","3","774978739443601410","屈","541","Female","[""好她"",""好我"",""坏她"",""坏我""]","[""强她"",""强我"",""弱她"",""弱我""]","","","","","","","","","","","","","","","","","","","","","","","","","","","","","","feedback_test","","","","","","","","",""
"920","","j","psychophysics","74","414596","0.0-8.0-0.0-1.0-0.0-0.32","5","5","4","2","3","2","2","3","4","5","4","0","1","-1","0","-2","1","0","1","5","4","5","4","4","3","4","3","3","4","6","8","4","6","3","4","8","3","5","5","3","3","2","4","3","2","5","5","2","1","3","2","5","3","2","3","3","4","6","3","2","3","3","1","2","3","3","4","7","7","6","3","7","3","3","2","3","6","2","3","774978739443601410","屈","541","Female","[""好她"",""好我"",""坏她"",""坏我""]","[""强她"",""强我"",""弱她"",""弱我""]","","","","","","","","match","","","","","","","","","","key","j","16.670190909091087","683","380","j","true","match","img/hexagon.png","坏她","坏她","prac_ALT2_moral","practice_moral","","","","","","","","",""
"null","<span style='color:GreenYellow; font-size: 70px;'>正确! </span>","null","html-keyboard-response","75","415100","0.0-8.0-0.0-1.0-0.0-1.32","5","5","4","2","3","2","2","3","4","5","4","0","1","-1","0","-2","1","0","1","5","4","5","4","4","3","4","3","3","4","6","8","4","6","3","4","8","3","5","5","3","3","2","4","3","2","5","5","2","1","3","2","5","3","2","3","3","4","6","3","2","3","3","1","2","3","3","4","7","7","6","3","7","3","3","2","3","6","2","3","774978739443601410","屈","541","Female","[""好她"",""好我"",""坏她"",""坏我""]","[""强她"",""强我"",""弱她"",""弱我""]","","","","","","","","","","","","","","","","","","","","","","","","","","","","","","feedback_test","","","","","","","","",""
"887","","j","psychophysics","76","417001","0.0-8.0-0.0-1.0-0.0-0.33","5","5","4","2","3","2","2","3","4","5","4","0","1","-1","0","-2","1","0","1","5","4","5","4","4","3","4","3","3","4","6","8","4","6","3","4","8","3","5","5","3","3","2","4","3","2","5","5","2","1","3","2","5","3","2","3","3","4","6","3","2","3","3","1","2","3","3","4","7","7","6","3","7","3","3","2","3","6","2","3","774978739443601410","屈","541","Female","[""好她"",""好我"",""坏她"",""坏我""]","[""强她"",""强我"",""弱她"",""弱我""]","","","","","","","","match","","","","","","","","","","key","j","16.832407407407622","683","380","j","true","match","img/square.png","好我","好我","prac_ALT2_moral","practice_moral","","","","","","","","",""
"null","<span style='color:GreenYellow; font-size: 70px;'>正确! </span>","null","html-keyboard-response","77","417508","0.0-8.0-0.0-1.0-0.0-1.33","5","5","4","2","3","2","2","3","4","5","4","0","1","-1","0","-2","1","0","1","5","4","5","4","4","3","4","3","3","4","6","8","4","6","3","4","8","3","5","5","3","3","2","4","3","2","5","5","2","1","3","2","5","3","2","3","3","4","6","3","2","3","3","1","2","3","3","4","7","7","6","3","7","3","3","2","3","6","2","3","774978739443601410","屈","541","Female","[""好她"",""好我"",""坏她"",""坏我""]","[""强她"",""强我"",""弱她"",""弱我""]","","","","","","","","","","","","","","","","","","","","","","","","","","","","","","feedback_test","","","","","","","","",""
"1189","","f","psychophysics","78","419714","0.0-8.0-0.0-1.0-0.0-0.34","5","5","4","2","3","2","2","3","4","5","4","0","1","-1","0","-2","1","0","1","5","4","5","4","4","3","4","3","3","4","6","8","4","6","3","4","8","3","5","5","3","3","2","4","3","2","5","5","2","1","3","2","5","3","2","3","3","4","6","3","2","3","3","1","2","3","3","4","7","7","6","3","7","3","3","2","3","6","2","3","774978739443601410","屈","541","Female","[""好她"",""好我"",""坏她"",""坏我""]","[""强她"",""强我"",""弱她"",""弱我""]","","","","","","","","nonmatch","","","","","","","","","","key","f","16.79914960629943","683","380","j","false","match","img/hexagon.png","坏她","坏她","prac_ALT2_moral","practice_moral","","","","","","","","",""
"null","<span style='color:red; font-size: 70px;'>错误! </span>","null","html-keyboard-response","79","420219","0.0-8.0-0.0-1.0-0.0-1.34","5","5","4","2","3","2","2","3","4","5","4","0","1","-1","0","-2","1","0","1","5","4","5","4","4","3","4","3","3","4","6","8","4","6","3","4","8","3","5","5","3","3","2","4","3","2","5","5","2","1","3","2","5","3","2","3","3","4","6","3","2","3","3","1","2","3","3","4","7","7","6","3","7","3","3","2","3","6","2","3","774978739443601410","屈","541","Female","[""好她"",""好我"",""坏她"",""坏我""]","[""强她"",""强我"",""弱她"",""弱我""]","","","","","","","","","","","","","","","","","","","","","","","","","","","","","","feedback_test","","","","","","","","",""
"819","","j","psychophysics","80","422044","0.0-8.0-0.0-1.0-0.0-0.35","5","5","4","2","3","2","2","3","4","5","4","0","1","-1","0","-2","1","0","1","5","4","5","4","4","3","4","3","3","4","6","8","4","6","3","4","8","3","5","5","3","3","2","4","3","2","5","5","2","1","3","2","5","3","2","3","3","4","6","3","2","3","3","1","2","3","3","4","7","7","6","3","7","3","3","2","3","6","2","3","774978739443601410","屈","541","Female","[""好她"",""好我"",""坏她"",""坏我""]","[""强她"",""强我"",""弱她"",""弱我""]","","","","","","","","match","","","","","","","","","","key","j","16.823485981308526","683","380","j","true","match","img/triangle.png","好她","好她","prac_ALT2_moral","practice_moral","","","","","","","","",""
"null","<span style='color:GreenYellow; font-size: 70px;'>正确! </span>","null","html-keyboard-response","81","422557","0.0-8.0-0.0-1.0-0.0-1.35","5","5","4","2","3","2","2","3","4","5","4","0","1","-1","0","-2","1","0","1","5","4","5","4","4","3","4","3","3","4","6","8","4","6","3","4","8","3","5","5","3","3","2","4","3","2","5","5","2","1","3","2","5","3","2","3","3","4","6","3","2","3","3","1","2","3","3","4","7","7","6","3","7","3","3","2","3","6","2","3","774978739443601410","屈","541","Female","[""好她"",""好我"",""坏她"",""坏我""]","[""强她"",""强我"",""弱她"",""弱我""]","","","","","","","","","","","","","","","","","","","","","","","","","","","","","","feedback_test","","","","","","","","",""
"861","","f","psychophysics","82","424431","0.0-8.0-0.0-1.0-0.0-0.36","5","5","4","2","3","2","2","3","4","5","4","0","1","-1","0","-2","1","0","1","5","4","5","4","4","3","4","3","3","4","6","8","4","6","3","4","8","3","5","5","3","3","2","4","3","2","5","5","2","1","3","2","5","3","2","3","3","4","6","3","2","3","3","1","2","3","3","4","7","7","6","3","7","3","3","2","3","6","2","3","774978739443601410","屈","541","Female","[""好她"",""好我"",""坏她"",""坏我""]","[""强她"",""强我"",""弱她"",""弱我""]","","","","","","","","nonmatch","","","","","","","","","","key","f","16.83743396226398","683","380","f","true","nonmatch","img/hexagon.png","坏我","坏她","prac_ALT2_moral","practice_moral","","","","","","","","",""
"null","<span style='color:GreenYellow; font-size: 70px;'>正确! </span>","null","html-keyboard-response","83","424940","0.0-8.0-0.0-1.0-0.0-1.36","5","5","4","2","3","2","2","3","4","5","4","0","1","-1","0","-2","1","0","1","5","4","5","4","4","3","4","3","3","4","6","8","4","6","3","4","8","3","5","5","3","3","2","4","3","2","5","5","2","1","3","2","5","3","2","3","3","4","6","3","2","3","3","1","2","3","3","4","7","7","6","3","7","3","3","2","3","6","2","3","774978739443601410","屈","541","Female","[""好她"",""好我"",""坏她"",""坏我""]","[""强她"",""强我"",""弱她"",""弱我""]","","","","","","","","","","","","","","","","","","","","","","","","","","","","","","feedback_test","","","","","","","","",""
"956","","f","psychophysics","84","426916","0.0-8.0-0.0-1.0-0.0-0.37","5","5","4","2","3","2","2","3","4","5","4","0","1","-1","0","-2","1","0","1","5","4","5","4","4","3","4","3","3","4","6","8","4","6","3","4","8","3","5","5","3","3","2","4","3","2","5","5","2","1","3","2","5","3","2","3","3","4","6","3","2","3","3","1","2","3","3","4","7","7","6","3","7","3","3","2","3","6","2","3","774978739443601410","屈","541","Female","[""好她"",""好我"",""坏她"",""坏我""]","[""强她"",""强我"",""弱她"",""弱我""]","","","","","","","","nonmatch","","","","","","","","","","key","f","16.66856140350839","683","380","j","false","match","img/ellipse.png","坏我","坏我","prac_ALT2_moral","practice_moral","","","","","","","","",""
"null","<span style='color:red; font-size: 70px;'>错误! </span>","null","html-keyboard-response","85","427419","0.0-8.0-0.0-1.0-0.0-1.37","5","5","4","2","3","2","2","3","4","5","4","0","1","-1","0","-2","1","0","1","5","4","5","4","4","3","4","3","3","4","6","8","4","6","3","4","8","3","5","5","3","3","2","4","3","2","5","5","2","1","3","2","5","3","2","3","3","4","6","3","2","3","3","1","2","3","3","4","7","7","6","3","7","3","3","2","3","6","2","3","774978739443601410","屈","541","Female","[""好她"",""好我"",""坏她"",""坏我""]","[""强她"",""强我"",""弱她"",""弱我""]","","","","","","","","","","","","","","","","","","","","","","","","","","","","","","feedback_test","","","","","","","","",""
"948","","j","psychophysics","86","429381","0.0-8.0-0.0-1.0-0.0-0.38","5","5","4","2","3","2","2","3","4","5","4","0","1","-1","0","-2","1","0","1","5","4","5","4","4","3","4","3","3","4","6","8","4","6","3","4","8","3","5","5","3","3","2","4","3","2","5","5","2","1","3","2","5","3","2","3","3","4","6","3","2","3","3","1","2","3","3","4","7","7","6","3","7","3","3","2","3","6","2","3","774978739443601410","屈","541","Female","[""好她"",""好我"",""坏她"",""坏我""]","[""强她"",""强我"",""弱她"",""弱我""]","","","","","","","","match","","","","","","","","","","key","j","16.81229203539814","683","380","j","true","match","img/hexagon.png","坏她","坏她","prac_ALT2_moral","practice_moral","","","","","","","","",""
"null","<span style='color:GreenYellow; font-size: 70px;'>正确! </span>","null","html-keyboard-response","87","429895","0.0-8.0-0.0-1.0-0.0-1.38","5","5","4","2","3","2","2","3","4","5","4","0","1","-1","0","-2","1","0","1","5","4","5","4","4","3","4","3","3","4","6","8","4","6","3","4","8","3","5","5","3","3","2","4","3","2","5","5","2","1","3","2","5","3","2","3","3","4","6","3","2","3","3","1","2","3","3","4","7","7","6","3","7","3","3","2","3","6","2","3","774978739443601410","屈","541","Female","[""好她"",""好我"",""坏她"",""坏我""]","[""强她"",""强我"",""弱她"",""弱我""]","","","","","","","","","","","","","","","","","","","","","","","","","","","","","","feedback_test","","","","","","","","",""
"783","","j","psychophysics","88","431709","0.0-8.0-0.0-1.0-0.0-0.39","5","5","4","2","3","2","2","3","4","5","4","0","1","-1","0","-2","1","0","1","5","4","5","4","4","3","4","3","3","4","6","8","4","6","3","4","8","3","5","5","3","3","2","4","3","2","5","5","2","1","3","2","5","3","2","3","3","4","6","3","2","3","3","1","2","3","3","4","7","7","6","3","7","3","3","2","3","6","2","3","774978739443601410","屈","541","Female","[""好她"",""好我"",""坏她"",""坏我""]","[""强她"",""强我"",""弱她"",""弱我""]","","","","","","","","match","","","","","","","","","","key","j","17.157252427184325","683","380","j","true","match","img/triangle.png","好她","好她","prac_ALT2_moral","practice_moral","","","","","","","","",""
"null","<span style='color:GreenYellow; font-size: 70px;'>正确! </span>","null","html-keyboard-response","89","432216","0.0-8.0-0.0-1.0-0.0-1.39","5","5","4","2","3","2","2","3","4","5","4","0","1","-1","0","-2","1","0","1","5","4","5","4","4","3","4","3","3","4","6","8","4","6","3","4","8","3","5","5","3","3","2","4","3","2","5","5","2","1","3","2","5","3","2","3","3","4","6","3","2","3","3","1","2","3","3","4","7","7","6","3","7","3","3","2","3","6","2","3","774978739443601410","屈","541","Female","[""好她"",""好我"",""坏她"",""坏我""]","[""强她"",""强我"",""弱她"",""弱我""]","","","","","","","","","","","","","","","","","","","","","","","","","","","","","","feedback_test","","","","","","","","",""
"967","","j","psychophysics","90","434194","0.0-8.0-0.0-1.0-0.0-0.40","5","5","4","2","3","2","2","3","4","5","4","0","1","-1","0","-2","1","0","1","5","4","5","4","4","3","4","3","3","4","6","8","4","6","3","4","8","3","5","5","3","3","2","4","3","2","5","5","2","1","3","2","5","3","2","3","3","4","6","3","2","3","3","1","2","3","3","4","7","7","6","3","7","3","3","2","3","6","2","3","774978739443601410","屈","541","Female","[""好她"",""好我"",""坏她"",""坏我""]","[""强她"",""强我"",""弱她"",""弱我""]","","","","","","","","match","","","","","","","","","","key","j","16.675513043478333","683","380","f","false","nonmatch","img/ellipse.png","坏她","坏我","prac_ALT2_moral","practice_moral","","","","","","","","",""
"null","<span style='color:red; font-size: 70px;'>错误! </span>","null","html-keyboard-response","91","434700","0.0-8.0-0.0-1.0-0.0-1.40","5","5","4","2","3","2","2","3","4","5","4","0","1","-1","0","-2","1","0","1","5","4","5","4","4","3","4","3","3","4","6","8","4","6","3","4","8","3","5","5","3","3","2","4","3","2","5","5","2","1","3","2","5","3","2","3","3","4","6","3","2","3","3","1","2","3","3","4","7","7","6","3","7","3","3","2","3","6","2","3","774978739443601410","屈","541","Female","[""好她"",""好我"",""坏她"",""坏我""]","[""强她"",""强我"",""弱她"",""弱我""]","","","","","","","","","","","","","","","","","","","","","","","","","","","","","","feedback_test","","","","","","","","",""
"735","","j","psychophysics","92","436444","0.0-8.0-0.0-1.0-0.0-0.41","5","5","4","2","3","2","2","3","4","5","4","0","1","-1","0","-2","1","0","1","5","4","5","4","4","3","4","3","3","4","6","8","4","6","3","4","8","3","5","5","3","3","2","4","3","2","5","5","2","1","3","2","5","3","2","3","3","4","6","3","2","3","3","1","2","3","3","4","7","7","6","3","7","3","3","2","3","6","2","3","774978739443601410","屈","541","Female","[""好她"",""好我"",""坏她"",""坏我""]","[""强她"",""强我"",""弱她"",""弱我""]","","","","","","","","match","","","","","","","","","","key","j","16.829254901960525","683","380","f","false","nonmatch","img/ellipse.png","好她","坏我","prac_ALT2_moral","practice_moral","","","","","","","","",""
"null","<span style='color:red; font-size: 70px;'>错误! </span>","null","html-keyboard-response","93","436954","0.0-8.0-0.0-1.0-0.0-1.41","5","5","4","2","3","2","2","3","4","5","4","0","1","-1","0","-2","1","0","1","5","4","5","4","4","3","4","3","3","4","6","8","4","6","3","4","8","3","5","5","3","3","2","4","3","2","5","5","2","1","3","2","5","3","2","3","3","4","6","3","2","3","3","1","2","3","3","4","7","7","6","3","7","3","3","2","3","6","2","3","774978739443601410","屈","541","Female","[""好她"",""好我"",""坏她"",""坏我""]","[""强她"",""强我"",""弱她"",""弱我""]","","","","","","","","","","","","","","","","","","","","","","","","","","","","","","feedback_test","","","","","","","","",""
"866","","f","psychophysics","94","438827","0.0-8.0-0.0-1.0-0.0-0.42","5","5","4","2","3","2","2","3","4","5","4","0","1","-1","0","-2","1","0","1","5","4","5","4","4","3","4","3","3","4","6","8","4","6","3","4","8","3","5","5","3","3","2","4","3","2","5","5","2","1","3","2","5","3","2","3","3","4","6","3","2","3","3","1","2","3","3","4","7","7","6","3","7","3","3","2","3","6","2","3","774978739443601410","屈","541","Female","[""好她"",""好我"",""坏她"",""坏我""]","[""强她"",""强我"",""弱她"",""弱我""]","","","","","","","","nonmatch","","","","","","","","","","key","f","16.825169811320695","683","380","f","true","nonmatch","img/ellipse.png","好我","坏我","prac_ALT2_moral","practice_moral","","","","","","","","",""
"null","<span style='color:GreenYellow; font-size: 70px;'>正确! </span>","null","html-keyboard-response","95","439333","0.0-8.0-0.0-1.0-0.0-1.42","5","5","4","2","3","2","2","3","4","5","4","0","1","-1","0","-2","1","0","1","5","4","5","4","4","3","4","3","3","4","6","8","4","6","3","4","8","3","5","5","3","3","2","4","3","2","5","5","2","1","3","2","5","3","2","3","3","4","6","3","2","3","3","1","2","3","3","4","7","7","6","3","7","3","3","2","3","6","2","3","774978739443601410","屈","541","Female","[""好她"",""好我"",""坏她"",""坏我""]","[""强她"",""强我"",""弱她"",""弱我""]","","","","","","","","","","","","","","","","","","","","","","","","","","","","","","feedback_test","","","","","","","","",""
"786","","j","psychophysics","96","441129","0.0-8.0-0.0-1.0-0.0-0.43","5","5","4","2","3","2","2","3","4","5","4","0","1","-1","0","-2","1","0","1","5","4","5","4","4","3","4","3","3","4","6","8","4","6","3","4","8","3","5","5","3","3","2","4","3","2","5","5","2","1","3","2","5","3","2","3","3","4","6","3","2","3","3","1","2","3","3","4","7","7","6","3","7","3","3","2","3","6","2","3","774978739443601410","屈","541","Female","[""好她"",""好我"",""坏她"",""坏我""]","[""强她"",""强我"",""弱她"",""弱我""]","","","","","","","","match","","","","","","","","","","key","j","16.839830000000074","683","380","f","false","nonmatch","img/hexagon.png","好我","坏她","prac_ALT2_moral","practice_moral","","","","","","","","",""
"null","<span style='color:red; font-size: 70px;'>错误! </span>","null","html-keyboard-response","97","441641","0.0-8.0-0.0-1.0-0.0-1.43","5","5","4","2","3","2","2","3","4","5","4","0","1","-1","0","-2","1","0","1","5","4","5","4","4","3","4","3","3","4","6","8","4","6","3","4","8","3","5","5","3","3","2","4","3","2","5","5","2","1","3","2","5","3","2","3","3","4","6","3","2","3","3","1","2","3","3","4","7","7","6","3","7","3","3","2","3","6","2","3","774978739443601410","屈","541","Female","[""好她"",""好我"",""坏她"",""坏我""]","[""强她"",""强我"",""弱她"",""弱我""]","","","","","","","","","","","","","","","","","","","","","","","","","","","","","","feedback_test","","","","","","","","",""
"827","","j","psychophysics","98","443477","0.0-8.0-0.0-1.0-0.0-0.44","5","5","4","2","3","2","2","3","4","5","4","0","1","-1","0","-2","1","0","1","5","4","5","4","4","3","4","3","3","4","6","8","4","6","3","4","8","3","5","5","3","3","2","4","3","2","5","5","2","1","3","2","5","3","2","3","3","4","6","3","2","3","3","1","2","3","3","4","7","7","6","3","7","3","3","2","3","6","2","3","774978739443601410","屈","541","Female","[""好她"",""好我"",""坏她"",""坏我""]","[""强她"",""强我"",""弱她"",""弱我""]","","","","","","","","match","","","","","","","","","","key","j","16.667575471697898","683","380","f","false","nonmatch","img/square.png","好她","好我","prac_ALT2_moral","practice_moral","","","","","","","","",""
"null","<span style='color:red; font-size: 70px;'>错误! </span>","null","html-keyboard-response","99","443989","0.0-8.0-0.0-1.0-0.0-1.44","5","5","4","2","3","2","2","3","4","5","4","0","1","-1","0","-2","1","0","1","5","4","5","4","4","3","4","3","3","4","6","8","4","6","3","4","8","3","5","5","3","3","2","4","3","2","5","5","2","1","3","2","5","3","2","3","3","4","6","3","2","3","3","1","2","3","3","4","7","7","6","3","7","3","3","2","3","6","2","3","774978739443601410","屈","541","Female","[""好她"",""好我"",""坏她"",""坏我""]","[""强她"",""强我"",""弱她"",""弱我""]","","","","","","","","","","","","","","","","","","","","","","","","","","","","","","feedback_test","","","","","","","","",""
"1045","","j","psychophysics","100","446046","0.0-8.0-0.0-1.0-0.0-0.45","5","5","4","2","3","2","2","3","4","5","4","0","1","-1","0","-2","1","0","1","5","4","5","4","4","3","4","3","3","4","6","8","4","6","3","4","8","3","5","5","3","3","2","4","3","2","5","5","2","1","3","2","5","3","2","3","3","4","6","3","2","3","3","1","2","3","3","4","7","7","6","3","7","3","3","2","3","6","2","3","774978739443601410","屈","541","Female","[""好她"",""好我"",""坏她"",""坏我""]","[""强她"",""强我"",""弱她"",""弱我""]","","","","","","","","match","","","","","","","","","","key","j","16.66571794871816","683","380","j","true","match","img/triangle.png","好她","好她","prac_ALT2_moral","practice_moral","","","","","","","","",""
"null","<span style='color:GreenYellow; font-size: 70px;'>正确! </span>","null","html-keyboard-response","101","446560","0.0-8.0-0.0-1.0-0.0-1.45","5","5","4","2","3","2","2","3","4","5","4","0","1","-1","0","-2","1","0","1","5","4","5","4","4","3","4","3","3","4","6","8","4","6","3","4","8","3","5","5","3","3","2","4","3","2","5","5","2","1","3","2","5","3","2","3","3","4","6","3","2","3","3","1","2","3","3","4","7","7","6","3","7","3","3","2","3","6","2","3","774978739443601410","屈","541","Female","[""好她"",""好我"",""坏她"",""坏我""]","[""强她"",""强我"",""弱她"",""弱我""]","","","","","","","","","","","","","","","","","","","","","","","","","","","","","","feedback_test","","","","","","","","",""
"837","","f","psychophysics","102","448408","0.0-8.0-0.0-1.0-0.0-0.46","5","5","4","2","3","2","2","3","4","5","4","0","1","-1","0","-2","1","0","1","5","4","5","4","4","3","4","3","3","4","6","8","4","6","3","4","8","3","5","5","3","3","2","4","3","2","5","5","2","1","3","2","5","3","2","3","3","4","6","3","2","3","3","1","2","3","3","4","7","7","6","3","7","3","3","2","3","6","2","3","774978739443601410","屈","541","Female","[""好她"",""好我"",""坏她"",""坏我""]","[""强她"",""强我"",""弱她"",""弱我""]","","","","","","","","nonmatch","","","","","","","","","","key","f","16.670712962963282","683","380","f","true","nonmatch","img/square.png","坏我","好我","prac_ALT2_moral","practice_moral","","","","","","","","",""
"null","<span style='color:GreenYellow; font-size: 70px;'>正确! </span>","null","html-keyboard-response","103","448914","0.0-8.0-0.0-1.0-0.0-1.46","5","5","4","2","3","2","2","3","4","5","4","0","1","-1","0","-2","1","0","1","5","4","5","4","4","3","4","3","3","4","6","8","4","6","3","4","8","3","5","5","3","3","2","4","3","2","5","5","2","1","3","2","5","3","2","3","3","4","6","3","2","3","3","1","2","3","3","4","7","7","6","3","7","3","3","2","3","6","2","3","774978739443601410","屈","541","Female","[""好她"",""好我"",""坏她"",""坏我""]","[""强她"",""强我"",""弱她"",""弱我""]","","","","","","","","","","","","","","","","","","","","","","","","","","","","","","feedback_test","","","","","","","","",""
"935","","f","psychophysics","104","450857","0.0-8.0-0.0-1.0-0.0-0.47","5","5","4","2","3","2","2","3","4","5","4","0","1","-1","0","-2","1","0","1","5","4","5","4","4","3","4","3","3","4","6","8","4","6","3","4","8","3","5","5","3","3","2","4","3","2","5","5","2","1","3","2","5","3","2","3","3","4","6","3","2","3","3","1","2","3","3","4","7","7","6","3","7","3","3","2","3","6","2","3","774978739443601410","屈","541","Female","[""好她"",""好我"",""坏她"",""坏我""]","[""强她"",""强我"",""弱她"",""弱我""]","","","","","","","","nonmatch","","","","","","","","","","key","f","16.67156249999971","683","380","f","true","nonmatch","img/triangle.png","坏她","好她","prac_ALT2_moral","practice_moral","","","","","","","","",""
"null","<span style='color:GreenYellow; font-size: 70px;'>正确! </span>","null","html-keyboard-response","105","451368","0.0-8.0-0.0-1.0-0.0-1.47","5","5","4","2","3","2","2","3","4","5","4","0","1","-1","0","-2","1","0","1","5","4","5","4","4","3","4","3","3","4","6","8","4","6","3","4","8","3","5","5","3","3","2","4","3","2","5","5","2","1","3","2","5","3","2","3","3","4","6","3","2","3","3","1","2","3","3","4","7","7","6","3","7","3","3","2","3","6","2","3","774978739443601410","屈","541","Female","[""好她"",""好我"",""坏她"",""坏我""]","[""强她"",""强我"",""弱她"",""弱我""]","","","","","","","","","","","","","","","","","","","","","","","","","","","","","","feedback_test","","","","","","","","",""
"76569","<style>.context{color:white; font-size: 35px; line-height:40px}</style>                            <div><p class='context'>您正确回答了52% 的试次。</p><p class='context'>您的平均反应时为877毫秒。</p><p class='context'>按空格键继续。</p></div>"," ","html-keyboard-response","106","527950","0.0-8.0-0.0-1.0-1.0-0.0","5","5","4","2","3","2","2","3","4","5","4","0","1","-1","0","-2","1","0","1","5","4","5","4","4","3","4","3","3","4","6","8","4","6","3","4","8","3","5","5","3","3","2","4","3","2","5","5","2","1","3","2","5","3","2","3","3","4","6","3","2","3","3","1","2","3","3","4","7","7","6","3","7","3","3","2","3","6","2","3","774978739443601410","屈","541","Female","[""好她"",""好我"",""坏她"",""坏我""]","[""强她"",""强我"",""弱她"",""弱我""]","","","","","","","","","","","","","","","","","","","","","","","","","","","","","","","","","","","","","","",""
"38765","","","instructions","107","566734","0.0-8.0-0.0-1.0-1.0-1.0","5","5","4","2","3","2","2","3","4","5","4","0","1","-1","0","-2","1","0","1","5","4","5","4","4","3","4","3","3","4","6","8","4","6","3","4","8","3","5","5","3","3","2","4","3","2","5","5","2","1","3","2","5","3","2","3","3","4","6","3","2","3","3","1","2","3","3","4","7","7","6","3","7","3","3","2","3","6","2","3","774978739443601410","屈","541","Female","[""好她"",""好我"",""坏她"",""坏我""]","[""强她"",""强我"",""弱她"",""弱我""]","","","","","","","","","","","","","","","","","[{""page_index"":0,""viewing_time"":5607},{""page_index"":1,""viewing_time"":29970},{""page_index"":2,""viewing_time"":3184}]","","","","","","","","","","","","","","","","","","","","","",""
"994","","j","psychophysics","108","568747","0.0-8.0-0.0-1.1-0.1-0.48","5","5","4","2","3","2","2","3","4","5","4","0","1","-1","0","-2","1","0","1","5","4","5","4","4","3","4","3","3","4","6","8","4","6","3","4","8","3","5","5","3","3","2","4","3","2","5","5","2","1","3","2","5","3","2","3","3","4","6","3","2","3","3","1","2","3","3","4","7","7","6","3","7","3","3","2","3","6","2","3","774978739443601410","屈","541","Female","[""好她"",""好我"",""坏她"",""坏我""]","[""强她"",""强我"",""弱她"",""弱我""]","","","","","","","","match","","","","","","","","","","key","j","17.098706896552326","683","380","j","true","match","img/triangle.png","好她","好她","prac_ALT2_moral","practice_moral","","","","","","","","",""
"null","<span style='color:GreenYellow; font-size: 70px;'>正确! </span>","null","html-keyboard-response","109","569255","0.0-8.0-0.0-1.1-0.1-1.48","5","5","4","2","3","2","2","3","4","5","4","0","1","-1","0","-2","1","0","1","5","4","5","4","4","3","4","3","3","4","6","8","4","6","3","4","8","3","5","5","3","3","2","4","3","2","5","5","2","1","3","2","5","3","2","3","3","4","6","3","2","3","3","1","2","3","3","4","7","7","6","3","7","3","3","2","3","6","2","3","774978739443601410","屈","541","Female","[""好她"",""好我"",""坏她"",""坏我""]","[""强她"",""强我"",""弱她"",""弱我""]","","","","","","","","","","","","","","","","","","","","","","","","","","","","","","feedback_test","","","","","","","","",""
"784","","j","psychophysics","110","571046","0.0-8.0-0.0-1.1-0.1-0.49","5","5","4","2","3","2","2","3","4","5","4","0","1","-1","0","-2","1","0","1","5","4","5","4","4","3","4","3","3","4","6","8","4","6","3","4","8","3","5","5","3","3","2","4","3","2","5","5","2","1","3","2","5","3","2","3","3","4","6","3","2","3","3","1","2","3","3","4","7","7","6","3","7","3","3","2","3","6","2","3","774978739443601410","屈","541","Female","[""好她"",""好我"",""坏她"",""坏我""]","[""强她"",""强我"",""弱她"",""弱我""]","","","","","","","","match","","","","","","","","","","key","j","16.855410000000848","683","380","j","true","match","img/triangle.png","好她","好她","prac_ALT2_moral","practice_moral","","","","","","","","",""
"null","<span style='color:GreenYellow; font-size: 70px;'>正确! </span>","null","html-keyboard-response","111","571555","0.0-8.0-0.0-1.1-0.1-1.49","5","5","4","2","3","2","2","3","4","5","4","0","1","-1","0","-2","1","0","1","5","4","5","4","4","3","4","3","3","4","6","8","4","6","3","4","8","3","5","5","3","3","2","4","3","2","5","5","2","1","3","2","5","3","2","3","3","4","6","3","2","3","3","1","2","3","3","4","7","7","6","3","7","3","3","2","3","6","2","3","774978739443601410","屈","541","Female","[""好她"",""好我"",""坏她"",""坏我""]","[""强她"",""强我"",""弱她"",""弱我""]","","","","","","","","","","","","","","","","","","","","","","","","","","","","","","feedback_test","","","","","","","","",""
"962","","f","psychophysics","112","573531","0.0-8.0-0.0-1.1-0.1-0.50","5","5","4","2","3","2","2","3","4","5","4","0","1","-1","0","-2","1","0","1","5","4","5","4","4","3","4","3","3","4","6","8","4","6","3","4","8","3","5","5","3","3","2","4","3","2","5","5","2","1","3","2","5","3","2","3","3","4","6","3","2","3","3","1","2","3","3","4","7","7","6","3","7","3","3","2","3","6","2","3","774978739443601410","屈","541","Female","[""好她"",""好我"",""坏她"",""坏我""]","[""强她"",""强我"",""弱她"",""弱我""]","","","","","","","","nonmatch","","","","","","","","","","key","f","16.818294642857968","683","380","j","false","match","img/square.png","好我","好我","prac_ALT2_moral","practice_moral","","","","","","","","",""
"null","<span style='color:red; font-size: 70px;'>错误! </span>","null","html-keyboard-response","113","574049","0.0-8.0-0.0-1.1-0.1-1.50","5","5","4","2","3","2","2","3","4","5","4","0","1","-1","0","-2","1","0","1","5","4","5","4","4","3","4","3","3","4","6","8","4","6","3","4","8","3","5","5","3","3","2","4","3","2","5","5","2","1","3","2","5","3","2","3","3","4","6","3","2","3","3","1","2","3","3","4","7","7","6","3","7","3","3","2","3","6","2","3","774978739443601410","屈","541","Female","[""好她"",""好我"",""坏她"",""坏我""]","[""强她"",""强我"",""弱她"",""弱我""]","","","","","","","","","","","","","","","","","","","","","","","","","","","","","","feedback_test","","","","","","","","",""
"930","","f","psychophysics","114","575994","0.0-8.0-0.0-1.1-0.1-0.51","5","5","4","2","3","2","2","3","4","5","4","0","1","-1","0","-2","1","0","1","5","4","5","4","4","3","4","3","3","4","6","8","4","6","3","4","8","3","5","5","3","3","2","4","3","2","5","5","2","1","3","2","5","3","2","3","3","4","6","3","2","3","3","1","2","3","3","4","7","7","6","3","7","3","3","2","3","6","2","3","774978739443601410","屈","541","Female","[""好她"",""好我"",""坏她"",""坏我""]","[""强她"",""强我"",""弱她"",""弱我""]","","","","","","","","nonmatch","","","","","","","","","","key","f","16.812080357143714","683","380","f","true","nonmatch","img/triangle.png","好我","好她","prac_ALT2_moral","practice_moral","","","","","","","","",""
"null","<span style='color:GreenYellow; font-size: 70px;'>正确! </span>","null","html-keyboard-response","115","576502","0.0-8.0-0.0-1.1-0.1-1.51","5","5","4","2","3","2","2","3","4","5","4","0","1","-1","0","-2","1","0","1","5","4","5","4","4","3","4","3","3","4","6","8","4","6","3","4","8","3","5","5","3","3","2","4","3","2","5","5","2","1","3","2","5","3","2","3","3","4","6","3","2","3","3","1","2","3","3","4","7","7","6","3","7","3","3","2","3","6","2","3","774978739443601410","屈","541","Female","[""好她"",""好我"",""坏她"",""坏我""]","[""强她"",""强我"",""弱她"",""弱我""]","","","","","","","","","","","","","","","","","","","","","","","","","","","","","","feedback_test","","","","","","","","",""
"1134","","j","psychophysics","116","578646","0.0-8.0-0.0-1.1-0.1-0.52","5","5","4","2","3","2","2","3","4","5","4","0","1","-1","0","-2","1","0","1","5","4","5","4","4","3","4","3","3","4","6","8","4","6","3","4","8","3","5","5","3","3","2","4","3","2","5","5","2","1","3","2","5","3","2","3","3","4","6","3","2","3","3","1","2","3","3","4","7","7","6","3","7","3","3","2","3","6","2","3","774978739443601410","屈","541","Female","[""好她"",""好我"",""坏她"",""坏我""]","[""强她"",""强我"",""弱她"",""弱我""]","","","","","","","","match","","","","","","","","","","key","j","16.931619834710943","683","380","f","false","nonmatch","img/square.png","好她","好我","prac_ALT2_moral","practice_moral","","","","","","","","",""
"null","<span style='color:red; font-size: 70px;'>错误! </span>","null","html-keyboard-response","117","579162","0.0-8.0-0.0-1.1-0.1-1.52","5","5","4","2","3","2","2","3","4","5","4","0","1","-1","0","-2","1","0","1","5","4","5","4","4","3","4","3","3","4","6","8","4","6","3","4","8","3","5","5","3","3","2","4","3","2","5","5","2","1","3","2","5","3","2","3","3","4","6","3","2","3","3","1","2","3","3","4","7","7","6","3","7","3","3","2","3","6","2","3","774978739443601410","屈","541","Female","[""好她"",""好我"",""坏她"",""坏我""]","[""强她"",""强我"",""弱她"",""弱我""]","","","","","","","","","","","","","","","","","","","","","","","","","","","","","","feedback_test","","","","","","","","",""
"1074","","j","psychophysics","118","581244","0.0-8.0-0.0-1.1-0.1-0.53","5","5","4","2","3","2","2","3","4","5","4","0","1","-1","0","-2","1","0","1","5","4","5","4","4","3","4","3","3","4","6","8","4","6","3","4","8","3","5","5","3","3","2","4","3","2","5","5","2","1","3","2","5","3","2","3","3","4","6","3","2","3","3","1","2","3","3","4","7","7","6","3","7","3","3","2","3","6","2","3","774978739443601410","屈","541","Female","[""好她"",""好我"",""坏她"",""坏我""]","[""强她"",""强我"",""弱她"",""弱我""]","","","","","","","","match","","","","","","","","","","key","j","16.667360655738225","683","380","j","true","match","img/hexagon.png","坏她","坏她","prac_ALT2_moral","practice_moral","","","","","","","","",""
"null","<span style='color:GreenYellow; font-size: 70px;'>正确! </span>","null","html-keyboard-response","119","581747","0.0-8.0-0.0-1.1-0.1-1.53","5","5","4","2","3","2","2","3","4","5","4","0","1","-1","0","-2","1","0","1","5","4","5","4","4","3","4","3","3","4","6","8","4","6","3","4","8","3","5","5","3","3","2","4","3","2","5","5","2","1","3","2","5","3","2","3","3","4","6","3","2","3","3","1","2","3","3","4","7","7","6","3","7","3","3","2","3","6","2","3","774978739443601410","屈","541","Female","[""好她"",""好我"",""坏她"",""坏我""]","[""强她"",""强我"",""弱她"",""弱我""]","","","","","","","","","","","","","","","","","","","","","","","","","","","","","","feedback_test","","","","","","","","",""
"1070","","j","psychophysics","120","583824","0.0-8.0-0.0-1.1-0.1-0.54","5","5","4","2","3","2","2","3","4","5","4","0","1","-1","0","-2","1","0","1","5","4","5","4","4","3","4","3","3","4","6","8","4","6","3","4","8","3","5","5","3","3","2","4","3","2","5","5","2","1","3","2","5","3","2","3","3","4","6","3","2","3","3","1","2","3","3","4","7","7","6","3","7","3","3","2","3","6","2","3","774978739443601410","屈","541","Female","[""好她"",""好我"",""坏她"",""坏我""]","[""强她"",""强我"",""弱她"",""弱我""]","","","","","","","","match","","","","","","","","","","key","j","17.08833333333314","683","380","j","true","match","img/square.png","好我","好我","prac_ALT2_moral","practice_moral","","","","","","","","",""
"null","<span style='color:GreenYellow; font-size: 70px;'>正确! </span>","null","html-keyboard-response","121","584336","0.0-8.0-0.0-1.1-0.1-1.54","5","5","4","2","3","2","2","3","4","5","4","0","1","-1","0","-2","1","0","1","5","4","5","4","4","3","4","3","3","4","6","8","4","6","3","4","8","3","5","5","3","3","2","4","3","2","5","5","2","1","3","2","5","3","2","3","3","4","6","3","2","3","3","1","2","3","3","4","7","7","6","3","7","3","3","2","3","6","2","3","774978739443601410","屈","541","Female","[""好她"",""好我"",""坏她"",""坏我""]","[""强她"",""强我"",""弱她"",""弱我""]","","","","","","","","","","","","","","","","","","","","","","","","","","","","","","feedback_test","","","","","","","","",""
"967","","f","psychophysics","122","586313","0.0-8.0-0.0-1.1-0.1-0.55","5","5","4","2","3","2","2","3","4","5","4","0","1","-1","0","-2","1","0","1","5","4","5","4","4","3","4","3","3","4","6","8","4","6","3","4","8","3","5","5","3","3","2","4","3","2","5","5","2","1","3","2","5","3","2","3","3","4","6","3","2","3","3","1","2","3","3","4","7","7","6","3","7","3","3","2","3","6","2","3","774978739443601410","屈","541","Female","[""好她"",""好我"",""坏她"",""坏我""]","[""强她"",""强我"",""弱她"",""弱我""]","","","","","","","","nonmatch","","","","","","","","","","key","f","17.104263157895236","683","380","f","true","nonmatch","img/ellipse.png","好她","坏我","prac_ALT2_moral","practice_moral","","","","","","","","",""
"null","<span style='color:GreenYellow; font-size: 70px;'>正确! </span>","null","html-keyboard-response","123","586821","0.0-8.0-0.0-1.1-0.1-1.55","5","5","4","2","3","2","2","3","4","5","4","0","1","-1","0","-2","1","0","1","5","4","5","4","4","3","4","3","3","4","6","8","4","6","3","4","8","3","5","5","3","3","2","4","3","2","5","5","2","1","3","2","5","3","2","3","3","4","6","3","2","3","3","1","2","3","3","4","7","7","6","3","7","3","3","2","3","6","2","3","774978739443601410","屈","541","Female","[""好她"",""好我"",""坏她"",""坏我""]","[""强她"",""强我"",""弱她"",""弱我""]","","","","","","","","","","","","","","","","","","","","","","","","","","","","","","feedback_test","","","","","","","","",""
"967","","j","psychophysics","124","588796","0.0-8.0-0.0-1.1-0.1-0.56","5","5","4","2","3","2","2","3","4","5","4","0","1","-1","0","-2","1","0","1","5","4","5","4","4","3","4","3","3","4","6","8","4","6","3","4","8","3","5","5","3","3","2","4","3","2","5","5","2","1","3","2","5","3","2","3","3","4","6","3","2","3","3","1","2","3","3","4","7","7","6","3","7","3","3","2","3","6","2","3","774978739443601410","屈","541","Female","[""好她"",""好我"",""坏她"",""坏我""]","[""强她"",""强我"",""弱她"",""弱我""]","","","","","","","","match","","","","","","","","","","key","j","16.658555555555363","683","380","j","true","match","img/triangle.png","好她","好她","prac_ALT2_moral","practice_moral","","","","","","","","",""
"null","<span style='color:GreenYellow; font-size: 70px;'>正确! </span>","null","html-keyboard-response","125","589305","0.0-8.0-0.0-1.1-0.1-1.56","5","5","4","2","3","2","2","3","4","5","4","0","1","-1","0","-2","1","0","1","5","4","5","4","4","3","4","3","3","4","6","8","4","6","3","4","8","3","5","5","3","3","2","4","3","2","5","5","2","1","3","2","5","3","2","3","3","4","6","3","2","3","3","1","2","3","3","4","7","7","6","3","7","3","3","2","3","6","2","3","774978739443601410","屈","541","Female","[""好她"",""好我"",""坏她"",""坏我""]","[""强她"",""强我"",""弱她"",""弱我""]","","","","","","","","","","","","","","","","","","","","","","","","","","","","","","feedback_test","","","","","","","","",""
"686","","f","psychophysics","126","591048","0.0-8.0-0.0-1.1-0.1-0.57","5","5","4","2","3","2","2","3","4","5","4","0","1","-1","0","-2","1","0","1","5","4","5","4","4","3","4","3","3","4","6","8","4","6","3","4","8","3","5","5","3","3","2","4","3","2","5","5","2","1","3","2","5","3","2","3","3","4","6","3","2","3","3","1","2","3","3","4","7","7","6","3","7","3","3","2","3","6","2","3","774978739443601410","屈","541","Female","[""好她"",""好我"",""坏她"",""坏我""]","[""强她"",""强我"",""弱她"",""弱我""]","","","","","","","","nonmatch","","","","","","","","","","key","f","16.831950000000653","683","380","f","true","nonmatch","img/hexagon.png","好我","坏她","prac_ALT2_moral","practice_moral","","","","","","","","",""
"null","<span style='color:GreenYellow; font-size: 70px;'>正确! </span>","null","html-keyboard-response","127","591562","0.0-8.0-0.0-1.1-0.1-1.57","5","5","4","2","3","2","2","3","4","5","4","0","1","-1","0","-2","1","0","1","5","4","5","4","4","3","4","3","3","4","6","8","4","6","3","4","8","3","5","5","3","3","2","4","3","2","5","5","2","1","3","2","5","3","2","3","3","4","6","3","2","3","3","1","2","3","3","4","7","7","6","3","7","3","3","2","3","6","2","3","774978739443601410","屈","541","Female","[""好她"",""好我"",""坏她"",""坏我""]","[""强她"",""强我"",""弱她"",""弱我""]","","","","","","","","","","","","","","","","","","","","","","","","","","","","","","feedback_test","","","","","","","","",""
"767","","j","psychophysics","128","593336","0.0-8.0-0.0-1.1-0.1-0.58","5","5","4","2","3","2","2","3","4","5","4","0","1","-1","0","-2","1","0","1","5","4","5","4","4","3","4","3","3","4","6","8","4","6","3","4","8","3","5","5","3","3","2","4","3","2","5","5","2","1","3","2","5","3","2","3","3","4","6","3","2","3","3","1","2","3","3","4","7","7","6","3","7","3","3","2","3","6","2","3","774978739443601410","屈","541","Female","[""好她"",""好我"",""坏她"",""坏我""]","[""强她"",""强我"",""弱她"",""弱我""]","","","","","","","","match","","","","","","","","","","key","j","16.679682692308024","683","380","j","true","match","img/hexagon.png","坏她","坏她","prac_ALT2_moral","practice_moral","","","","","","","","",""
"null","<span style='color:GreenYellow; font-size: 70px;'>正确! </span>","null","html-keyboard-response","129","593850","0.0-8.0-0.0-1.1-0.1-1.58","5","5","4","2","3","2","2","3","4","5","4","0","1","-1","0","-2","1","0","1","5","4","5","4","4","3","4","3","3","4","6","8","4","6","3","4","8","3","5","5","3","3","2","4","3","2","5","5","2","1","3","2","5","3","2","3","3","4","6","3","2","3","3","1","2","3","3","4","7","7","6","3","7","3","3","2","3","6","2","3","774978739443601410","屈","541","Female","[""好她"",""好我"",""坏她"",""坏我""]","[""强她"",""强我"",""弱她"",""弱我""]","","","","","","","","","","","","","","","","","","","","","","","","","","","","","","feedback_test","","","","","","","","",""
"839","","f","psychophysics","130","595701","0.0-8.0-0.0-1.1-0.1-0.59","5","5","4","2","3","2","2","3","4","5","4","0","1","-1","0","-2","1","0","1","5","4","5","4","4","3","4","3","3","4","6","8","4","6","3","4","8","3","5","5","3","3","2","4","3","2","5","5","2","1","3","2","5","3","2","3","3","4","6","3","2","3","3","1","2","3","3","4","7","7","6","3","7","3","3","2","3","6","2","3","774978739443601410","屈","541","Female","[""好她"",""好我"",""坏她"",""坏我""]","[""强她"",""强我"",""弱她"",""弱我""]","","","","","","","","nonmatch","","","","","","","","","","key","f","16.666831775701162","683","380","f","true","nonmatch","img/square.png","坏她","好我","prac_ALT2_moral","practice_moral","","","","","","","","",""
"null","<span style='color:GreenYellow; font-size: 70px;'>正确! </span>","null","html-keyboard-response","131","596216","0.0-8.0-0.0-1.1-0.1-1.59","5","5","4","2","3","2","2","3","4","5","4","0","1","-1","0","-2","1","0","1","5","4","5","4","4","3","4","3","3","4","6","8","4","6","3","4","8","3","5","5","3","3","2","4","3","2","5","5","2","1","3","2","5","3","2","3","3","4","6","3","2","3","3","1","2","3","3","4","7","7","6","3","7","3","3","2","3","6","2","3","774978739443601410","屈","541","Female","[""好她"",""好我"",""坏她"",""坏我""]","[""强她"",""强我"",""弱她"",""弱我""]","","","","","","","","","","","","","","","","","","","","","","","","","","","","","","feedback_test","","","","","","","","",""
"968","","f","psychophysics","132","598196","0.0-8.0-0.0-1.1-0.1-0.60","5","5","4","2","3","2","2","3","4","5","4","0","1","-1","0","-2","1","0","1","5","4","5","4","4","3","4","3","3","4","6","8","4","6","3","4","8","3","5","5","3","3","2","4","3","2","5","5","2","1","3","2","5","3","2","3","3","4","6","3","2","3","3","1","2","3","3","4","7","7","6","3","7","3","3","2","3","6","2","3","774978739443601410","屈","541","Female","[""好她"",""好我"",""坏她"",""坏我""]","[""强她"",""强我"",""弱她"",""弱我""]","","","","","","","","nonmatch","","","","","","","","","","key","f","16.66561946902626","683","380","j","false","match","img/ellipse.png","坏我","坏我","prac_ALT2_moral","practice_moral","","","","","","","","",""
"null","<span style='color:red; font-size: 70px;'>错误! </span>","null","html-keyboard-response","133","598703","0.0-8.0-0.0-1.1-0.1-1.60","5","5","4","2","3","2","2","3","4","5","4","0","1","-1","0","-2","1","0","1","5","4","5","4","4","3","4","3","3","4","6","8","4","6","3","4","8","3","5","5","3","3","2","4","3","2","5","5","2","1","3","2","5","3","2","3","3","4","6","3","2","3","3","1","2","3","3","4","7","7","6","3","7","3","3","2","3","6","2","3","774978739443601410","屈","541","Female","[""好她"",""好我"",""坏她"",""坏我""]","[""强她"",""强我"",""弱她"",""弱我""]","","","","","","","","","","","","","","","","","","","","","","","","","","","","","","feedback_test","","","","","","","","",""
"909","","f","psychophysics","134","600620","0.0-8.0-0.0-1.1-0.1-0.61","5","5","4","2","3","2","2","3","4","5","4","0","1","-1","0","-2","1","0","1","5","4","5","4","4","3","4","3","3","4","6","8","4","6","3","4","8","3","5","5","3","3","2","4","3","2","5","5","2","1","3","2","5","3","2","3","3","4","6","3","2","3","3","1","2","3","3","4","7","7","6","3","7","3","3","2","3","6","2","3","774978739443601410","屈","541","Female","[""好她"",""好我"",""坏她"",""坏我""]","[""强她"",""强我"",""弱她"",""弱我""]","","","","","","","","nonmatch","","","","","","","","","","key","f","16.811409090909134","683","380","f","true","nonmatch","img/square.png","坏我","好我","prac_ALT2_moral","practice_moral","","","","","","","","",""
"null","<span style='color:GreenYellow; font-size: 70px;'>正确! </span>","null","html-keyboard-response","135","601133","0.0-8.0-0.0-1.1-0.1-1.61","5","5","4","2","3","2","2","3","4","5","4","0","1","-1","0","-2","1","0","1","5","4","5","4","4","3","4","3","3","4","6","8","4","6","3","4","8","3","5","5","3","3","2","4","3","2","5","5","2","1","3","2","5","3","2","3","3","4","6","3","2","3","3","1","2","3","3","4","7","7","6","3","7","3","3","2","3","6","2","3","774978739443601410","屈","541","Female","[""好她"",""好我"",""坏她"",""坏我""]","[""强她"",""强我"",""弱她"",""弱我""]","","","","","","","","","","","","","","","","","","","","","","","","","","","","","","feedback_test","","","","","","","","",""
"819","","j","psychophysics","136","602965","0.0-8.0-0.0-1.1-0.1-0.62","5","5","4","2","3","2","2","3","4","5","4","0","1","-1","0","-2","1","0","1","5","4","5","4","4","3","4","3","3","4","6","8","4","6","3","4","8","3","5","5","3","3","2","4","3","2","5","5","2","1","3","2","5","3","2","3","3","4","6","3","2","3","3","1","2","3","3","4","7","7","6","3","7","3","3","2","3","6","2","3","774978739443601410","屈","541","Female","[""好她"",""好我"",""坏她"",""坏我""]","[""强她"",""强我"",""弱她"",""弱我""]","","","","","","","","match","","","","","","","","","","key","j","16.833582524272376","683","380","j","true","match","img/ellipse.png","坏我","坏我","prac_ALT2_moral","practice_moral","","","","","","","","",""
"null","<span style='color:GreenYellow; font-size: 70px;'>正确! </span>","null","html-keyboard-response","137","603475","0.0-8.0-0.0-1.1-0.1-1.62","5","5","4","2","3","2","2","3","4","5","4","0","1","-1","0","-2","1","0","1","5","4","5","4","4","3","4","3","3","4","6","8","4","6","3","4","8","3","5","5","3","3","2","4","3","2","5","5","2","1","3","2","5","3","2","3","3","4","6","3","2","3","3","1","2","3","3","4","7","7","6","3","7","3","3","2","3","6","2","3","774978739443601410","屈","541","Female","[""好她"",""好我"",""坏她"",""坏我""]","[""强她"",""强我"",""弱她"",""弱我""]","","","","","","","","","","","","","","","","","","","","","","","","","","","","","","feedback_test","","","","","","","","",""
