"rt","stimulus","response","trial_type","trial_index","time_elapsed","internal_node_id","swb_1","swb_2","swb_3","swb_4","swb_5","LOT_1","LOT_2","LOT_3","LOT_4","LOT_5","LOT_6","IPC_1","IPC_2","IPC_3","IPC_4","IPC_5","IPC_6","IPC_7","IPC_8","MorIden_1","MorIden_2","MorIden_3","MorIden_4","MorIden_5","MorIden_6","MorIden_7","MorIden_8","MorIden_9","MorIden_10","moralSeImag_1","moralSeImag_2","moralSeImag_3","moralSeImag_4","moralSeImag_5","moralSeImag_6","moralSeImag_7","moralSeImag_8","moralSeImag_9","sde_1","sde_2","sde_3","sde_4","sde_5","sde_6","sde_7","sde_8","sde_9","sde_10","trap2","sde_11","sde_12","sde_13","sde_14","sde_15","sde_16","sde_17","sde_18","sde_19","sde_20","IM_1","IM_2","IM_3","IM_4","IM_5","IM_6","IM_7","IM_8","IM_9","IM_10","IM_11","IM_12","IM_13","IM_14","IM_15","IM_16","IM_17","IM_18","IM_19","IM_20","subj_idx","friend_name","ParticipantID","Sex","Word","Word2","value","success","timeout","failed_images","failed_audio","failed_video","user_agent","responses","item_order","radio_event_ids","radio_event_times","key_event_times","mouse_event_times","straightlining","zigzagging","honeypot","task_id","screen_id","time_stamp","response_type","key_press","avg_frame_time","center_x","center_y","person","word","valence","domain","math","correct_response","correct","status","identity","view_history","duration","Image","condition","question_order","trap2_item"
"1506","
   <p><div style='color:white; font-size: 25px'>您好，欢迎参加本次实验。</div></p>
   <p><div style='color:white; font-size: 25px'>为充分保障您的权利，请确保您已经知晓并同意《参与实验同意书》以及《数据公开知情同意书》。</div></p>
   <p><div style='color:white; font-size: 25px'>如果您未见过上述内容，请咨询实验员。</div></p>
   <p style='color:white; font-size: 25px'>如果您选择继续实验，则表示您已经清楚两份知情同意书的内容并同意。</p>
   <p><div style = ""color: pink;font-size:30px;"">请确保您记得day0的实验编号，您将在本次实验输入该编号，若您忘记，请咨询实验员后作答。</div></p>
   <p><div style = ""color:lightblue;font-size:25px;"">请您尽可能认真地作答，我们将依据您在各问卷和按键任务中的作答质量发放报酬。</div></p>
   <p> <div style = ""color: green""><按空格键至下页></div> </p>
   "," ","html-keyboard-response","0","1509","0.0-0.0","4","4","3","3","1","5","2","3","5","5","5","2","0","0","-1","-1","0","0","2","5","5","5","4","3","4","3","3","2","3","5","4","4","7","4","3","5","5","7","7","3","1","3","5","1","7","1","3","3","4","3","1","5","7","5","1","3","7","5","1","1","4","3","2","6","4","6","7","7","7","3","7","7","2","1","7","3","7","1","7","796080806387916801","胡","440","Male","[""坏我"",""好他"",""好我"",""坏他""]","[""弱我"",""强他"",""强我"",""弱他""]","","","","","","","","","","","","","","","","","","","","","","","","","","","","","","","","","","","","","","",""
"","","","call-function","1","1509","0.0-1.0-0.0","4","4","3","3","1","5","2","3","5","5","5","2","0","0","-1","-1","0","0","2","5","5","5","4","3","4","3","3","2","3","5","4","4","7","4","3","5","5","7","7","3","1","3","5","1","7","1","3","3","4","3","1","5","7","5","1","3","7","5","1","1","4","3","2","6","4","6","7","7","7","3","7","7","2","1","7","3","7","1","7","796080806387916801","胡","440","Male","[""坏我"",""好他"",""好我"",""坏他""]","[""弱我"",""强他"",""强我"",""弱他""]","","","","","","","","","","","","","","","","","","","","","","","","","","","","","","","","","","","","","","",""
"19289","","[{""name"":""Sex"",""value"":""0""},{""name"":""friend_name"",""value"":""胡""},{""name"":""ParticipantID"",""value"":""440""}]","survey-html-form","2","20799","0.0-1.0-1.0","4","4","3","3","1","5","2","3","5","5","5","2","0","0","-1","-1","0","0","2","5","5","5","4","3","4","3","3","2","3","5","4","4","7","4","3","5","5","7","7","3","1","3","5","1","7","1","3","3","4","3","1","5","7","5","1","3","7","5","1","1","4","3","2","6","4","6","7","7","7","3","7","7","2","1","7","3","7","1","7","796080806387916801","胡","440","Male","[""坏我"",""好他"",""好我"",""坏他""]","[""弱我"",""强他"",""强我"",""弱他""]","","","","","","","","","","","","","","","","","","","","","","","","","","","","","","","","","","","","","","",""
"","","","preload","3","21472","0.0-2.0","4","4","3","3","1","5","2","3","5","5","5","2","0","0","-1","-1","0","0","2","5","5","5","4","3","4","3","3","2","3","5","4","4","7","4","3","5","5","7","7","3","1","3","5","1","7","1","3","3","4","3","1","5","7","5","1","3","7","5","1","1","4","3","2","6","4","6","7","7","7","3","7","7","2","1","7","3","7","1","7","796080806387916801","胡","440","Male","[""坏我"",""好他"",""好我"",""坏他""]","[""弱我"",""强他"",""强我"",""弱他""]","","true","false","[]","[]","[]","","","","","","","","","","","","","","","","","","","","","","","","","","","","","","","","",""
"","","","fullscreen","4","22927","0.0-3.0","4","4","3","3","1","5","2","3","5","5","5","2","0","0","-1","-1","0","0","2","5","5","5","4","3","4","3","3","2","3","5","4","4","7","4","3","5","5","7","7","3","1","3","5","1","7","1","3","3","4","3","1","5","7","5","1","3","7","5","1","1","4","3","2","6","4","6","7","7","7","3","7","7","2","1","7","3","7","1","7","796080806387916801","胡","440","Male","[""坏我"",""好他"",""好我"",""坏他""]","[""弱我"",""强他"",""强我"",""弱他""]","","true","","","","","{}","","","","","","","","","","","","","","","","","","","","","","","","","","","","","","","",""
"18726.19999998808","","{""Q01"":""4"",""Q02"":""4"",""Q03"":""3"",""Q04"":""3"",""Q05"":""1""}","survey-template","5","41655","0.0-4.0","4","4","3","3","1","5","2","3","5","5","5","2","0","0","-1","-1","0","0","2","5","5","5","4","3","4","3","3","2","3","5","4","4","7","4","3","5","5","7","7","3","1","3","5","1","7","1","3","3","4","3","1","5","7","5","1","3","7","5","1","1","4","3","2","6","4","6","7","7","7","3","7","7","2","1","7","3","7","1","7","796080806387916801","胡","440","Male","[""坏我"",""好他"",""好我"",""坏他""]","[""弱我"",""强他"",""强我"",""弱他""]","","","","","","","","{""Q01"":""4"",""Q02"":""4"",""Q03"":""3"",""Q04"":""3"",""Q05"":""1""}","[0,1,2,3,4]","[""Q01"",""Q02"",""Q03"",""Q04"",""Q05""]","[5773.5,8117.5,12781.5,14541.399999976158,17925.399999976158]","[]","[5773.5,8117.5,12781.5,14541.399999976158,17925.399999976158,18725.399999976158]","0.4","0.25","0","","","","","","","","","","","","","","","","","","","","","","",""
"21188.80000001192","","{""Q01"":""5"",""Q02"":""2"",""Q03"":""3"",""Q04"":""5"",""Q05"":""5"",""Q06"":""5""}","survey-template","6","62847","0.0-5.0","4","4","3","3","1","5","2","3","5","5","5","2","0","0","-1","-1","0","0","2","5","5","5","4","3","4","3","3","2","3","5","4","4","7","4","3","5","5","7","7","3","1","3","5","1","7","1","3","3","4","3","1","5","7","5","1","3","7","5","1","1","4","3","2","6","4","6","7","7","7","3","7","7","2","1","7","3","7","1","7","796080806387916801","胡","440","Male","[""坏我"",""好他"",""好我"",""坏他""]","[""弱我"",""强他"",""强我"",""弱他""]","","","","","","","","{""Q01"":""5"",""Q02"":""2"",""Q03"":""3"",""Q04"":""5"",""Q05"":""5"",""Q06"":""5""}","[0,1,2,3,4,5]","[""Q01"",""Q02"",""Q03"",""Q04"",""Q05"",""Q06""]","[4916.199999988079,7820.0999999940395,11892.300000011921,15924.800000011921,17156.19999998808,20540.30000001192]","[]","[3860.199999988079,4916.199999988079,7820.0999999940395,11332.09999999404,11892.300000011921,15924.800000011921,17156.19999998808,20540.30000001192,21188.19999998808]","0.3333333333333333","0.6","0","","","","","","","","","","","","","","","","","","","","","","",""
"26741.59999999404","","{""Q01"":""2"",""Q02"":""0"",""Q03"":""0"",""Q04"":""-1"",""Q05"":""-1"",""Q06"":""0"",""Q07"":""0"",""Q08"":""2""}","survey-template","7","89591","0.0-6.0","4","4","3","3","1","5","2","3","5","5","5","2","0","0","-1","-1","0","0","2","5","5","5","4","3","4","3","3","2","3","5","4","4","7","4","3","5","5","7","7","3","1","3","5","1","7","1","3","3","4","3","1","5","7","5","1","3","7","5","1","1","4","3","2","6","4","6","7","7","7","3","7","7","2","1","7","3","7","1","7","796080806387916801","胡","440","Male","[""坏我"",""好他"",""好我"",""坏他""]","[""弱我"",""强他"",""强我"",""弱他""]","","","","","","","","{""Q01"":""2"",""Q02"":""0"",""Q03"":""0"",""Q04"":""-1"",""Q05"":""-1"",""Q06"":""0"",""Q07"":""0"",""Q08"":""2""}","[0,1,2,3,4,5,6,7]","[""Q01"",""Q02"",""Q03"",""Q04"",""Q05"",""Q06"",""Q07"",""Q08""]","[3284.5999999940395,7292.699999988079,15628.59999999404,16876.5,18749.19999998808,20836.40000000596,23876.5,26148.69999998808]","[]","[3284.5999999940395,7292.699999988079,13012.699999988079,15628.59999999404,16876.5,18749.19999998808,20836.40000000596,23876.5,26148.69999998808,26740.69999998808]","0.5","0.2857142857142857","0","","","","","","","","","","","","","","","","","","","","","","",""
"8605","
    <p><div style='color:white;font-size:35px; line-height:20px;'>词汇评估任务</div></p><br>
    <p><div style='color:white;font-size:25px; line-height:20px;'>请再次回忆该亲密的朋友，你们至少2年前就认识了，并且最近2年经常见面。</div></p>
    <p><div style='color:white;font-size:25px; line-height:20px;'>在本实验中，您将会看到一些形容词。</div></p>
    <p><div style='color:yellow;font-size:25px; line-height:20px;'>您的任务是判断这些形容词是否符合对您自己或您的朋友的描述。</div></p><p style='font-size:35px'>符合按<span style=""color:lightgreen""> f 键</span>，不符合按<span style=""color:red""> j 键</span></p>","0","html-button-response","8","98198","0.0-7.0-0.0","4","4","3","3","1","5","2","3","5","5","5","2","0","0","-1","-1","0","0","2","5","5","5","4","3","4","3","3","2","3","5","4","4","7","4","3","5","5","7","7","3","1","3","5","1","7","1","3","3","4","3","1","5","7","5","1","3","7","5","1","1","4","3","2","6","4","6","7","7","7","3","7","7","2","1","7","3","7","1","7","796080806387916801","胡","440","Male","[""坏我"",""好他"",""好我"",""坏他""]","[""弱我"",""强他"",""强我"",""弱他""]","","","","","","","","","","","","","","","","","SRET_EW","EW_instructions","Wed Jan 10 2024 18:49:26 GMT+0800 (中国标准时间)","","","","","","","","","","","","","","","","","","","",""
"1209","","f","psychophysics","9","100410","0.0-7.0-1.0-0.0","4","4","3","3","1","5","2","3","5","5","5","2","0","0","-1","-1","0","0","2","5","5","5","4","3","4","3","3","2","3","5","4","4","7","4","3","5","5","7","7","3","1","3","5","1","7","1","3","3","4","3","1","5","7","5","1","3","7","5","1","1","4","3","2","6","4","6","7","7","7","3","7","7","2","1","7","3","7","1","7","796080806387916801","胡","440","Male","[""坏我"",""好他"",""好我"",""坏他""]","[""弱我"",""强他"",""强我"",""弱他""]","","","","","","","","yes","","","","","","","","","SRET_EW","EW_practice","","key","f","6.939622641509443","768","428","朋友","忠实","Positive","morality","","","","","","","","","","",""
"587","","f","psychophysics","10","101998","0.0-7.0-1.0-0.1","4","4","3","3","1","5","2","3","5","5","5","2","0","0","-1","-1","0","0","2","5","5","5","4","3","4","3","3","2","3","5","4","4","7","4","3","5","5","7","7","3","1","3","5","1","7","1","3","3","4","3","1","5","7","5","1","3","7","5","1","1","4","3","2","6","4","6","7","7","7","3","7","7","2","1","7","3","7","1","7","796080806387916801","胡","440","Male","[""坏我"",""好他"",""好我"",""坏他""]","[""弱我"",""强他"",""强我"",""弱他""]","","","","","","","","yes","","","","","","","","","SRET_EW","EW_practice","","key","f","6.942982456140351","768","428","自己","严谨","Positive","ability","","","","","","","","","","",""
"1016","","f","psychophysics","11","104016","0.0-7.0-1.0-0.2","4","4","3","3","1","5","2","3","5","5","5","2","0","0","-1","-1","0","0","2","5","5","5","4","3","4","3","3","2","3","5","4","4","7","4","3","5","5","7","7","3","1","3","5","1","7","1","3","3","4","3","1","5","7","5","1","3","7","5","1","1","4","3","2","6","4","6","7","7","7","3","7","7","2","1","7","3","7","1","7","796080806387916801","胡","440","Male","[""坏我"",""好他"",""好我"",""坏他""]","[""弱我"",""强他"",""强我"",""弱他""]","","","","","","","","yes","","","","","","","","","SRET_EW","EW_practice","","key","f","6.943793103448265","768","428","朋友","徇私","Negative","morality","","","","","","","","","","",""
"1004","","j","psychophysics","12","106021","0.0-7.0-1.0-0.3","4","4","3","3","1","5","2","3","5","5","5","2","0","0","-1","-1","0","0","2","5","5","5","4","3","4","3","3","2","3","5","4","4","7","4","3","5","5","7","7","3","1","3","5","1","7","1","3","3","4","3","1","5","7","5","1","3","7","5","1","1","4","3","2","6","4","6","7","7","7","3","7","7","2","1","7","3","7","1","7","796080806387916801","胡","440","Male","[""坏我"",""好他"",""好我"",""坏他""]","[""弱我"",""强他"",""强我"",""弱他""]","","","","","","","","no","","","","","","","","","SRET_EW","EW_practice","","key","j","6.94390243902437","768","428","自己","刻板","Negative","ability","","","","","","","","","","",""
"4872","
    <p><div style='color:white;font-size:35px; line-height:20px;'>请您再次阅读实验要求</div></p><br>
    <p><div style='color:white;font-size:25px; line-height:20px;'>请回忆某一个亲密的朋友，你们至少2年前就认识了，并且最近2年经常见面。</div></p>
    <p><div style='color:white;font-size:25px; line-height:20px;'>在本实验中，您将会看到一些形容词。</div></p>
    <p><div style='color:yellow;font-size:25px; line-height:20px;'>您的任务是判断这些形容词是否符合对您自己或您的朋友的描述。</div></p>
    <p><div class='footer' style='font-size:25px; line-height:20px;'>如果对本实验还有不清楚之处，请立即向实验员咨询。</p><p style='font-size:25px; line-height:20px;'>如果您明白了规则：</p><p style='font-size:22px; line-height:20px;'>请按 继续 进入正式实验</p>
    </div>
    <p style='font-size:35px'>符合按<span style=""color:lightgreen""> f 键</span>，不符合按<span style=""color:red""> j 键</span></p>","0","html-button-response","13","110894","0.0-7.0-2.0","4","4","3","3","1","5","2","3","5","5","5","2","0","0","-1","-1","0","0","2","5","5","5","4","3","4","3","3","2","3","5","4","4","7","4","3","5","5","7","7","3","1","3","5","1","7","1","3","3","4","3","1","5","7","5","1","3","7","5","1","1","4","3","2","6","4","6","7","7","7","3","7","7","2","1","7","3","7","1","7","796080806387916801","胡","440","Male","[""坏我"",""好他"",""好我"",""坏他""]","[""弱我"",""强他"",""强我"",""弱他""]","","","","","","","","","","","","","","","","","SRET_EW","prac_instructions","Wed Jan 10 2024 18:49:26 GMT+0800 (中国标准时间)","","","","","","","","","","","","","","","","","","","",""
"1316","","j","psychophysics","14","113211","0.0-7.0-3.0-0.0","4","4","3","3","1","5","2","3","5","5","5","2","0","0","-1","-1","0","0","2","5","5","5","4","3","4","3","3","2","3","5","4","4","7","4","3","5","5","7","7","3","1","3","5","1","7","1","3","3","4","3","1","5","7","5","1","3","7","5","1","1","4","3","2","6","4","6","7","7","7","3","7","7","2","1","7","3","7","1","7","796080806387916801","胡","440","Male","[""坏我"",""好他"",""好我"",""坏他""]","[""弱我"",""强他"",""强我"",""弱他""]","","","","","","","","no","","","","","","","","","SRET","EW_formal","","key","j","6.975903614457831","768","428","朋友","迷糊","Negative","ability","","","","","","","","","","",""
"814","","f","psychophysics","15","115025","0.0-7.0-3.0-0.1","4","4","3","3","1","5","2","3","5","5","5","2","0","0","-1","-1","0","0","2","5","5","5","4","3","4","3","3","2","3","5","4","4","7","4","3","5","5","7","7","3","1","3","5","1","7","1","3","3","4","3","1","5","7","5","1","3","7","5","1","1","4","3","2","6","4","6","7","7","7","3","7","7","2","1","7","3","7","1","7","796080806387916801","胡","440","Male","[""坏我"",""好他"",""好我"",""坏他""]","[""弱我"",""强他"",""强我"",""弱他""]","","","","","","","","yes","","","","","","","","","SRET","EW_formal","","key","f","6.943295019157077","768","428","自己","坚贞","Positive","morality","","","","","","","","","","",""
"918","","f","psychophysics","16","116944","0.0-7.0-3.0-0.2","4","4","3","3","1","5","2","3","5","5","5","2","0","0","-1","-1","0","0","2","5","5","5","4","3","4","3","3","2","3","5","4","4","7","4","3","5","5","7","7","3","1","3","5","1","7","1","3","3","4","3","1","5","7","5","1","3","7","5","1","1","4","3","2","6","4","6","7","7","7","3","7","7","2","1","7","3","7","1","7","796080806387916801","胡","440","Male","[""坏我"",""好他"",""好我"",""坏他""]","[""弱我"",""强他"",""强我"",""弱他""]","","","","","","","","yes","","","","","","","","","SRET","EW_formal","","key","f","6.943999999999968","768","428","朋友","务实","Positive","ability","","","","","","","","","","",""
"927","","j","psychophysics","17","118873","0.0-7.0-3.0-0.3","4","4","3","3","1","5","2","3","5","5","5","2","0","0","-1","-1","0","0","2","5","5","5","4","3","4","3","3","2","3","5","4","4","7","4","3","5","5","7","7","3","1","3","5","1","7","1","3","3","4","3","1","5","7","5","1","3","7","5","1","1","4","3","2","6","4","6","7","7","7","3","7","7","2","1","7","3","7","1","7","796080806387916801","胡","440","Male","[""坏我"",""好他"",""好我"",""坏他""]","[""弱我"",""强他"",""强我"",""弱他""]","","","","","","","","no","","","","","","","","","SRET","EW_formal","","key","j","6.943682310469345","768","428","自己","说谎","Negative","morality","","","","","","","","","","",""
"863","","f","psychophysics","18","120737","0.0-7.0-3.0-0.4","4","4","3","3","1","5","2","3","5","5","5","2","0","0","-1","-1","0","0","2","5","5","5","4","3","4","3","3","2","3","5","4","4","7","4","3","5","5","7","7","3","1","3","5","1","7","1","3","3","4","3","1","5","7","5","1","3","7","5","1","1","4","3","2","6","4","6","7","7","7","3","7","7","2","1","7","3","7","1","7","796080806387916801","胡","440","Male","[""坏我"",""好他"",""好我"",""坏他""]","[""弱我"",""强他"",""强我"",""弱他""]","","","","","","","","yes","","","","","","","","","SRET","EW_formal","","key","f","6.9434456928838735","768","428","朋友","沉着","Positive","ability","","","","","","","","","","",""
"1172","","f","psychophysics","19","122910","0.0-7.0-3.0-0.5","4","4","3","3","1","5","2","3","5","5","5","2","0","0","-1","-1","0","0","2","5","5","5","4","3","4","3","3","2","3","5","4","4","7","4","3","5","5","7","7","3","1","3","5","1","7","1","3","3","4","3","1","5","7","5","1","3","7","5","1","1","4","3","2","6","4","6","7","7","7","3","7","7","2","1","7","3","7","1","7","796080806387916801","胡","440","Male","[""坏我"",""好他"",""好我"",""坏他""]","[""弱我"",""强他"",""强我"",""弱他""]","","","","","","","","yes","","","","","","","","","SRET","EW_formal","","key","f","6.943589743589771","768","428","朋友","拖延","Negative","ability","","","","","","","","","","",""
"950","","j","psychophysics","20","124861","0.0-7.0-3.0-0.6","4","4","3","3","1","5","2","3","5","5","5","2","0","0","-1","-1","0","0","2","5","5","5","4","3","4","3","3","2","3","5","4","4","7","4","3","5","5","7","7","3","1","3","5","1","7","1","3","3","4","3","1","5","7","5","1","3","7","5","1","1","4","3","2","6","4","6","7","7","7","3","7","7","2","1","7","3","7","1","7","796080806387916801","胡","440","Male","[""坏我"",""好他"",""好我"",""坏他""]","[""弱我"",""强他"",""强我"",""弱他""]","","","","","","","","no","","","","","","","","","SRET","EW_formal","","key","j","6.943928571428581","768","428","朋友","独断","Negative","ability","","","","","","","","","","",""
"1168","","j","psychophysics","21","127030","0.0-7.0-3.0-0.7","4","4","3","3","1","5","2","3","5","5","5","2","0","0","-1","-1","0","0","2","5","5","5","4","3","4","3","3","2","3","5","4","4","7","4","3","5","5","7","7","3","1","3","5","1","7","1","3","3","4","3","1","5","7","5","1","3","7","5","1","1","4","3","2","6","4","6","7","7","7","3","7","7","2","1","7","3","7","1","7","796080806387916801","胡","440","Male","[""坏我"",""好他"",""好我"",""坏他""]","[""弱我"",""强他"",""强我"",""弱他""]","","","","","","","","no","","","","","","","","","SRET","EW_formal","","key","j","6.943589743589725","768","428","自己","博识","Positive","ability","","","","","","","","","","",""
"1215","","f","psychophysics","22","129246","0.0-7.0-3.0-0.8","4","4","3","3","1","5","2","3","5","5","5","2","0","0","-1","-1","0","0","2","5","5","5","4","3","4","3","3","2","3","5","4","4","7","4","3","5","5","7","7","3","1","3","5","1","7","1","3","3","4","3","1","5","7","5","1","3","7","5","1","1","4","3","2","6","4","6","7","7","7","3","7","7","2","1","7","3","7","1","7","796080806387916801","胡","440","Male","[""坏我"",""好他"",""好我"",""坏他""]","[""弱我"",""强他"",""强我"",""弱他""]","","","","","","","","yes","","","","","","","","","SRET","EW_formal","","key","f","6.94339622641514","768","428","自己","勤奋","Positive","ability","","","","","","","","","","",""
"941","","j","psychophysics","23","131190","0.0-7.0-3.0-0.9","4","4","3","3","1","5","2","3","5","5","5","2","0","0","-1","-1","0","0","2","5","5","5","4","3","4","3","3","2","3","5","4","4","7","4","3","5","5","7","7","3","1","3","5","1","7","1","3","3","4","3","1","5","7","5","1","3","7","5","1","1","4","3","2","6","4","6","7","7","7","3","7","7","2","1","7","3","7","1","7","796080806387916801","胡","440","Male","[""坏我"",""好他"",""好我"",""坏他""]","[""弱我"",""强他"",""强我"",""弱他""]","","","","","","","","no","","","","","","","","","SRET","EW_formal","","key","j","6.943369175627177","768","428","朋友","歹毒","Negative","morality","","","","","","","","","","",""
"1249","","f","psychophysics","24","133439","0.0-7.0-3.0-0.10","4","4","3","3","1","5","2","3","5","5","5","2","0","0","-1","-1","0","0","2","5","5","5","4","3","4","3","3","2","3","5","4","4","7","4","3","5","5","7","7","3","1","3","5","1","7","1","3","3","4","3","1","5","7","5","1","3","7","5","1","1","4","3","2","6","4","6","7","7","7","3","7","7","2","1","7","3","7","1","7","796080806387916801","胡","440","Male","[""坏我"",""好他"",""好我"",""坏他""]","[""弱我"",""强他"",""强我"",""弱他""]","","","","","","","","yes","","","","","","","","","SRET","EW_formal","","key","f","6.94334365325081","768","428","自己","犹豫","Negative","ability","","","","","","","","","","",""
"null","","null","psychophysics","25","136441","0.0-7.0-3.0-0.11","4","4","3","3","1","5","2","3","5","5","5","2","0","0","-1","-1","0","0","2","5","5","5","4","3","4","3","3","2","3","5","4","4","7","4","3","5","5","7","7","3","1","3","5","1","7","1","3","3","4","3","1","5","7","5","1","3","7","5","1","1","4","3","2","6","4","6","7","7","7","3","7","7","2","1","7","3","7","1","7","796080806387916801","胡","440","Male","[""坏我"",""好他"",""好我"",""坏他""]","[""弱我"",""强他"",""强我"",""弱他""]","","","","","","","","","","","","","","","","","SRET","EW_formal","","key","null","6.943619489559124","768","428","自己","有力","Positive","ability","","","","","","","","","","",""
"752","","j","psychophysics","26","138194","0.0-7.0-3.0-0.12","4","4","3","3","1","5","2","3","5","5","5","2","0","0","-1","-1","0","0","2","5","5","5","4","3","4","3","3","2","3","5","4","4","7","4","3","5","5","7","7","3","1","3","5","1","7","1","3","3","4","3","1","5","7","5","1","3","7","5","1","1","4","3","2","6","4","6","7","7","7","3","7","7","2","1","7","3","7","1","7","796080806387916801","胡","440","Male","[""坏我"",""好他"",""好我"",""坏他""]","[""弱我"",""强他"",""强我"",""弱他""]","","","","","","","","no","","","","","","","","","SRET","EW_formal","","key","j","6.943824701195196","768","428","朋友","不孝","Negative","morality","","","","","","","","","","",""
"1071","","j","psychophysics","27","140266","0.0-7.0-3.0-0.13","4","4","3","3","1","5","2","3","5","5","5","2","0","0","-1","-1","0","0","2","5","5","5","4","3","4","3","3","2","3","5","4","4","7","4","3","5","5","7","7","3","1","3","5","1","7","1","3","3","4","3","1","5","7","5","1","3","7","5","1","1","4","3","2","6","4","6","7","7","7","3","7","7","2","1","7","3","7","1","7","796080806387916801","胡","440","Male","[""坏我"",""好他"",""好我"",""坏他""]","[""弱我"",""强他"",""强我"",""弱他""]","","","","","","","","no","","","","","","","","","SRET","EW_formal","","key","j","6.943624161073864","768","428","朋友","敏捷","Positive","ability","","","","","","","","","","",""
"850","","f","psychophysics","28","142117","0.0-7.0-3.0-0.14","4","4","3","3","1","5","2","3","5","5","5","2","0","0","-1","-1","0","0","2","5","5","5","4","3","4","3","3","2","3","5","4","4","7","4","3","5","5","7","7","3","1","3","5","1","7","1","3","3","4","3","1","5","7","5","1","3","7","5","1","1","4","3","2","6","4","6","7","7","7","3","7","7","2","1","7","3","7","1","7","796080806387916801","胡","440","Male","[""坏我"",""好他"",""好我"",""坏他""]","[""弱我"",""强他"",""强我"",""弱他""]","","","","","","","","yes","","","","","","","","","SRET","EW_formal","","key","f","6.943396226415095","768","428","自己","刚正","Positive","morality","","","","","","","","","","",""
"730","","j","psychophysics","29","143848","0.0-7.0-3.0-0.15","4","4","3","3","1","5","2","3","5","5","5","2","0","0","-1","-1","0","0","2","5","5","5","4","3","4","3","3","2","3","5","4","4","7","4","3","5","5","7","7","3","1","3","5","1","7","1","3","3","4","3","1","5","7","5","1","3","7","5","1","1","4","3","2","6","4","6","7","7","7","3","7","7","2","1","7","3","7","1","7","796080806387916801","胡","440","Male","[""坏我"",""好他"",""好我"",""坏他""]","[""弱我"",""强他"",""强我"",""弱他""]","","","","","","","","no","","","","","","","","","SRET","EW_formal","","key","j","6.94337349397588","768","428","自己","庸碌","Negative","ability","","","","","","","","","","",""
"912","","f","psychophysics","30","145761","0.0-7.0-3.0-0.16","4","4","3","3","1","5","2","3","5","5","5","2","0","0","-1","-1","0","0","2","5","5","5","4","3","4","3","3","2","3","5","4","4","7","4","3","5","5","7","7","3","1","3","5","1","7","1","3","3","4","3","1","5","7","5","1","3","7","5","1","1","4","3","2","6","4","6","7","7","7","3","7","7","2","1","7","3","7","1","7","796080806387916801","胡","440","Male","[""坏我"",""好他"",""好我"",""坏他""]","[""弱我"",""强他"",""强我"",""弱他""]","","","","","","","","yes","","","","","","","","","SRET","EW_formal","","key","f","6.943065693430635","768","428","朋友","忠良","Positive","morality","","","","","","","","","","",""
"861","","j","psychophysics","31","147624","0.0-7.0-3.0-0.17","4","4","3","3","1","5","2","3","5","5","5","2","0","0","-1","-1","0","0","2","5","5","5","4","3","4","3","3","2","3","5","4","4","7","4","3","5","5","7","7","3","1","3","5","1","7","1","3","3","4","3","1","5","7","5","1","3","7","5","1","1","4","3","2","6","4","6","7","7","7","3","7","7","2","1","7","3","7","1","7","796080806387916801","胡","440","Male","[""坏我"",""好他"",""好我"",""坏他""]","[""弱我"",""强他"",""强我"",""弱他""]","","","","","","","","no","","","","","","","","","SRET","EW_formal","","key","j","6.943820224719101","768","428","自己","扎实","Positive","ability","","","","","","","","","","",""
"724","","j","psychophysics","32","149349","0.0-7.0-3.0-0.18","4","4","3","3","1","5","2","3","5","5","5","2","0","0","-1","-1","0","0","2","5","5","5","4","3","4","3","3","2","3","5","4","4","7","4","3","5","5","7","7","3","1","3","5","1","7","1","3","3","4","3","1","5","7","5","1","3","7","5","1","1","4","3","2","6","4","6","7","7","7","3","7","7","2","1","7","3","7","1","7","796080806387916801","胡","440","Male","[""坏我"",""好他"",""好我"",""坏他""]","[""弱我"",""强他"",""强我"",""弱他""]","","","","","","","","no","","","","","","","","","SRET","EW_formal","","key","j","6.943548387096774","768","428","朋友","草率","Negative","ability","","","","","","","","","","",""
"897","","f","psychophysics","33","151247","0.0-7.0-3.0-0.19","4","4","3","3","1","5","2","3","5","5","5","2","0","0","-1","-1","0","0","2","5","5","5","4","3","4","3","3","2","3","5","4","4","7","4","3","5","5","7","7","3","1","3","5","1","7","1","3","3","4","3","1","5","7","5","1","3","7","5","1","1","4","3","2","6","4","6","7","7","7","3","7","7","2","1","7","3","7","1","7","796080806387916801","胡","440","Male","[""坏我"",""好他"",""好我"",""坏他""]","[""弱我"",""强他"",""强我"",""弱他""]","","","","","","","","yes","","","","","","","","","SRET","EW_formal","","key","f","6.943749999999936","768","428","自己","忠诚","Positive","morality","","","","","","","","","","",""
"669","","j","psychophysics","34","152916","0.0-7.0-3.0-0.20","4","4","3","3","1","5","2","3","5","5","5","2","0","0","-1","-1","0","0","2","5","5","5","4","3","4","3","3","2","3","5","4","4","7","4","3","5","5","7","7","3","1","3","5","1","7","1","3","3","4","3","1","5","7","5","1","3","7","5","1","1","4","3","2","6","4","6","7","7","7","3","7","7","2","1","7","3","7","1","7","796080806387916801","胡","440","Male","[""坏我"",""好他"",""好我"",""坏他""]","[""弱我"",""强他"",""强我"",""弱他""]","","","","","","","","no","","","","","","","","","SRET","EW_formal","","key","j","6.943333333333309","768","428","自己","浅薄","Negative","ability","","","","","","","","","","",""
"864","","f","psychophysics","35","154783","0.0-7.0-3.0-0.21","4","4","3","3","1","5","2","3","5","5","5","2","0","0","-1","-1","0","0","2","5","5","5","4","3","4","3","3","2","3","5","4","4","7","4","3","5","5","7","7","3","1","3","5","1","7","1","3","3","4","3","1","5","7","5","1","3","7","5","1","1","4","3","2","6","4","6","7","7","7","3","7","7","2","1","7","3","7","1","7","796080806387916801","胡","440","Male","[""坏我"",""好他"",""好我"",""坏他""]","[""弱我"",""强他"",""强我"",""弱他""]","","","","","","","","yes","","","","","","","","","SRET","EW_formal","","key","f","6.943820224719101","768","428","自己","诚信","Positive","morality","","","","","","","","","","",""
"1028","","j","psychophysics","36","156813","0.0-7.0-3.0-0.22","4","4","3","3","1","5","2","3","5","5","5","2","0","0","-1","-1","0","0","2","5","5","5","4","3","4","3","3","2","3","5","4","4","7","4","3","5","5","7","7","3","1","3","5","1","7","1","3","3","4","3","1","5","7","5","1","3","7","5","1","1","4","3","2","6","4","6","7","7","7","3","7","7","2","1","7","3","7","1","7","796080806387916801","胡","440","Male","[""坏我"",""好他"",""好我"",""坏他""]","[""弱我"",""强他"",""强我"",""弱他""]","","","","","","","","no","","","","","","","","","SRET","EW_formal","","key","j","6.943835616438376","768","428","朋友","细心","Positive","ability","","","","","","","","","","",""
"595","","f","psychophysics","37","158410","0.0-7.0-3.0-0.23","4","4","3","3","1","5","2","3","5","5","5","2","0","0","-1","-1","0","0","2","5","5","5","4","3","4","3","3","2","3","5","4","4","7","4","3","5","5","7","7","3","1","3","5","1","7","1","3","3","4","3","1","5","7","5","1","3","7","5","1","1","4","3","2","6","4","6","7","7","7","3","7","7","2","1","7","3","7","1","7","796080806387916801","胡","440","Male","[""坏我"",""好他"",""好我"",""坏他""]","[""弱我"",""强他"",""强我"",""弱他""]","","","","","","","","yes","","","","","","","","","SRET","EW_formal","","key","f","6.943231441048035","768","428","朋友","侠义","Positive","morality","","","","","","","","","","",""
"896","","j","psychophysics","38","160306","0.0-7.0-3.0-0.24","4","4","3","3","1","5","2","3","5","5","5","2","0","0","-1","-1","0","0","2","5","5","5","4","3","4","3","3","2","3","5","4","4","7","4","3","5","5","7","7","3","1","3","5","1","7","1","3","3","4","3","1","5","7","5","1","3","7","5","1","1","4","3","2","6","4","6","7","7","7","3","7","7","2","1","7","3","7","1","7","796080806387916801","胡","440","Male","[""坏我"",""好他"",""好我"",""坏他""]","[""弱我"",""强他"",""强我"",""弱他""]","","","","","","","","no","","","","","","","","","SRET","EW_formal","","key","j","6.943014705882353","768","428","自己","畏难","Negative","ability","","","","","","","","","","",""
"899","","j","psychophysics","39","162208","0.0-7.0-3.0-0.25","4","4","3","3","1","5","2","3","5","5","5","2","0","0","-1","-1","0","0","2","5","5","5","4","3","4","3","3","2","3","5","4","4","7","4","3","5","5","7","7","3","1","3","5","1","7","1","3","3","4","3","1","5","7","5","1","3","7","5","1","1","4","3","2","6","4","6","7","7","7","3","7","7","2","1","7","3","7","1","7","796080806387916801","胡","440","Male","[""坏我"",""好他"",""好我"",""坏他""]","[""弱我"",""强他"",""强我"",""弱他""]","","","","","","","","no","","","","","","","","","SRET","EW_formal","","key","j","6.944688644688624","768","428","自己","淫乱","Negative","morality","","","","","","","","","","",""
"717","","j","psychophysics","40","163927","0.0-7.0-3.0-0.26","4","4","3","3","1","5","2","3","5","5","5","2","0","0","-1","-1","0","0","2","5","5","5","4","3","4","3","3","2","3","5","4","4","7","4","3","5","5","7","7","3","1","3","5","1","7","1","3","3","4","3","1","5","7","5","1","3","7","5","1","1","4","3","2","6","4","6","7","7","7","3","7","7","2","1","7","3","7","1","7","796080806387916801","胡","440","Male","[""坏我"",""好他"",""好我"",""坏他""]","[""弱我"",""强他"",""强我"",""弱他""]","","","","","","","","no","","","","","","","","","SRET","EW_formal","","key","j","6.943495934959255","768","428","自己","低劣","Negative","morality","","","","","","","","","","",""
"668","","f","psychophysics","41","165596","0.0-7.0-3.0-0.27","4","4","3","3","1","5","2","3","5","5","5","2","0","0","-1","-1","0","0","2","5","5","5","4","3","4","3","3","2","3","5","4","4","7","4","3","5","5","7","7","3","1","3","5","1","7","1","3","3","4","3","1","5","7","5","1","3","7","5","1","1","4","3","2","6","4","6","7","7","7","3","7","7","2","1","7","3","7","1","7","796080806387916801","胡","440","Male","[""坏我"",""好他"",""好我"",""坏他""]","[""弱我"",""强他"",""强我"",""弱他""]","","","","","","","","yes","","","","","","","","","SRET","EW_formal","","key","f","6.94375","768","428","朋友","善良","Positive","morality","","","","","","","","","","",""
"929","","j","psychophysics","42","167526","0.0-7.0-3.0-0.28","4","4","3","3","1","5","2","3","5","5","5","2","0","0","-1","-1","0","0","2","5","5","5","4","3","4","3","3","2","3","5","4","4","7","4","3","5","5","7","7","3","1","3","5","1","7","1","3","3","4","3","1","5","7","5","1","3","7","5","1","1","4","3","2","6","4","6","7","7","7","3","7","7","2","1","7","3","7","1","7","796080806387916801","胡","440","Male","[""坏我"",""好他"",""好我"",""坏他""]","[""弱我"",""强他"",""强我"",""弱他""]","","","","","","","","no","","","","","","","","","SRET","EW_formal","","key","j","6.9433212996389475","768","428","自己","拖拉","Negative","ability","","","","","","","","","","",""
"1567","","j","psychophysics","43","170095","0.0-7.0-3.0-0.29","4","4","3","3","1","5","2","3","5","5","5","2","0","0","-1","-1","0","0","2","5","5","5","4","3","4","3","3","2","3","5","4","4","7","4","3","5","5","7","7","3","1","3","5","1","7","1","3","3","4","3","1","5","7","5","1","3","7","5","1","1","4","3","2","6","4","6","7","7","7","3","7","7","2","1","7","3","7","1","7","796080806387916801","胡","440","Male","[""坏我"",""好他"",""好我"",""坏他""]","[""弱我"",""强他"",""强我"",""弱他""]","","","","","","","","no","","","","","","","","","SRET","EW_formal","","key","j","6.943631436314394","768","428","朋友","窝囊","Negative","ability","","","","","","","","","","",""
"777","","f","psychophysics","44","171874","0.0-7.0-3.0-0.30","4","4","3","3","1","5","2","3","5","5","5","2","0","0","-1","-1","0","0","2","5","5","5","4","3","4","3","3","2","3","5","4","4","7","4","3","5","5","7","7","3","1","3","5","1","7","1","3","3","4","3","1","5","7","5","1","3","7","5","1","1","4","3","2","6","4","6","7","7","7","3","7","7","2","1","7","3","7","1","7","796080806387916801","胡","440","Male","[""坏我"",""好他"",""好我"",""坏他""]","[""弱我"",""强他"",""强我"",""弱他""]","","","","","","","","yes","","","","","","","","","SRET","EW_formal","","key","f","6.943137254901961","768","428","朋友","守信","Positive","morality","","","","","","","","","","",""
"1122","","j","psychophysics","45","173999","0.0-7.0-3.0-0.31","4","4","3","3","1","5","2","3","5","5","5","2","0","0","-1","-1","0","0","2","5","5","5","4","3","4","3","3","2","3","5","4","4","7","4","3","5","5","7","7","3","1","3","5","1","7","1","3","3","4","3","1","5","7","5","1","3","7","5","1","1","4","3","2","6","4","6","7","7","7","3","7","7","2","1","7","3","7","1","7","796080806387916801","胡","440","Male","[""坏我"",""好他"",""好我"",""坏他""]","[""弱我"",""强他"",""强我"",""弱他""]","","","","","","","","no","","","","","","","","","SRET","EW_formal","","key","j","6.943606557377011","768","428","自己","能干","Positive","ability","","","","","","","","","","",""
"1529","","f","psychophysics","46","176528","0.0-7.0-3.0-0.32","4","4","3","3","1","5","2","3","5","5","5","2","0","0","-1","-1","0","0","2","5","5","5","4","3","4","3","3","2","3","5","4","4","7","4","3","5","5","7","7","3","1","3","5","1","7","1","3","3","4","3","1","5","7","5","1","3","7","5","1","1","4","3","2","6","4","6","7","7","7","3","7","7","2","1","7","3","7","1","7","796080806387916801","胡","440","Male","[""坏我"",""好他"",""好我"",""坏他""]","[""弱我"",""强他"",""强我"",""弱他""]","","","","","","","","yes","","","","","","","","","SRET","EW_formal","","key","f","6.943526170798898","768","428","朋友","屈才","Negative","ability","","","","","","","","","","",""
"761","","f","psychophysics","47","178291","0.0-7.0-3.0-0.33","4","4","3","3","1","5","2","3","5","5","5","2","0","0","-1","-1","0","0","2","5","5","5","4","3","4","3","3","2","3","5","4","4","7","4","3","5","5","7","7","3","1","3","5","1","7","1","3","3","4","3","1","5","7","5","1","3","7","5","1","1","4","3","2","6","4","6","7","7","7","3","7","7","2","1","7","3","7","1","7","796080806387916801","胡","440","Male","[""坏我"",""好他"",""好我"",""坏他""]","[""弱我"",""强他"",""强我"",""弱他""]","","","","","","","","yes","","","","","","","","","SRET","EW_formal","","key","f","6.943083003952593","768","428","朋友","周到","Positive","ability","","","","","","","","","","",""
"603","","f","psychophysics","48","179895","0.0-7.0-3.0-0.34","4","4","3","3","1","5","2","3","5","5","5","2","0","0","-1","-1","0","0","2","5","5","5","4","3","4","3","3","2","3","5","4","4","7","4","3","5","5","7","7","3","1","3","5","1","7","1","3","3","4","3","1","5","7","5","1","3","7","5","1","1","4","3","2","6","4","6","7","7","7","3","7","7","2","1","7","3","7","1","7","796080806387916801","胡","440","Male","[""坏我"",""好他"",""好我"",""坏他""]","[""弱我"",""强他"",""强我"",""弱他""]","","","","","","","","yes","","","","","","","","","SRET","EW_formal","","key","f","6.943478260869565","768","428","朋友","勤恳","Positive","morality","","","","","","","","","","",""
"858","","f","psychophysics","49","181754","0.0-7.0-3.0-0.35","4","4","3","3","1","5","2","3","5","5","5","2","0","0","-1","-1","0","0","2","5","5","5","4","3","4","3","3","2","3","5","4","4","7","4","3","5","5","7","7","3","1","3","5","1","7","1","3","3","4","3","1","5","7","5","1","3","7","5","1","1","4","3","2","6","4","6","7","7","7","3","7","7","2","1","7","3","7","1","7","796080806387916801","胡","440","Male","[""坏我"",""好他"",""好我"",""坏他""]","[""弱我"",""强他"",""强我"",""弱他""]","","","","","","","","yes","","","","","","","","","SRET","EW_formal","","key","f","6.9434456928838735","768","428","自己","爱国","Positive","morality","","","","","","","","","","",""
"693","","j","psychophysics","50","183449","0.0-7.0-3.0-0.36","4","4","3","3","1","5","2","3","5","5","5","2","0","0","-1","-1","0","0","2","5","5","5","4","3","4","3","3","2","3","5","4","4","7","4","3","5","5","7","7","3","1","3","5","1","7","1","3","3","4","3","1","5","7","5","1","3","7","5","1","1","4","3","2","6","4","6","7","7","7","3","7","7","2","1","7","3","7","1","7","796080806387916801","胡","440","Male","[""坏我"",""好他"",""好我"",""坏他""]","[""弱我"",""强他"",""强我"",""弱他""]","","","","","","","","no","","","","","","","","","SRET","EW_formal","","key","j","6.943209876543258","768","428","朋友","缺德","Negative","morality","","","","","","","","","","",""
"802","","f","psychophysics","51","185253","0.0-7.0-3.0-0.37","4","4","3","3","1","5","2","3","5","5","5","2","0","0","-1","-1","0","0","2","5","5","5","4","3","4","3","3","2","3","5","4","4","7","4","3","5","5","7","7","3","1","3","5","1","7","1","3","3","4","3","1","5","7","5","1","3","7","5","1","1","4","3","2","6","4","6","7","7","7","3","7","7","2","1","7","3","7","1","7","796080806387916801","胡","440","Male","[""坏我"",""好他"",""好我"",""坏他""]","[""弱我"",""强他"",""强我"",""弱他""]","","","","","","","","yes","","","","","","","","","SRET","EW_formal","","key","f","6.943243243243198","768","428","自己","忠勇","Positive","morality","","","","","","","","","","",""
"1095","","j","psychophysics","52","187349","0.0-7.0-3.0-0.38","4","4","3","3","1","5","2","3","5","5","5","2","0","0","-1","-1","0","0","2","5","5","5","4","3","4","3","3","2","3","5","4","4","7","4","3","5","5","7","7","3","1","3","5","1","7","1","3","3","4","3","1","5","7","5","1","3","7","5","1","1","4","3","2","6","4","6","7","7","7","3","7","7","2","1","7","3","7","1","7","796080806387916801","胡","440","Male","[""坏我"",""好他"",""好我"",""坏他""]","[""弱我"",""强他"",""强我"",""弱他""]","","","","","","","","no","","","","","","","","","SRET","EW_formal","","key","j","6.943521594684386","768","428","自己","奸险","Negative","morality","","","","","","","","","","",""
"1108","","j","psychophysics","53","189459","0.0-7.0-3.0-0.39","4","4","3","3","1","5","2","3","5","5","5","2","0","0","-1","-1","0","0","2","5","5","5","4","3","4","3","3","2","3","5","4","4","7","4","3","5","5","7","7","3","1","3","5","1","7","1","3","3","4","3","1","5","7","5","1","3","7","5","1","1","4","3","2","6","4","6","7","7","7","3","7","7","2","1","7","3","7","1","7","796080806387916801","胡","440","Male","[""坏我"",""好他"",""好我"",""坏他""]","[""弱我"",""强他"",""强我"",""弱他""]","","","","","","","","no","","","","","","","","","SRET","EW_formal","","key","j","6.943377483443785","768","428","朋友","无助","Negative","ability","","","","","","","","","","",""
"1335","","j","psychophysics","54","191795","0.0-7.0-3.0-0.40","4","4","3","3","1","5","2","3","5","5","5","2","0","0","-1","-1","0","0","2","5","5","5","4","3","4","3","3","2","3","5","4","4","7","4","3","5","5","7","7","3","1","3","5","1","7","1","3","3","4","3","1","5","7","5","1","3","7","5","1","1","4","3","2","6","4","6","7","7","7","3","7","7","2","1","7","3","7","1","7","796080806387916801","胡","440","Male","[""坏我"",""好他"",""好我"",""坏他""]","[""弱我"",""强他"",""强我"",""弱他""]","","","","","","","","no","","","","","","","","","SRET","EW_formal","","key","j","6.944047619047567","768","428","自己","昏庸","Negative","ability","","","","","","","","","","",""
"895","","j","psychophysics","55","193692","0.0-7.0-3.0-0.41","4","4","3","3","1","5","2","3","5","5","5","2","0","0","-1","-1","0","0","2","5","5","5","4","3","4","3","3","2","3","5","4","4","7","4","3","5","5","7","7","3","1","3","5","1","7","1","3","3","4","3","1","5","7","5","1","3","7","5","1","1","4","3","2","6","4","6","7","7","7","3","7","7","2","1","7","3","7","1","7","796080806387916801","胡","440","Male","[""坏我"",""好他"",""好我"",""坏他""]","[""弱我"",""强他"",""强我"",""弱他""]","","","","","","","","no","","","","","","","","","SRET","EW_formal","","key","j","6.943014705882353","768","428","自己","愚蠢","Negative","ability","","","","","","","","","","",""
"785","","j","psychophysics","56","195477","0.0-7.0-3.0-0.42","4","4","3","3","1","5","2","3","5","5","5","2","0","0","-1","-1","0","0","2","5","5","5","4","3","4","3","3","2","3","5","4","4","7","4","3","5","5","7","7","3","1","3","5","1","7","1","3","3","4","3","1","5","7","5","1","3","7","5","1","1","4","3","2","6","4","6","7","7","7","3","7","7","2","1","7","3","7","1","7","796080806387916801","胡","440","Male","[""坏我"",""好他"",""好我"",""坏他""]","[""弱我"",""强他"",""强我"",""弱他""]","","","","","","","","no","","","","","","","","","SRET","EW_formal","","key","j","6.943359375","768","428","自己","不良","Negative","morality","","","","","","","","","","",""
"1031","","j","psychophysics","57","197509","0.0-7.0-3.0-0.43","4","4","3","3","1","5","2","3","5","5","5","2","0","0","-1","-1","0","0","2","5","5","5","4","3","4","3","3","2","3","5","4","4","7","4","3","5","5","7","7","3","1","3","5","1","7","1","3","3","4","3","1","5","7","5","1","3","7","5","1","1","4","3","2","6","4","6","7","7","7","3","7","7","2","1","7","3","7","1","7","796080806387916801","胡","440","Male","[""坏我"",""好他"",""好我"",""坏他""]","[""弱我"",""强他"",""强我"",""弱他""]","","","","","","","","no","","","","","","","","","SRET","EW_formal","","key","j","6.943493150684931","768","428","自己","驽钝","Negative","ability","","","","","","","","","","",""
"920","","f","psychophysics","58","199431","0.0-7.0-3.0-0.44","4","4","3","3","1","5","2","3","5","5","5","2","0","0","-1","-1","0","0","2","5","5","5","4","3","4","3","3","2","3","5","4","4","7","4","3","5","5","7","7","3","1","3","5","1","7","1","3","3","4","3","1","5","7","5","1","3","7","5","1","1","4","3","2","6","4","6","7","7","7","3","7","7","2","1","7","3","7","1","7","796080806387916801","胡","440","Male","[""坏我"",""好他"",""好我"",""坏他""]","[""弱我"",""强他"",""强我"",""弱他""]","","","","","","","","yes","","","","","","","","","SRET","EW_formal","","key","f","6.943115942028943","768","428","朋友","义气","Positive","morality","","","","","","","","","","",""
"993","","j","psychophysics","59","201425","0.0-7.0-3.0-0.45","4","4","3","3","1","5","2","3","5","5","5","2","0","0","-1","-1","0","0","2","5","5","5","4","3","4","3","3","2","3","5","4","4","7","4","3","5","5","7","7","3","1","3","5","1","7","1","3","3","4","3","1","5","7","5","1","3","7","5","1","1","4","3","2","6","4","6","7","7","7","3","7","7","2","1","7","3","7","1","7","796080806387916801","胡","440","Male","[""坏我"",""好他"",""好我"",""坏他""]","[""弱我"",""强他"",""强我"",""弱他""]","","","","","","","","no","","","","","","","","","SRET","EW_formal","","key","j","6.943356643356602","768","428","自己","狡诈","Negative","morality","","","","","","","","","","",""
"1674","","j","psychophysics","60","204101","0.0-7.0-3.0-0.46","4","4","3","3","1","5","2","3","5","5","5","2","0","0","-1","-1","0","0","2","5","5","5","4","3","4","3","3","2","3","5","4","4","7","4","3","5","5","7","7","3","1","3","5","1","7","1","3","3","4","3","1","5","7","5","1","3","7","5","1","1","4","3","2","6","4","6","7","7","7","3","7","7","2","1","7","3","7","1","7","796080806387916801","胡","440","Male","[""坏我"",""好他"",""好我"",""坏他""]","[""弱我"",""强他"",""强我"",""弱他""]","","","","","","","","no","","","","","","","","","SRET","EW_formal","","key","j","6.9434895833333785","768","428","自己","聪明","Positive","ability","","","","","","","","","","",""
"751","","j","psychophysics","61","205853","0.0-7.0-3.0-0.47","4","4","3","3","1","5","2","3","5","5","5","2","0","0","-1","-1","0","0","2","5","5","5","4","3","4","3","3","2","3","5","4","4","7","4","3","5","5","7","7","3","1","3","5","1","7","1","3","3","4","3","1","5","7","5","1","3","7","5","1","1","4","3","2","6","4","6","7","7","7","3","7","7","2","1","7","3","7","1","7","796080806387916801","胡","440","Male","[""坏我"",""好他"",""好我"",""坏他""]","[""弱我"",""强他"",""强我"",""弱他""]","","","","","","","","no","","","","","","","","","SRET","EW_formal","","key","j","6.943426294820671","768","428","自己","谦逊","Positive","morality","","","","","","","","","","",""
"743","","j","psychophysics","62","207597","0.0-7.0-3.0-0.48","4","4","3","3","1","5","2","3","5","5","5","2","0","0","-1","-1","0","0","2","5","5","5","4","3","4","3","3","2","3","5","4","4","7","4","3","5","5","7","7","3","1","3","5","1","7","1","3","3","4","3","1","5","7","5","1","3","7","5","1","1","4","3","2","6","4","6","7","7","7","3","7","7","2","1","7","3","7","1","7","796080806387916801","胡","440","Male","[""坏我"",""好他"",""好我"",""坏他""]","[""弱我"",""强他"",""强我"",""弱他""]","","","","","","","","no","","","","","","","","","SRET","EW_formal","","key","j","6.943426294820787","768","428","自己","无敌","Positive","ability","","","","","","","","","","",""
"680","","j","psychophysics","63","209278","0.0-7.0-3.0-0.49","4","4","3","3","1","5","2","3","5","5","5","2","0","0","-1","-1","0","0","2","5","5","5","4","3","4","3","3","2","3","5","4","4","7","4","3","5","5","7","7","3","1","3","5","1","7","1","3","3","4","3","1","5","7","5","1","3","7","5","1","1","4","3","2","6","4","6","7","7","7","3","7","7","2","1","7","3","7","1","7","796080806387916801","胡","440","Male","[""坏我"",""好他"",""好我"",""坏他""]","[""弱我"",""强他"",""强我"",""弱他""]","","","","","","","","no","","","","","","","","","SRET","EW_formal","","key","j","6.943568464730267","768","428","朋友","蛇蝎","Negative","morality","","","","","","","","","","",""
"643","","j","psychophysics","64","210921","0.0-7.0-3.0-0.50","4","4","3","3","1","5","2","3","5","5","5","2","0","0","-1","-1","0","0","2","5","5","5","4","3","4","3","3","2","3","5","4","4","7","4","3","5","5","7","7","3","1","3","5","1","7","1","3","3","4","3","1","5","7","5","1","3","7","5","1","1","4","3","2","6","4","6","7","7","7","3","7","7","2","1","7","3","7","1","7","796080806387916801","胡","440","Male","[""坏我"",""好他"",""好我"",""坏他""]","[""弱我"",""强他"",""强我"",""弱他""]","","","","","","","","no","","","","","","","","","SRET","EW_formal","","key","j","6.943404255319199","768","428","朋友","阴毒","Negative","morality","","","","","","","","","","",""
"415","","j","psychophysics","65","212339","0.0-7.0-3.0-0.51","4","4","3","3","1","5","2","3","5","5","5","2","0","0","-1","-1","0","0","2","5","5","5","4","3","4","3","3","2","3","5","4","4","7","4","3","5","5","7","7","3","1","3","5","1","7","1","3","3","4","3","1","5","7","5","1","3","7","5","1","1","4","3","2","6","4","6","7","7","7","3","7","7","2","1","7","3","7","1","7","796080806387916801","胡","440","Male","[""坏我"",""好他"",""好我"",""坏他""]","[""弱我"",""强他"",""强我"",""弱他""]","","","","","","","","no","","","","","","","","","SRET","EW_formal","","key","j","6.943627450980392","768","428","自己","恶劣","Negative","morality","","","","","","","","","","",""
"1271","","j","psychophysics","66","214612","0.0-7.0-3.0-0.52","4","4","3","3","1","5","2","3","5","5","5","2","0","0","-1","-1","0","0","2","5","5","5","4","3","4","3","3","2","3","5","4","4","7","4","3","5","5","7","7","3","1","3","5","1","7","1","3","3","4","3","1","5","7","5","1","3","7","5","1","1","4","3","2","6","4","6","7","7","7","3","7","7","2","1","7","3","7","1","7","796080806387916801","胡","440","Male","[""坏我"",""好他"",""好我"",""坏他""]","[""弱我"",""强他"",""强我"",""弱他""]","","","","","","","","no","","","","","","","","","SRET","EW_formal","","key","j","6.943251533742331","768","428","朋友","全才","Positive","ability","","","","","","","","","","",""
"775","","j","psychophysics","67","216391","0.0-7.0-3.0-0.53","4","4","3","3","1","5","2","3","5","5","5","2","0","0","-1","-1","0","0","2","5","5","5","4","3","4","3","3","2","3","5","4","4","7","4","3","5","5","7","7","3","1","3","5","1","7","1","3","3","4","3","1","5","7","5","1","3","7","5","1","1","4","3","2","6","4","6","7","7","7","3","7","7","2","1","7","3","7","1","7","796080806387916801","胡","440","Male","[""坏我"",""好他"",""好我"",""坏他""]","[""弱我"",""强他"",""强我"",""弱他""]","","","","","","","","no","","","","","","","","","SRET","EW_formal","","key","j","6.943529411764729","768","428","自己","诡诈","Negative","morality","","","","","","","","","","",""
"1000","","j","psychophysics","68","218392","0.0-7.0-3.0-0.54","4","4","3","3","1","5","2","3","5","5","5","2","0","0","-1","-1","0","0","2","5","5","5","4","3","4","3","3","2","3","5","4","4","7","4","3","5","5","7","7","3","1","3","5","1","7","1","3","3","4","3","1","5","7","5","1","3","7","5","1","1","4","3","2","6","4","6","7","7","7","3","7","7","2","1","7","3","7","1","7","796080806387916801","胡","440","Male","[""坏我"",""好他"",""好我"",""坏他""]","[""弱我"",""强他"",""强我"",""弱他""]","","","","","","","","no","","","","","","","","","SRET","EW_formal","","key","j","6.94390243902437","768","428","自己","才尽","Negative","ability","","","","","","","","","","",""
"956","","j","psychophysics","69","220350","0.0-7.0-3.0-0.55","4","4","3","3","1","5","2","3","5","5","5","2","0","0","-1","-1","0","0","2","5","5","5","4","3","4","3","3","2","3","5","4","4","7","4","3","5","5","7","7","3","1","3","5","1","7","1","3","3","4","3","1","5","7","5","1","3","7","5","1","1","4","3","2","6","4","6","7","7","7","3","7","7","2","1","7","3","7","1","7","796080806387916801","胡","440","Male","[""坏我"",""好他"",""好我"",""坏他""]","[""弱我"",""强他"",""强我"",""弱他""]","","","","","","","","no","","","","","","","","","SRET","EW_formal","","key","j","6.943416370106783","768","428","朋友","狡狯","Negative","morality","","","","","","","","","","",""
"886","","j","psychophysics","70","222237","0.0-7.0-3.0-0.56","4","4","3","3","1","5","2","3","5","5","5","2","0","0","-1","-1","0","0","2","5","5","5","4","3","4","3","3","2","3","5","4","4","7","4","3","5","5","7","7","3","1","3","5","1","7","1","3","3","4","3","1","5","7","5","1","3","7","5","1","1","4","3","2","6","4","6","7","7","7","3","7","7","2","1","7","3","7","1","7","796080806387916801","胡","440","Male","[""坏我"",""好他"",""好我"",""坏他""]","[""弱我"",""强他"",""强我"",""弱他""]","","","","","","","","no","","","","","","","","","SRET","EW_formal","","key","j","6.968888888888911","768","428","朋友","腐败","Negative","morality","","","","","","","","","","",""
"759","","f","psychophysics","71","223997","0.0-7.0-3.0-0.57","4","4","3","3","1","5","2","3","5","5","5","2","0","0","-1","-1","0","0","2","5","5","5","4","3","4","3","3","2","3","5","4","4","7","4","3","5","5","7","7","3","1","3","5","1","7","1","3","3","4","3","1","5","7","5","1","3","7","5","1","1","4","3","2","6","4","6","7","7","7","3","7","7","2","1","7","3","7","1","7","796080806387916801","胡","440","Male","[""坏我"",""好他"",""好我"",""坏他""]","[""弱我"",""强他"",""强我"",""弱他""]","","","","","","","","yes","","","","","","","","","SRET","EW_formal","","key","f","6.9434782608694965","768","428","朋友","果断","Positive","ability","","","","","","","","","","",""
"1182","","f","psychophysics","72","226179","0.0-7.0-3.0-0.58","4","4","3","3","1","5","2","3","5","5","5","2","0","0","-1","-1","0","0","2","5","5","5","4","3","4","3","3","2","3","5","4","4","7","4","3","5","5","7","7","3","1","3","5","1","7","1","3","3","4","3","1","5","7","5","1","3","7","5","1","1","4","3","2","6","4","6","7","7","7","3","7","7","2","1","7","3","7","1","7","796080806387916801","胡","440","Male","[""坏我"",""好他"",""好我"",""坏他""]","[""弱我"",""强他"",""强我"",""弱他""]","","","","","","","","yes","","","","","","","","","SRET","EW_formal","","key","f","6.943450479233283","768","428","朋友","娴熟","Positive","ability","","","","","","","","","","",""
"1221","","f","psychophysics","73","228402","0.0-7.0-3.0-0.59","4","4","3","3","1","5","2","3","5","5","5","2","0","0","-1","-1","0","0","2","5","5","5","4","3","4","3","3","2","3","5","4","4","7","4","3","5","5","7","7","3","1","3","5","1","7","1","3","3","4","3","1","5","7","5","1","3","7","5","1","1","4","3","2","6","4","6","7","7","7","3","7","7","2","1","7","3","7","1","7","796080806387916801","胡","440","Male","[""坏我"",""好他"",""好我"",""坏他""]","[""弱我"",""强他"",""强我"",""弱他""]","","","","","","","","yes","","","","","","","","","SRET","EW_formal","","key","f","6.943573667711599","768","428","朋友","思辨","Positive","ability","","","","","","","","","","",""
"1174","","f","psychophysics","74","230577","0.0-7.0-3.0-0.60","4","4","3","3","1","5","2","3","5","5","5","2","0","0","-1","-1","0","0","2","5","5","5","4","3","4","3","3","2","3","5","4","4","7","4","3","5","5","7","7","3","1","3","5","1","7","1","3","3","4","3","1","5","7","5","1","3","7","5","1","1","4","3","2","6","4","6","7","7","7","3","7","7","2","1","7","3","7","1","7","796080806387916801","胡","440","Male","[""坏我"",""好他"",""好我"",""坏他""]","[""弱我"",""强他"",""强我"",""弱他""]","","","","","","","","yes","","","","","","","","","SRET","EW_formal","","key","f","6.943269230769194","768","428","朋友","懂行","Positive","ability","","","","","","","","","","",""
"663","","j","psychophysics","75","232241","0.0-7.0-3.0-0.61","4","4","3","3","1","5","2","3","5","5","5","2","0","0","-1","-1","0","0","2","5","5","5","4","3","4","3","3","2","3","5","4","4","7","4","3","5","5","7","7","3","1","3","5","1","7","1","3","3","4","3","1","5","7","5","1","3","7","5","1","1","4","3","2","6","4","6","7","7","7","3","7","7","2","1","7","3","7","1","7","796080806387916801","胡","440","Male","[""坏我"",""好他"",""好我"",""坏他""]","[""弱我"",""强他"",""强我"",""弱他""]","","","","","","","","no","","","","","","","","","SRET","EW_formal","","key","j","6.943514644351464","768","428","朋友","伪善","Negative","morality","","","","","","","","","","",""
"1003","","j","psychophysics","76","234245","0.0-7.0-3.0-0.62","4","4","3","3","1","5","2","3","5","5","5","2","0","0","-1","-1","0","0","2","5","5","5","4","3","4","3","3","2","3","5","4","4","7","4","3","5","5","7","7","3","1","3","5","1","7","1","3","3","4","3","1","5","7","5","1","3","7","5","1","1","4","3","2","6","4","6","7","7","7","3","7","7","2","1","7","3","7","1","7","796080806387916801","胡","440","Male","[""坏我"",""好他"",""好我"",""坏他""]","[""弱我"",""强他"",""强我"",""弱他""]","","","","","","","","no","","","","","","","","","SRET","EW_formal","","key","j","6.94374999999996","768","428","自己","利落","Positive","ability","","","","","","","","","","",""
"913","","j","psychophysics","77","236159","0.0-7.0-3.0-0.63","4","4","3","3","1","5","2","3","5","5","5","2","0","0","-1","-1","0","0","2","5","5","5","4","3","4","3","3","2","3","5","4","4","7","4","3","5","5","7","7","3","1","3","5","1","7","1","3","3","4","3","1","5","7","5","1","3","7","5","1","1","4","3","2","6","4","6","7","7","7","3","7","7","2","1","7","3","7","1","7","796080806387916801","胡","440","Male","[""坏我"",""好他"",""好我"",""坏他""]","[""弱我"",""强他"",""强我"",""弱他""]","","","","","","","","no","","","","","","","","","SRET","EW_formal","","key","j","6.943430656934306","768","428","朋友","黑心","Negative","morality","","","","","","","","","","",""
"981","","f","psychophysics","78","238141","0.0-7.0-3.0-0.64","4","4","3","3","1","5","2","3","5","5","5","2","0","0","-1","-1","0","0","2","5","5","5","4","3","4","3","3","2","3","5","4","4","7","4","3","5","5","7","7","3","1","3","5","1","7","1","3","3","4","3","1","5","7","5","1","3","7","5","1","1","4","3","2","6","4","6","7","7","7","3","7","7","2","1","7","3","7","1","7","796080806387916801","胡","440","Male","[""坏我"",""好他"",""好我"",""坏他""]","[""弱我"",""强他"",""强我"",""弱他""]","","","","","","","","yes","","","","","","","","","SRET","EW_formal","","key","f","6.943508771929804","768","428","朋友","精干","Positive","ability","","","","","","","","","","",""
"659","","j","psychophysics","79","239803","0.0-7.0-3.0-0.65","4","4","3","3","1","5","2","3","5","5","5","2","0","0","-1","-1","0","0","2","5","5","5","4","3","4","3","3","2","3","5","4","4","7","4","3","5","5","7","7","3","1","3","5","1","7","1","3","3","4","3","1","5","7","5","1","3","7","5","1","1","4","3","2","6","4","6","7","7","7","3","7","7","2","1","7","3","7","1","7","796080806387916801","胡","440","Male","[""坏我"",""好他"",""好我"",""坏他""]","[""弱我"",""强他"",""强我"",""弱他""]","","","","","","","","no","","","","","","","","","SRET","EW_formal","","key","j","6.942857142857118","768","428","自己","小人","Negative","morality","","","","","","","","","","",""
"1022","","f","psychophysics","80","241827","0.0-7.0-3.0-0.66","4","4","3","3","1","5","2","3","5","5","5","2","0","0","-1","-1","0","0","2","5","5","5","4","3","4","3","3","2","3","5","4","4","7","4","3","5","5","7","7","3","1","3","5","1","7","1","3","3","4","3","1","5","7","5","1","3","7","5","1","1","4","3","2","6","4","6","7","7","7","3","7","7","2","1","7","3","7","1","7","796080806387916801","胡","440","Male","[""坏我"",""好他"",""好我"",""坏他""]","[""弱我"",""强他"",""强我"",""弱他""]","","","","","","","","yes","","","","","","","","","SRET","EW_formal","","key","f","6.943793103448216","768","428","朋友","毛糙","Negative","ability","","","","","","","","","","",""
"730","","f","psychophysics","81","243558","0.0-7.0-3.0-0.67","4","4","3","3","1","5","2","3","5","5","5","2","0","0","-1","-1","0","0","2","5","5","5","4","3","4","3","3","2","3","5","4","4","7","4","3","5","5","7","7","3","1","3","5","1","7","1","3","3","4","3","1","5","7","5","1","3","7","5","1","1","4","3","2","6","4","6","7","7","7","3","7","7","2","1","7","3","7","1","7","796080806387916801","胡","440","Male","[""坏我"",""好他"",""好我"",""坏他""]","[""弱我"",""强他"",""强我"",""弱他""]","","","","","","","","yes","","","","","","","","","SRET","EW_formal","","key","f","6.943775100401607","768","428","自己","忠义","Positive","morality","","","","","","","","","","",""
"633","","f","psychophysics","82","245193","0.0-7.0-3.0-0.68","4","4","3","3","1","5","2","3","5","5","5","2","0","0","-1","-1","0","0","2","5","5","5","4","3","4","3","3","2","3","5","4","4","7","4","3","5","5","7","7","3","1","3","5","1","7","1","3","3","4","3","1","5","7","5","1","3","7","5","1","1","4","3","2","6","4","6","7","7","7","3","7","7","2","1","7","3","7","1","7","796080806387916801","胡","440","Male","[""坏我"",""好他"",""好我"",""坏他""]","[""弱我"",""强他"",""强我"",""弱他""]","","","","","","","","yes","","","","","","","","","SRET","EW_formal","","key","f","6.945299145299071","768","428","自己","智慧","Positive","ability","","","","","","","","","","",""
"622","","j","psychophysics","83","246816","0.0-7.0-3.0-0.69","4","4","3","3","1","5","2","3","5","5","5","2","0","0","-1","-1","0","0","2","5","5","5","4","3","4","3","3","2","3","5","4","4","7","4","3","5","5","7","7","3","1","3","5","1","7","1","3","3","4","3","1","5","7","5","1","3","7","5","1","1","4","3","2","6","4","6","7","7","7","3","7","7","2","1","7","3","7","1","7","796080806387916801","胡","440","Male","[""坏我"",""好他"",""好我"",""坏他""]","[""弱我"",""强他"",""强我"",""弱他""]","","","","","","","","no","","","","","","","","","SRET","EW_formal","","key","j","6.942489270386166","768","428","朋友","盲目","Negative","ability","","","","","","","","","","",""
"889","","f","psychophysics","84","248706","0.0-7.0-3.0-0.70","4","4","3","3","1","5","2","3","5","5","5","2","0","0","-1","-1","0","0","2","5","5","5","4","3","4","3","3","2","3","5","4","4","7","4","3","5","5","7","7","3","1","3","5","1","7","1","3","3","4","3","1","5","7","5","1","3","7","5","1","1","4","3","2","6","4","6","7","7","7","3","7","7","2","1","7","3","7","1","7","796080806387916801","胡","440","Male","[""坏我"",""好他"",""好我"",""坏他""]","[""弱我"",""强他"",""强我"",""弱他""]","","","","","","","","yes","","","","","","","","","SRET","EW_formal","","key","f","6.943911439114348","768","428","朋友","无私","Positive","morality","","","","","","","","","","",""
"585","","j","psychophysics","85","250292","0.0-7.0-3.0-0.71","4","4","3","3","1","5","2","3","5","5","5","2","0","0","-1","-1","0","0","2","5","5","5","4","3","4","3","3","2","3","5","4","4","7","4","3","5","5","7","7","3","1","3","5","1","7","1","3","3","4","3","1","5","7","5","1","3","7","5","1","1","4","3","2","6","4","6","7","7","7","3","7","7","2","1","7","3","7","1","7","796080806387916801","胡","440","Male","[""坏我"",""好他"",""好我"",""坏他""]","[""弱我"",""强他"",""强我"",""弱他""]","","","","","","","","no","","","","","","","","","SRET","EW_formal","","key","j","6.943421052631605","768","428","朋友","失信","Negative","morality","","","","","","","","","","",""
"868","","f","psychophysics","86","252161","0.0-7.0-3.0-0.72","4","4","3","3","1","5","2","3","5","5","5","2","0","0","-1","-1","0","0","2","5","5","5","4","3","4","3","3","2","3","5","4","4","7","4","3","5","5","7","7","3","1","3","5","1","7","1","3","3","4","3","1","5","7","5","1","3","7","5","1","1","4","3","2","6","4","6","7","7","7","3","7","7","2","1","7","3","7","1","7","796080806387916801","胡","440","Male","[""坏我"",""好他"",""好我"",""坏他""]","[""弱我"",""强他"",""强我"",""弱他""]","","","","","","","","yes","","","","","","","","","SRET","EW_formal","","key","f","6.943656716417888","768","428","自己","清廉","Positive","morality","","","","","","","","","","",""
"729","","f","psychophysics","87","253891","0.0-7.0-3.0-0.73","4","4","3","3","1","5","2","3","5","5","5","2","0","0","-1","-1","0","0","2","5","5","5","4","3","4","3","3","2","3","5","4","4","7","4","3","5","5","7","7","3","1","3","5","1","7","1","3","3","4","3","1","5","7","5","1","3","7","5","1","1","4","3","2","6","4","6","7","7","7","3","7","7","2","1","7","3","7","1","7","796080806387916801","胡","440","Male","[""坏我"",""好他"",""好我"",""坏他""]","[""弱我"",""强他"",""强我"",""弱他""]","","","","","","","","yes","","","","","","","","","SRET","EW_formal","","key","f","6.943548387096774","768","428","自己","慷慨","Positive","morality","","","","","","","","","","",""
"868","","j","psychophysics","88","255761","0.0-7.0-3.0-0.74","4","4","3","3","1","5","2","3","5","5","5","2","0","0","-1","-1","0","0","2","5","5","5","4","3","4","3","3","2","3","5","4","4","7","4","3","5","5","7","7","3","1","3","5","1","7","1","3","3","4","3","1","5","7","5","1","3","7","5","1","1","4","3","2","6","4","6","7","7","7","3","7","7","2","1","7","3","7","1","7","796080806387916801","胡","440","Male","[""坏我"",""好他"",""好我"",""坏他""]","[""弱我"",""强他"",""强我"",""弱他""]","","","","","","","","no","","","","","","","","","SRET","EW_formal","","key","j","6.943656716417888","768","428","朋友","迟钝","Negative","ability","","","","","","","","","","",""
"674","","j","psychophysics","89","257437","0.0-7.0-3.0-0.75","4","4","3","3","1","5","2","3","5","5","5","2","0","0","-1","-1","0","0","2","5","5","5","4","3","4","3","3","2","3","5","4","4","7","4","3","5","5","7","7","3","1","3","5","1","7","1","3","3","4","3","1","5","7","5","1","3","7","5","1","1","4","3","2","6","4","6","7","7","7","3","7","7","2","1","7","3","7","1","7","796080806387916801","胡","440","Male","[""坏我"",""好他"",""好我"",""坏他""]","[""弱我"",""强他"",""强我"",""弱他""]","","","","","","","","no","","","","","","","","","SRET","EW_formal","","key","j","6.943568464730267","768","428","自己","虚伪","Negative","morality","","","","","","","","","","",""
"873","","f","psychophysics","90","259313","0.0-7.0-3.0-0.76","4","4","3","3","1","5","2","3","5","5","5","2","0","0","-1","-1","0","0","2","5","5","5","4","3","4","3","3","2","3","5","4","4","7","4","3","5","5","7","7","3","1","3","5","1","7","1","3","3","4","3","1","5","7","5","1","3","7","5","1","1","4","3","2","6","4","6","7","7","7","3","7","7","2","1","7","3","7","1","7","796080806387916801","胡","440","Male","[""坏我"",""好他"",""好我"",""坏他""]","[""弱我"",""强他"",""强我"",""弱他""]","","","","","","","","yes","","","","","","","","","SRET","EW_formal","","key","f","6.943122676579969","768","428","朋友","廉正","Positive","morality","","","","","","","","","","",""
"1117","","f","psychophysics","91","261430","0.0-7.0-3.0-0.77","4","4","3","3","1","5","2","3","5","5","5","2","0","0","-1","-1","0","0","2","5","5","5","4","3","4","3","3","2","3","5","4","4","7","4","3","5","5","7","7","3","1","3","5","1","7","1","3","3","4","3","1","5","7","5","1","3","7","5","1","1","4","3","2","6","4","6","7","7","7","3","7","7","2","1","7","3","7","1","7","796080806387916801","胡","440","Male","[""坏我"",""好他"",""好我"",""坏他""]","[""弱我"",""强他"",""强我"",""弱他""]","","","","","","","","yes","","","","","","","","","SRET","EW_formal","","key","f","6.943421052631637","768","428","朋友","新手","Negative","ability","","","","","","","","","","",""
"904","","f","psychophysics","92","263336","0.0-7.0-3.0-0.78","4","4","3","3","1","5","2","3","5","5","5","2","0","0","-1","-1","0","0","2","5","5","5","4","3","4","3","3","2","3","5","4","4","7","4","3","5","5","7","7","3","1","3","5","1","7","1","3","3","4","3","1","5","7","5","1","3","7","5","1","1","4","3","2","6","4","6","7","7","7","3","7","7","2","1","7","3","7","1","7","796080806387916801","胡","440","Male","[""坏我"",""好他"",""好我"",""坏他""]","[""弱我"",""强他"",""强我"",""弱他""]","","","","","","","","yes","","","","","","","","","SRET","EW_formal","","key","f","6.943223443223443","768","428","自己","逞强","Negative","ability","","","","","","","","","","",""
"721","","j","psychophysics","93","265058","0.0-7.0-3.0-0.79","4","4","3","3","1","5","2","3","5","5","5","2","0","0","-1","-1","0","0","2","5","5","5","4","3","4","3","3","2","3","5","4","4","7","4","3","5","5","7","7","3","1","3","5","1","7","1","3","3","4","3","1","5","7","5","1","3","7","5","1","1","4","3","2","6","4","6","7","7","7","3","7","7","2","1","7","3","7","1","7","796080806387916801","胡","440","Male","[""坏我"",""好他"",""好我"",""坏他""]","[""弱我"",""强他"",""强我"",""弱他""]","","","","","","","","no","","","","","","","","","SRET","EW_formal","","key","j","6.944129554655918","768","428","自己","高洁","Positive","morality","","","","","","","","","","",""
"735","","f","psychophysics","94","266795","0.0-7.0-3.0-0.80","4","4","3","3","1","5","2","3","5","5","5","2","0","0","-1","-1","0","0","2","5","5","5","4","3","4","3","3","2","3","5","4","4","7","4","3","5","5","7","7","3","1","3","5","1","7","1","3","3","4","3","1","5","7","5","1","3","7","5","1","1","4","3","2","6","4","6","7","7","7","3","7","7","2","1","7","3","7","1","7","796080806387916801","胡","440","Male","[""坏我"",""好他"",""好我"",""坏他""]","[""弱我"",""强他"",""强我"",""弱他""]","","","","","","","","yes","","","","","","","","","SRET","EW_formal","","key","f","6.942971887550388","768","428","朋友","敬业","Positive","morality","","","","","","","","","","",""
"684","","j","psychophysics","95","268480","0.0-7.0-3.0-0.81","4","4","3","3","1","5","2","3","5","5","5","2","0","0","-1","-1","0","0","2","5","5","5","4","3","4","3","3","2","3","5","4","4","7","4","3","5","5","7","7","3","1","3","5","1","7","1","3","3","4","3","1","5","7","5","1","3","7","5","1","1","4","3","2","6","4","6","7","7","7","3","7","7","2","1","7","3","7","1","7","796080806387916801","胡","440","Male","[""坏我"",""好他"",""好我"",""坏他""]","[""弱我"",""强他"",""强我"",""弱他""]","","","","","","","","no","","","","","","","","","SRET","EW_formal","","key","j","6.944214876033058","768","428","自己","贪污","Negative","morality","","","","","","","","","","",""
"824","","f","psychophysics","96","270306","0.0-7.0-3.0-0.82","4","4","3","3","1","5","2","3","5","5","5","2","0","0","-1","-1","0","0","2","5","5","5","4","3","4","3","3","2","3","5","4","4","7","4","3","5","5","7","7","3","1","3","5","1","7","1","3","3","4","3","1","5","7","5","1","3","7","5","1","1","4","3","2","6","4","6","7","7","7","3","7","7","2","1","7","3","7","1","7","796080806387916801","胡","440","Male","[""坏我"",""好他"",""好我"",""坏他""]","[""弱我"",""强他"",""强我"",""弱他""]","","","","","","","","yes","","","","","","","","","SRET","EW_formal","","key","f","6.942366412213829","768","428","朋友","廉明","Positive","morality","","","","","","","","","","",""
"940","","j","psychophysics","97","272248","0.0-7.0-3.0-0.83","4","4","3","3","1","5","2","3","5","5","5","2","0","0","-1","-1","0","0","2","5","5","5","4","3","4","3","3","2","3","5","4","4","7","4","3","5","5","7","7","3","1","3","5","1","7","1","3","3","4","3","1","5","7","5","1","3","7","5","1","1","4","3","2","6","4","6","7","7","7","3","7","7","2","1","7","3","7","1","7","796080806387916801","胡","440","Male","[""坏我"",""好他"",""好我"",""坏他""]","[""弱我"",""强他"",""强我"",""弱他""]","","","","","","","","no","","","","","","","","","SRET","EW_formal","","key","j","6.943369175627282","768","428","自己","博学","Positive","ability","","","","","","","","","","",""
"840","","f","psychophysics","98","274090","0.0-7.0-3.0-0.84","4","4","3","3","1","5","2","3","5","5","5","2","0","0","-1","-1","0","0","2","5","5","5","4","3","4","3","3","2","3","5","4","4","7","4","3","5","5","7","7","3","1","3","5","1","7","1","3","3","4","3","1","5","7","5","1","3","7","5","1","1","4","3","2","6","4","6","7","7","7","3","7","7","2","1","7","3","7","1","7","796080806387916801","胡","440","Male","[""坏我"",""好他"",""好我"",""坏他""]","[""弱我"",""强他"",""强我"",""弱他""]","","","","","","","","yes","","","","","","","","","SRET","EW_formal","","key","f","6.943560606060518","768","428","自己","主见","Positive","ability","","","","","","","","","","",""
"1078","","f","psychophysics","99","276169","0.0-7.0-3.0-0.85","4","4","3","3","1","5","2","3","5","5","5","2","0","0","-1","-1","0","0","2","5","5","5","4","3","4","3","3","2","3","5","4","4","7","4","3","5","5","7","7","3","1","3","5","1","7","1","3","3","4","3","1","5","7","5","1","3","7","5","1","1","4","3","2","6","4","6","7","7","7","3","7","7","2","1","7","3","7","1","7","796080806387916801","胡","440","Male","[""坏我"",""好他"",""好我"",""坏他""]","[""弱我"",""强他"",""强我"",""弱他""]","","","","","","","","yes","","","","","","","","","SRET","EW_formal","","key","f","6.940939597315319","768","428","自己","缓慢","Negative","ability","","","","","","","","","","",""
"825","","f","psychophysics","100","277995","0.0-7.0-3.0-0.86","4","4","3","3","1","5","2","3","5","5","5","2","0","0","-1","-1","0","0","2","5","5","5","4","3","4","3","3","2","3","5","4","4","7","4","3","5","5","7","7","3","1","3","5","1","7","1","3","3","4","3","1","5","7","5","1","3","7","5","1","1","4","3","2","6","4","6","7","7","7","3","7","7","2","1","7","3","7","1","7","796080806387916801","胡","440","Male","[""坏我"",""好他"",""好我"",""坏他""]","[""弱我"",""强他"",""强我"",""弱他""]","","","","","","","","yes","","","","","","","","","SRET","EW_formal","","key","f","6.970498084291143","768","428","朋友","素养","Positive","morality","","","","","","","","","","",""
"563","","j","psychophysics","101","279559","0.0-7.0-3.0-0.87","4","4","3","3","1","5","2","3","5","5","5","2","0","0","-1","-1","0","0","2","5","5","5","4","3","4","3","3","2","3","5","4","4","7","4","3","5","5","7","7","3","1","3","5","1","7","1","3","3","4","3","1","5","7","5","1","3","7","5","1","1","4","3","2","6","4","6","7","7","7","3","7","7","2","1","7","3","7","1","7","796080806387916801","胡","440","Male","[""坏我"",""好他"",""好我"",""坏他""]","[""弱我"",""强他"",""强我"",""弱他""]","","","","","","","","no","","","","","","","","","SRET","EW_formal","","key","j","6.9439999999998445","768","428","朋友","低俗","Negative","morality","","","","","","","","","","",""
"7716","
    <p><div style='color:white;font-size:35px; line-height:20px;'>计算任务</div></p><br>
    <p><div style='color:red;font-size:25px; line-height:20px;'>接下来，您将看到一些四则运算题，<b>请从键盘选择 0-9 进行反应。</b></div></p>
    <p><div style='color:red;font-size:25px; line-height:20px;'>请尽可能快地进行计算，计算的速度和正确率将影响报酬的发放。</div></p>
    <p><div class='footer' style='color:white;font-size:25px; line-height:20px;'>如果对本实验还有不清楚之处，请立即向实验员咨询。</p><p style='color:white;font-size:25px; line-height:20px;'>如果您明白了规则：</p><p style='color:white;font-size:22px; line-height:20px;'>请按 继续 进入练习</p>
    </div>
    ","0","html-button-response","102","287277","0.0-7.0-4.0","4","4","3","3","1","5","2","3","5","5","5","2","0","0","-1","-1","0","0","2","5","5","5","4","3","4","3","3","2","3","5","4","4","7","4","3","5","5","7","7","3","1","3","5","1","7","1","3","3","4","3","1","5","7","5","1","3","7","5","1","1","4","3","2","6","4","6","7","7","7","3","7","7","2","1","7","3","7","1","7","796080806387916801","胡","440","Male","[""坏我"",""好他"",""好我"",""坏他""]","[""弱我"",""强他"",""强我"",""弱他""]","","","","","","","","","","","","","","","","","SRET_math","math_instructions","Wed Jan 10 2024 18:49:26 GMT+0800 (中国标准时间)","","","","","","","","","","","","","","","","","","","",""
"2285","","7","psychophysics","103","289565","0.0-7.0-5.0-0.0","4","4","3","3","1","5","2","3","5","5","5","2","0","0","-1","-1","0","0","2","5","5","5","4","3","4","3","3","2","3","5","4","4","7","4","3","5","5","7","7","3","1","3","5","1","7","1","3","3","4","3","1","5","7","5","1","3","7","5","1","1","4","3","2","6","4","6","7","7","7","3","7","7","2","1","7","3","7","1","7","796080806387916801","胡","440","Male","[""坏我"",""好他"",""好我"",""坏他""]","[""弱我"",""强他"",""强我"",""弱他""]","","","","","","","","7","","","","","","","","","SRET","SRET_math_calculate","","key","7","6.97804878048777","768","428","","","","","9-2= ?","7","1","","","","","","","",""
"2483","","7","psychophysics","104","292049","0.0-7.0-5.0-0.1","4","4","3","3","1","5","2","3","5","5","5","2","0","0","-1","-1","0","0","2","5","5","5","4","3","4","3","3","2","3","5","4","4","7","4","3","5","5","7","7","3","1","3","5","1","7","1","3","3","4","3","1","5","7","5","1","3","7","5","1","1","4","3","2","6","4","6","7","7","7","3","7","7","2","1","7","3","7","1","7","796080806387916801","胡","440","Male","[""坏我"",""好他"",""好我"",""坏他""]","[""弱我"",""强他"",""强我"",""弱他""]","","","","","","","","7","","","","","","","","","SRET","SRET_math_calculate","","key","7","6.943417366946746","768","428","","","","","50-42= ?","8","0","","","","","","","",""
"1976","","8","psychophysics","105","294027","0.0-7.0-5.0-0.2","4","4","3","3","1","5","2","3","5","5","5","2","0","0","-1","-1","0","0","2","5","5","5","4","3","4","3","3","2","3","5","4","4","7","4","3","5","5","7","7","3","1","3","5","1","7","1","3","3","4","3","1","5","7","5","1","3","7","5","1","1","4","3","2","6","4","6","7","7","7","3","7","7","2","1","7","3","7","1","7","796080806387916801","胡","440","Male","[""坏我"",""好他"",""好我"",""坏他""]","[""弱我"",""强他"",""强我"",""弱他""]","","","","","","","","8","","","","","","","","","SRET","SRET_math_calculate","","key","8","6.943309859155011","768","428","","","","","7+1= ?","8","1","","","","","","","",""
"2624","","7","psychophysics","106","296653","0.0-7.0-5.0-0.3","4","4","3","3","1","5","2","3","5","5","5","2","0","0","-1","-1","0","0","2","5","5","5","4","3","4","3","3","2","3","5","4","4","7","4","3","5","5","7","7","3","1","3","5","1","7","1","3","3","4","3","1","5","7","5","1","3","7","5","1","1","4","3","2","6","4","6","7","7","7","3","7","7","2","1","7","3","7","1","7","796080806387916801","胡","440","Male","[""坏我"",""好他"",""好我"",""坏他""]","[""弱我"",""强他"",""强我"",""弱他""]","","","","","","","","7","","","","","","","","","SRET","SRET_math_calculate","","key","7","6.943236074270495","768","428","","","","","49/7 = ?","7","1","","","","","","","",""
"2200","","6","psychophysics","107","298854","0.0-7.0-5.0-0.4","4","4","3","3","1","5","2","3","5","5","5","2","0","0","-1","-1","0","0","2","5","5","5","4","3","4","3","3","2","3","5","4","4","7","4","3","5","5","7","7","3","1","3","5","1","7","1","3","3","4","3","1","5","7","5","1","3","7","5","1","1","4","3","2","6","4","6","7","7","7","3","7","7","2","1","7","3","7","1","7","796080806387916801","胡","440","Male","[""坏我"",""好他"",""好我"",""坏他""]","[""弱我"",""强他"",""强我"",""弱他""]","","","","","","","","6","","","","","","","","","SRET","SRET_math_calculate","","key","6","6.943354430379857","768","428","","","","","3*2= ?","6","1","","","","","","","",""
"2187","","3","psychophysics","108","301042","0.0-7.0-5.0-0.5","4","4","3","3","1","5","2","3","5","5","5","2","0","0","-1","-1","0","0","2","5","5","5","4","3","4","3","3","2","3","5","4","4","7","4","3","5","5","7","7","3","1","3","5","1","7","1","3","3","4","3","1","5","7","5","1","3","7","5","1","1","4","3","2","6","4","6","7","7","7","3","7","7","2","1","7","3","7","1","7","796080806387916801","胡","440","Male","[""坏我"",""好他"",""好我"",""坏他""]","[""弱我"",""强他"",""强我"",""弱他""]","","","","","","","","3","","","","","","","","","SRET","SRET_math_calculate","","key","3","6.94363057324837","768","428","","","","","9-6= ?","3","1","","","","","","","",""
"1807","","2","psychophysics","109","302850","0.0-7.0-5.0-0.6","4","4","3","3","1","5","2","3","5","5","5","2","0","0","-1","-1","0","0","2","5","5","5","4","3","4","3","3","2","3","5","4","4","7","4","3","5","5","7","7","3","1","3","5","1","7","1","3","3","4","3","1","5","7","5","1","3","7","5","1","1","4","3","2","6","4","6","7","7","7","3","7","7","2","1","7","3","7","1","7","796080806387916801","胡","440","Male","[""坏我"",""好他"",""好我"",""坏他""]","[""弱我"",""强他"",""强我"",""弱他""]","","","","","","","","2","","","","","","","","","SRET","SRET_math_calculate","","key","2","6.943243243243198","768","428","","","","","1+1= ?","2","1","","","","","","","",""
"1971","","0","psychophysics","110","304824","0.0-7.0-5.0-0.7","4","4","3","3","1","5","2","3","5","5","5","2","0","0","-1","-1","0","0","2","5","5","5","4","3","4","3","3","2","3","5","4","4","7","4","3","5","5","7","7","3","1","3","5","1","7","1","3","3","4","3","1","5","7","5","1","3","7","5","1","1","4","3","2","6","4","6","7","7","7","3","7","7","2","1","7","3","7","1","7","796080806387916801","胡","440","Male","[""坏我"",""好他"",""好我"",""坏他""]","[""弱我"",""强他"",""强我"",""弱他""]","","","","","","","","0","","","","","","","","","SRET","SRET_math_calculate","","key","0","6.943661971830986","768","428","","","","","22-22= ?","0","1","","","","","","","",""
"1898","","6","psychophysics","111","306723","0.0-7.0-5.0-0.8","4","4","3","3","1","5","2","3","5","5","5","2","0","0","-1","-1","0","0","2","5","5","5","4","3","4","3","3","2","3","5","4","4","7","4","3","5","5","7","7","3","1","3","5","1","7","1","3","3","4","3","1","5","7","5","1","3","7","5","1","1","4","3","2","6","4","6","7","7","7","3","7","7","2","1","7","3","7","1","7","796080806387916801","胡","440","Male","[""坏我"",""好他"",""好我"",""坏他""]","[""弱我"",""强他"",""强我"",""弱他""]","","","","","","","","6","","","","","","","","","SRET","SRET_math_calculate","","key","6","6.943382352941305","768","428","","","","","3+3= ?","6","1","","","","","","","",""
"1899","","2","psychophysics","112","308623","0.0-7.0-5.0-0.9","4","4","3","3","1","5","2","3","5","5","5","2","0","0","-1","-1","0","0","2","5","5","5","4","3","4","3","3","2","3","5","4","4","7","4","3","5","5","7","7","3","1","3","5","1","7","1","3","3","4","3","1","5","7","5","1","3","7","5","1","1","4","3","2","6","4","6","7","7","7","3","7","7","2","1","7","3","7","1","7","796080806387916801","胡","440","Male","[""坏我"",""好他"",""好我"",""坏他""]","[""弱我"",""强他"",""强我"",""弱他""]","","","","","","","","2","","","","","","","","","SRET","SRET_math_calculate","","key","2","6.9435897435896585","768","428","","","","","1+2= ?","3","0","","","","","","","",""
"2145","","7","psychophysics","113","310769","0.0-7.0-5.0-0.10","4","4","3","3","1","5","2","3","5","5","5","2","0","0","-1","-1","0","0","2","5","5","5","4","3","4","3","3","2","3","5","4","4","7","4","3","5","5","7","7","3","1","3","5","1","7","1","3","3","4","3","1","5","7","5","1","3","7","5","1","1","4","3","2","6","4","6","7","7","7","3","7","7","2","1","7","3","7","1","7","796080806387916801","胡","440","Male","[""坏我"",""好他"",""好我"",""坏他""]","[""弱我"",""强他"",""强我"",""弱他""]","","","","","","","","7","","","","","","","","","SRET","SRET_math_calculate","","key","7","6.943506493506607","768","428","","","","","2+5= ?","7","1","","","","","","","",""
"2205","","0","psychophysics","114","312974","0.0-7.0-5.0-0.11","4","4","3","3","1","5","2","3","5","5","5","2","0","0","-1","-1","0","0","2","5","5","5","4","3","4","3","3","2","3","5","4","4","7","4","3","5","5","7","7","3","1","3","5","1","7","1","3","3","4","3","1","5","7","5","1","3","7","5","1","1","4","3","2","6","4","6","7","7","7","3","7","7","2","1","7","3","7","1","7","796080806387916801","胡","440","Male","[""坏我"",""好他"",""好我"",""坏他""]","[""弱我"",""强他"",""强我"",""弱他""]","","","","","","","","0","","","","","","","","","SRET","SRET_math_calculate","","key","0","6.943670886075986","768","428","","","","","5*0= ?","0","1","","","","","","","",""
"2016","","5","psychophysics","115","314994","0.0-7.0-5.0-0.12","4","4","3","3","1","5","2","3","5","5","5","2","0","0","-1","-1","0","0","2","5","5","5","4","3","4","3","3","2","3","5","4","4","7","4","3","5","5","7","7","3","1","3","5","1","7","1","3","3","4","3","1","5","7","5","1","3","7","5","1","1","4","3","2","6","4","6","7","7","7","3","7","7","2","1","7","3","7","1","7","796080806387916801","胡","440","Male","[""坏我"",""好他"",""好我"",""坏他""]","[""弱我"",""强他"",""强我"",""弱他""]","","","","","","","","5","","","","","","","","","SRET","SRET_math_calculate","","key","5","6.943448275861988","768","428","","","","","9-4= ?","5","1","","","","","","","",""
"2480","","1","psychophysics","116","317477","0.0-7.0-5.0-0.13","4","4","3","3","1","5","2","3","5","5","5","2","0","0","-1","-1","0","0","2","5","5","5","4","3","4","3","3","2","3","5","4","4","7","4","3","5","5","7","7","3","1","3","5","1","7","1","3","3","4","3","1","5","7","5","1","3","7","5","1","1","4","3","2","6","4","6","7","7","7","3","7","7","2","1","7","3","7","1","7","796080806387916801","胡","440","Male","[""坏我"",""好他"",""好我"",""坏他""]","[""弱我"",""强他"",""强我"",""弱他""]","","","","","","","","1","","","","","","","","","SRET","SRET_math_calculate","","key","1","6.943977591036415","768","428","","","","","30-29= ?","1","1","","","","","","","",""
"2002","","1","psychophysics","117","319480","0.0-7.0-5.0-0.14","4","4","3","3","1","5","2","3","5","5","5","2","0","0","-1","-1","0","0","2","5","5","5","4","3","4","3","3","2","3","5","4","4","7","4","3","5","5","7","7","3","1","3","5","1","7","1","3","3","4","3","1","5","7","5","1","3","7","5","1","1","4","3","2","6","4","6","7","7","7","3","7","7","2","1","7","3","7","1","7","796080806387916801","胡","440","Male","[""坏我"",""好他"",""好我"",""坏他""]","[""弱我"",""强他"",""强我"",""弱他""]","","","","","","","","1","","","","","","","","","SRET","SRET_math_calculate","","key","1","6.943554006968601","768","428","","","","","12/12= ?","1","1","","","","","","","",""
"2230","","8","psychophysics","118","321713","0.0-7.0-5.0-0.15","4","4","3","3","1","5","2","3","5","5","5","2","0","0","-1","-1","0","0","2","5","5","5","4","3","4","3","3","2","3","5","4","4","7","4","3","5","5","7","7","3","1","3","5","1","7","1","3","3","4","3","1","5","7","5","1","3","7","5","1","1","4","3","2","6","4","6","7","7","7","3","7","7","2","1","7","3","7","1","7","796080806387916801","胡","440","Male","[""坏我"",""好他"",""好我"",""坏他""]","[""弱我"",""强他"",""强我"",""弱他""]","","","","","","","","8","","","","","","","","","SRET","SRET_math_calculate","","key","8","6.943613707165182","768","428","","","","","2+6= ?","8","1","","","","","","","",""
"2129","","9","psychophysics","119","323843","0.0-7.0-5.0-0.16","4","4","3","3","1","5","2","3","5","5","5","2","0","0","-1","-1","0","0","2","5","5","5","4","3","4","3","3","2","3","5","4","4","7","4","3","5","5","7","7","3","1","3","5","1","7","1","3","3","4","3","1","5","7","5","1","3","7","5","1","1","4","3","2","6","4","6","7","7","7","3","7","7","2","1","7","3","7","1","7","796080806387916801","胡","440","Male","[""坏我"",""好他"",""好我"",""坏他""]","[""弱我"",""强他"",""强我"",""弱他""]","","","","","","","","9","","","","","","","","","SRET","SRET_math_calculate","","key","9","6.943137254901885","768","428","","","","","18/2= ?","9","1","","","","","","","",""
"2214","","3","psychophysics","120","326058","0.0-7.0-5.0-0.17","4","4","3","3","1","5","2","3","5","5","5","2","0","0","-1","-1","0","0","2","5","5","5","4","3","4","3","3","2","3","5","4","4","7","4","3","5","5","7","7","3","1","3","5","1","7","1","3","3","4","3","1","5","7","5","1","3","7","5","1","1","4","3","2","6","4","6","7","7","7","3","7","7","2","1","7","3","7","1","7","796080806387916801","胡","440","Male","[""坏我"",""好他"",""好我"",""坏他""]","[""弱我"",""强他"",""强我"",""弱他""]","","","","","","","","3","","","","","","","","","SRET","SRET_math_calculate","","key","3","6.943710691823826","768","428","","","","","3+0= ?","3","1","","","","","","","",""
"1910","","3","psychophysics","121","327970","0.0-7.0-5.0-0.18","4","4","3","3","1","5","2","3","5","5","5","2","0","0","-1","-1","0","0","2","5","5","5","4","3","4","3","3","2","3","5","4","4","7","4","3","5","5","7","7","3","1","3","5","1","7","1","3","3","4","3","1","5","7","5","1","3","7","5","1","1","4","3","2","6","4","6","7","7","7","3","7","7","2","1","7","3","7","1","7","796080806387916801","胡","440","Male","[""坏我"",""好他"",""好我"",""坏他""]","[""弱我"",""强他"",""强我"",""弱他""]","","","","","","","","3","","","","","","","","","SRET","SRET_math_calculate","","key","3","6.943430656934306","768","428","","","","","6/2= ?","3","1","","","","","","","",""
"2234","","6","psychophysics","122","330205","0.0-7.0-5.0-0.19","4","4","3","3","1","5","2","3","5","5","5","2","0","0","-1","-1","0","0","2","5","5","5","4","3","4","3","3","2","3","5","4","4","7","4","3","5","5","7","7","3","1","3","5","1","7","1","3","3","4","3","1","5","7","5","1","3","7","5","1","1","4","3","2","6","4","6","7","7","7","3","7","7","2","1","7","3","7","1","7","796080806387916801","胡","440","Male","[""坏我"",""好他"",""好我"",""坏他""]","[""弱我"",""强他"",""强我"",""弱他""]","","","","","","","","6","","","","","","","","","SRET","SRET_math_calculate","","key","6","6.94392523364486","768","428","","","","","13-9= ?","4","0","","","","","","","",""
"2202","","7","psychophysics","123","332409","0.0-7.0-5.0-0.20","4","4","3","3","1","5","2","3","5","5","5","2","0","0","-1","-1","0","0","2","5","5","5","4","3","4","3","3","2","3","5","4","4","7","4","3","5","5","7","7","3","1","3","5","1","7","1","3","3","4","3","1","5","7","5","1","3","7","5","1","1","4","3","2","6","4","6","7","7","7","3","7","7","2","1","7","3","7","1","7","796080806387916801","胡","440","Male","[""坏我"",""好他"",""好我"",""坏他""]","[""弱我"",""强他"",""强我"",""弱他""]","","","","","","","","7","","","","","","","","","SRET","SRET_math_calculate","","key","7","6.943670886075986","768","428","","","","","4+3= ?","7","1","","","","","","","",""
"2269","","5","psychophysics","124","334681","0.0-7.0-5.0-0.21","4","4","3","3","1","5","2","3","5","5","5","2","0","0","-1","-1","0","0","2","5","5","5","4","3","4","3","3","2","3","5","4","4","7","4","3","5","5","7","7","3","1","3","5","1","7","1","3","3","4","3","1","5","7","5","1","3","7","5","1","1","4","3","2","6","4","6","7","7","7","3","7","7","2","1","7","3","7","1","7","796080806387916801","胡","440","Male","[""坏我"",""好他"",""好我"",""坏他""]","[""弱我"",""强他"",""强我"",""弱他""]","","","","","","","","5","","","","","","","","","SRET","SRET_math_calculate","","key","5","6.943425076452599","768","428","","","","","5/1= ?","5","1","","","","","","","",""
"2344","","2","psychophysics","125","337026","0.0-7.0-5.0-0.22","4","4","3","3","1","5","2","3","5","5","5","2","0","0","-1","-1","0","0","2","5","5","5","4","3","4","3","3","2","3","5","4","4","7","4","3","5","5","7","7","3","1","3","5","1","7","1","3","3","4","3","1","5","7","5","1","3","7","5","1","1","4","3","2","6","4","6","7","7","7","3","7","7","2","1","7","3","7","1","7","796080806387916801","胡","440","Male","[""坏我"",""好他"",""好我"",""坏他""]","[""弱我"",""强他"",""强我"",""弱他""]","","","","","","","","2","","","","","","","","","SRET","SRET_math_calculate","","key","2","6.94374999999993","768","428","","","","","90/45= ?","2","1","","","","","","","",""
"2017","","2","psychophysics","126","339047","0.0-7.0-5.0-0.23","4","4","3","3","1","5","2","3","5","5","5","2","0","0","-1","-1","0","0","2","5","5","5","4","3","4","3","3","2","3","5","4","4","7","4","3","5","5","7","7","3","1","3","5","1","7","1","3","3","4","3","1","5","7","5","1","3","7","5","1","1","4","3","2","6","4","6","7","7","7","3","7","7","2","1","7","3","7","1","7","796080806387916801","胡","440","Male","[""坏我"",""好他"",""好我"",""坏他""]","[""弱我"",""强他"",""强我"",""弱他""]","","","","","","","","2","","","","","","","","","SRET","SRET_math_calculate","","key","2","6.943448275861988","768","428","","","","","22/11= ?","2","1","","","","","","","",""
"1945","","9","psychophysics","127","340995","0.0-7.0-5.0-0.24","4","4","3","3","1","5","2","3","5","5","5","2","0","0","-1","-1","0","0","2","5","5","5","4","3","4","3","3","2","3","5","4","4","7","4","3","5","5","7","7","3","1","3","5","1","7","1","3","3","4","3","1","5","7","5","1","3","7","5","1","1","4","3","2","6","4","6","7","7","7","3","7","7","2","1","7","3","7","1","7","796080806387916801","胡","440","Male","[""坏我"",""好他"",""好我"",""坏他""]","[""弱我"",""强他"",""强我"",""弱他""]","","","","","","","","9","","","","","","","","","SRET","SRET_math_calculate","","key","9","6.943571428571262","768","428","","","","","6+3= ?","9","1","","","","","","","",""
"2346","","7","psychophysics","128","343341","0.0-7.0-5.0-0.25","4","4","3","3","1","5","2","3","5","5","5","2","0","0","-1","-1","0","0","2","5","5","5","4","3","4","3","3","2","3","5","4","4","7","4","3","5","5","7","7","3","1","3","5","1","7","1","3","3","4","3","1","5","7","5","1","3","7","5","1","1","4","3","2","6","4","6","7","7","7","3","7","7","2","1","7","3","7","1","7","796080806387916801","胡","440","Male","[""坏我"",""好他"",""好我"",""坏他""]","[""弱我"",""强他"",""强我"",""弱他""]","","","","","","","","7","","","","","","","","","SRET","SRET_math_calculate","","key","7","6.943323442136568","768","428","","","","","13-6= ?","7","1","","","","","","","",""
"1807","","9","psychophysics","129","345149","0.0-7.0-5.0-0.26","4","4","3","3","1","5","2","3","5","5","5","2","0","0","-1","-1","0","0","2","5","5","5","4","3","4","3","3","2","3","5","4","4","7","4","3","5","5","7","7","3","1","3","5","1","7","1","3","3","4","3","1","5","7","5","1","3","7","5","1","1","4","3","2","6","4","6","7","7","7","3","7","7","2","1","7","3","7","1","7","796080806387916801","胡","440","Male","[""坏我"",""好他"",""好我"",""坏他""]","[""弱我"",""强他"",""强我"",""弱他""]","","","","","","","","9","","","","","","","","","SRET","SRET_math_calculate","","key","9","6.943629343629434","768","428","","","","","5+4= ?","9","1","","","","","","","",""
"2075","","2","psychophysics","130","347226","0.0-7.0-5.0-0.27","4","4","3","3","1","5","2","3","5","5","5","2","0","0","-1","-1","0","0","2","5","5","5","4","3","4","3","3","2","3","5","4","4","7","4","3","5","5","7","7","3","1","3","5","1","7","1","3","3","4","3","1","5","7","5","1","3","7","5","1","1","4","3","2","6","4","6","7","7","7","3","7","7","2","1","7","3","7","1","7","796080806387916801","胡","440","Male","[""坏我"",""好他"",""好我"",""坏他""]","[""弱我"",""强他"",""强我"",""弱他""]","","","","","","","","2","","","","","","","","","SRET","SRET_math_calculate","","key","2","6.943624161073864","768","428","","","","","8/4= ?","2","1","","","","","","","",""
"1968","","7","psychophysics","131","349197","0.0-7.0-5.0-0.28","4","4","3","3","1","5","2","3","5","5","5","2","0","0","-1","-1","0","0","2","5","5","5","4","3","4","3","3","2","3","5","4","4","7","4","3","5","5","7","7","3","1","3","5","1","7","1","3","3","4","3","1","5","7","5","1","3","7","5","1","1","4","3","2","6","4","6","7","7","7","3","7","7","2","1","7","3","7","1","7","796080806387916801","胡","440","Male","[""坏我"",""好他"",""好我"",""坏他""]","[""弱我"",""强他"",""强我"",""弱他""]","","","","","","","","7","","","","","","","","","SRET","SRET_math_calculate","","key","7","6.943816254416879","768","428","","","","","8-1= ?","7","1","","","","","","","",""
"2110","","5","psychophysics","132","351308","0.0-7.0-5.0-0.29","4","4","3","3","1","5","2","3","5","5","5","2","0","0","-1","-1","0","0","2","5","5","5","4","3","4","3","3","2","3","5","4","4","7","4","3","5","5","7","7","3","1","3","5","1","7","1","3","3","4","3","1","5","7","5","1","3","7","5","1","1","4","3","2","6","4","6","7","7","7","3","7","7","2","1","7","3","7","1","7","796080806387916801","胡","440","Male","[""坏我"",""好他"",""好我"",""坏他""]","[""弱我"",""强他"",""强我"",""弱他""]","","","","","","","","5","","","","","","","","","SRET","SRET_math_calculate","","key","5","6.9438943894389435","768","428","","","","","12-7= ?","5","1","","","","","","","",""
"2442","","3","psychophysics","133","353751","0.0-7.0-5.0-0.30","4","4","3","3","1","5","2","3","5","5","5","2","0","0","-1","-1","0","0","2","5","5","5","4","3","4","3","3","2","3","5","4","4","7","4","3","5","5","7","7","3","1","3","5","1","7","1","3","3","4","3","1","5","7","5","1","3","7","5","1","1","4","3","2","6","4","6","7","7","7","3","7","7","2","1","7","3","7","1","7","796080806387916801","胡","440","Male","[""坏我"",""好他"",""好我"",""坏他""]","[""弱我"",""强他"",""强我"",""弱他""]","","","","","","","","3","","","","","","","","","SRET","SRET_math_calculate","","key","3","6.943304843304943","768","428","","","","","11-8= ?","3","1","","","","","","","",""
"2404","","5","psychophysics","134","356156","0.0-7.0-5.0-0.31","4","4","3","3","1","5","2","3","5","5","5","2","0","0","-1","-1","0","0","2","5","5","5","4","3","4","3","3","2","3","5","4","4","7","4","3","5","5","7","7","3","1","3","5","1","7","1","3","3","4","3","1","5","7","5","1","3","7","5","1","1","4","3","2","6","4","6","7","7","7","3","7","7","2","1","7","3","7","1","7","796080806387916801","胡","440","Male","[""坏我"",""好他"",""好我"",""坏他""]","[""弱我"",""强他"",""强我"",""弱他""]","","","","","","","","5","","","","","","","","","SRET","SRET_math_calculate","","key","5","6.943478260869565","768","428","","","","","2+3= ?","5","1","","","","","","","",""
"1814","","4","psychophysics","135","357973","0.0-7.0-5.0-0.32","4","4","3","3","1","5","2","3","5","5","5","2","0","0","-1","-1","0","0","2","5","5","5","4","3","4","3","3","2","3","5","4","4","7","4","3","5","5","7","7","3","1","3","5","1","7","1","3","3","4","3","1","5","7","5","1","3","7","5","1","1","4","3","2","6","4","6","7","7","7","3","7","7","2","1","7","3","7","1","7","796080806387916801","胡","440","Male","[""坏我"",""好他"",""好我"",""坏他""]","[""弱我"",""强他"",""强我"",""弱他""]","","","","","","","","4","","","","","","","","","SRET","SRET_math_calculate","","key","4","6.943678160919496","768","428","","","","","3+1= ?","4","1","","","","","","","",""
"1796","","6","psychophysics","136","359771","0.0-7.0-5.0-0.33","4","4","3","3","1","5","2","3","5","5","5","2","0","0","-1","-1","0","0","2","5","5","5","4","3","4","3","3","2","3","5","4","4","7","4","3","5","5","7","7","3","1","3","5","1","7","1","3","3","4","3","1","5","7","5","1","3","7","5","1","1","4","3","2","6","4","6","7","7","7","3","7","7","2","1","7","3","7","1","7","796080806387916801","胡","440","Male","[""坏我"",""好他"",""好我"",""坏他""]","[""弱我"",""强他"",""强我"",""弱他""]","","","","","","","","6","","","","","","","","","SRET","SRET_math_calculate","","key","6","6.9437984496124034","768","428","","","","","2+4= ?","6","1","","","","","","","",""
"1877","","1","psychophysics","137","361649","0.0-7.0-5.0-0.34","4","4","3","3","1","5","2","3","5","5","5","2","0","0","-1","-1","0","0","2","5","5","5","4","3","4","3","3","2","3","5","4","4","7","4","3","5","5","7","7","3","1","3","5","1","7","1","3","3","4","3","1","5","7","5","1","3","7","5","1","1","4","3","2","6","4","6","7","7","7","3","7","7","2","1","7","3","7","1","7","796080806387916801","胡","440","Male","[""坏我"",""好他"",""好我"",""坏他""]","[""弱我"",""强他"",""强我"",""弱他""]","","","","","","","","1","","","","","","","","","SRET","SRET_math_calculate","","key","1","6.944074074073945","768","428","","","","","10-9= ?","1","1","","","","","","","",""
"1836","","1","psychophysics","138","363487","0.0-7.0-5.0-0.35","4","4","3","3","1","5","2","3","5","5","5","2","0","0","-1","-1","0","0","2","5","5","5","4","3","4","3","3","2","3","5","4","4","7","4","3","5","5","7","7","3","1","3","5","1","7","1","3","3","4","3","1","5","7","5","1","3","7","5","1","1","4","3","2","6","4","6","7","7","7","3","7","7","2","1","7","3","7","1","7","796080806387916801","胡","440","Male","[""坏我"",""好他"",""好我"",""坏他""]","[""弱我"",""强他"",""强我"",""弱他""]","","","","","","","","1","","","","","","","","","SRET","SRET_math_calculate","","key","1","6.942965779467681","768","428","","","","","4/4= ?","1","1","","","","","","","",""
"2747","","9","psychophysics","139","366235","0.0-7.0-5.0-0.36","4","4","3","3","1","5","2","3","5","5","5","2","0","0","-1","-1","0","0","2","5","5","5","4","3","4","3","3","2","3","5","4","4","7","4","3","5","5","7","7","3","1","3","5","1","7","1","3","3","4","3","1","5","7","5","1","3","7","5","1","1","4","3","2","6","4","6","7","7","7","3","7","7","2","1","7","3","7","1","7","796080806387916801","胡","440","Male","[""坏我"",""好他"",""好我"",""坏他""]","[""弱我"",""强他"",""强我"",""弱他""]","","","","","","","","9","","","","","","","","","SRET","SRET_math_calculate","","key","9","6.943291139240447","768","428","","","","","32-23= ?","9","1","","","","","","","",""
"1983","","2","psychophysics","140","368219","0.0-7.0-5.0-0.37","4","4","3","3","1","5","2","3","5","5","5","2","0","0","-1","-1","0","0","2","5","5","5","4","3","4","3","3","2","3","5","4","4","7","4","3","5","5","7","7","3","1","3","5","1","7","1","3","3","4","3","1","5","7","5","1","3","7","5","1","1","4","3","2","6","4","6","7","7","7","3","7","7","2","1","7","3","7","1","7","796080806387916801","胡","440","Male","[""坏我"",""好他"",""好我"",""坏他""]","[""弱我"",""强他"",""强我"",""弱他""]","","","","","","","","2","","","","","","","","","SRET","SRET_math_calculate","","key","2","6.943859649122807","768","428","","","","","9-7= ?","2","1","","","","","","","",""
"2028","","7","psychophysics","141","370248","0.0-7.0-5.0-0.38","4","4","3","3","1","5","2","3","5","5","5","2","0","0","-1","-1","0","0","2","5","5","5","4","3","4","3","3","2","3","5","4","4","7","4","3","5","5","7","7","3","1","3","5","1","7","1","3","3","4","3","1","5","7","5","1","3","7","5","1","1","4","3","2","6","4","6","7","7","7","3","7","7","2","1","7","3","7","1","7","796080806387916801","胡","440","Male","[""坏我"",""好他"",""好我"",""坏他""]","[""弱我"",""强他"",""强我"",""弱他""]","","","","","","","","7","","","","","","","","","SRET","SRET_math_calculate","","key","7","6.943298969072165","768","428","","","","","12-5= ?","7","1","","","","","","","",""
"1908","","4","psychophysics","142","372157","0.0-7.0-5.0-0.39","4","4","3","3","1","5","2","3","5","5","5","2","0","0","-1","-1","0","0","2","5","5","5","4","3","4","3","3","2","3","5","4","4","7","4","3","5","5","7","7","3","1","3","5","1","7","1","3","3","4","3","1","5","7","5","1","3","7","5","1","1","4","3","2","6","4","6","7","7","7","3","7","7","2","1","7","3","7","1","7","796080806387916801","胡","440","Male","[""坏我"",""好他"",""好我"",""坏他""]","[""弱我"",""强他"",""强我"",""弱他""]","","","","","","","","4","","","","","","","","","SRET","SRET_math_calculate","","key","4","6.9437956204378715","768","428","","","","","9-5= ?","4","1","","","","","","","",""
