"rt","stimulus","response","trial_type","trial_index","time_elapsed","internal_node_id","ses_1","ses_2","ses_3","ses_4","ses_5","ses_6","ses_7","ses_8","ses_9","ses_10","coreself_1","coreself_2","coreself_3","coreself_4","coreself_5","coreself_6","coreself_7","coreself_8","coreself_9","coreself_10","SGPS_1","SGPS_2","SGPS_3","SGPS_4","SGPS_5","SGPS_6","SGPS_7","SGPS_8","SGPS_9","NPI1","NPI2","NPI3","NPI4","NPI5","NPI6","NPI7","NPI8","NPI9","NPI10","NPI11","NPI12","NPI13","NPI14","NPI15","hsns_1","hsns_2","hsns_3","hsns_4","hsns_5","trap1","hsns_6","hsns_7","hsns_8","hsns_9","hsns_10","subj_idx","friend_name","ParticipantID","value","success","user_agent","responses","item_order","radio_event_ids","radio_event_times","key_event_times","mouse_event_times","straightlining","zigzagging","honeypot","timeout","failed_images","failed_audio","failed_video","view_history","response_type","key_press","avg_frame_time","center_x","center_y","correct_response","correct","identity","Image","word","condition","task_id","screen_id","time_stamp","version_attrib","version_target","IAT","RT","varname","summary","version_attrib2","version_target2","question_order","correct_answer","trap1_item"
"1196","
   <p><div style = ""color: white;font-size:25px;"">您好，欢迎参加本次实验。</div> </p>
   <p><div style = ""color: white;font-size:25px;"">为充分保障您的权利，请确保您已经知晓并同意《参与实验同意书》以及《数据公开知情同意书》。</div></p>
   <p><div style = ""color: white;font-size:25px;"">如果您未见过上述内容，请咨询实验员。</div></p>
   <p><div style = ""color: white;font-size:25px;"">如果您选择继续实验，则表示您已经清楚两份知情同意书的内容并同意。</div></p>
   <p><div style = ""color: pink;font-size:30px;"">请确保您记得day0的实验编号，您将在本次实验输入该编号，若您忘记，请咨询实验员后作答。</div></p>
   <p><div style = ""color: lightblue;font-size:25px;"">请您尽可能认真地作答，我们将依据您在各问卷和按键任务中的作答质量发放报酬。</div></p>
   <p> <div style = ""color: green;font-size:25px;""><按空格键至下页></div> </p>
   "," ","html-keyboard-response","0","1198","0.0-0.0","4","4","4","4","4","4","4","4","4","4","5","5","5","5","5","5","5","5","5","5","1","1","1","1","1","1","1","1","1","0","0","1","1","0","0","0","0","0","1","1","0","1","0","1","5","1","1","2","1","2","1","2","1","4","1","598897916660154368","刘","65","","","","","","","","","","","","","","","","","","","","","","","","","","","","","","","","","","","","","","","","","",""
"","","","call-function","1","1199","0.0-1.0-0.0","4","4","4","4","4","4","4","4","4","4","5","5","5","5","5","5","5","5","5","5","1","1","1","1","1","1","1","1","1","0","0","1","1","0","0","0","0","0","1","1","0","1","0","1","5","1","1","2","1","2","1","2","1","4","1","598897916660154368","刘","65","","","","","","","","","","","","","","","","","","","","","","","","","","","","","","","","","","","","","","","","","",""
"18903","","{""friend_name"":""刘"",""ParticipantID"":""65""}","survey-html-form","2","20103","0.0-1.0-1.0","4","4","4","4","4","4","4","4","4","4","5","5","5","5","5","5","5","5","5","5","1","1","1","1","1","1","1","1","1","0","0","1","1","0","0","0","0","0","1","1","0","1","0","1","5","1","1","2","1","2","1","2","1","4","1","598897916660154368","刘","65","","","","","","","","","","","","","","","","","","","","","","","","","","","","","","","","","","","","","","","","","",""
"","","","fullscreen","3","21443","0.0-2.0","4","4","4","4","4","4","4","4","4","4","5","5","5","5","5","5","5","5","5","5","1","1","1","1","1","1","1","1","1","0","0","1","1","0","0","0","0","0","1","1","0","1","0","1","5","1","1","2","1","2","1","2","1","4","1","598897916660154368","刘","65","","true","{}","","","","","","","","","","","","","","","","","","","","","","","","","","","","","","","","","","","","","","",""
"63762.10000014305","","{""Q01"":""4"",""Q02"":""4"",""Q03"":""4"",""Q04"":""4"",""Q05"":""4"",""Q06"":""4"",""Q07"":""4"",""Q08"":""4"",""Q09"":""4"",""Q10"":""4""}","survey-template","4","85209","0.0-3.0","4","4","4","4","4","4","4","4","4","4","5","5","5","5","5","5","5","5","5","5","1","1","1","1","1","1","1","1","1","0","0","1","1","0","0","0","0","0","1","1","0","1","0","1","5","1","1","2","1","2","1","2","1","4","1","598897916660154368","刘","65","","","","{""Q01"":""4"",""Q02"":""4"",""Q03"":""4"",""Q04"":""4"",""Q05"":""4"",""Q06"":""4"",""Q07"":""4"",""Q08"":""4"",""Q09"":""4"",""Q10"":""4""}","[0,1,2,3,4,5,6,7,8,9]","[""Q05"",""Q05"",""Q02"",""Q01"",""Q03"",""Q04"",""Q06"",""Q08"",""Q09"",""Q10"",""Q07""]","[46665.200000047684,46984.5,49192.60000014305,50072.700000047684,50952.700000047684,52920.60000014305,54545.60000014305,57545.10000014305,58170.40000009537,59064.5,62408.60000014305]","[]","[1776.8000001907349,44272.700000047684,45576.700000047684,46464.800000190735,46665.200000047684,46984.5,47584.800000190735,48248.40000009537,49192.60000014305,50072.700000047684,50952.700000047684,51960.60000014305,52920.60000014305,54048.5,54545.60000014305,55160.60000014305,57545.10000014305,57905.5,58170.40000009537,58560.40000009537,58800.700000047684,59064.5,59816.800000190735,62408.60000014305,63224.700000047684,63760.700000047684]","0.5","0.5555555555555556","0","","","","","","","","","","","","","","","","","","","","","","","","","","","","","",""
"15515.099999904633","","{""Q01"":""5"",""Q02"":""5"",""Q03"":""5"",""Q04"":""5"",""Q05"":""5"",""Q06"":""5"",""Q07"":""5"",""Q08"":""5"",""Q09"":""5"",""Q10"":""5""}","survey-template","5","100729","0.0-4.0","4","4","4","4","4","4","4","4","4","4","5","5","5","5","5","5","5","5","5","5","1","1","1","1","1","1","1","1","1","0","0","1","1","0","0","0","0","0","1","1","0","1","0","1","5","1","1","2","1","2","1","2","1","4","1","598897916660154368","刘","65","","","","{""Q01"":""5"",""Q02"":""5"",""Q03"":""5"",""Q04"":""5"",""Q05"":""5"",""Q06"":""5"",""Q07"":""5"",""Q08"":""5"",""Q09"":""5"",""Q10"":""5""}","[0,1,2,3,4,5,6,7,8,9]","[""Q06"",""Q07"",""Q08"",""Q09"",""Q10"",""Q05"",""Q04"",""Q02"",""Q03"",""Q01""]","[1905.2000000476837,2874.4000000953674,3473.0999999046326,5777.299999952316,6961.299999952316,8113.599999904633,10193.400000095367,12177.5,12673.400000095367,14625.5]","[]","[1905.2000000476837,2874.4000000953674,3473.0999999046326,4833.299999952316,5777.299999952316,6961.299999952316,8113.599999904633,10193.400000095367,12177.5,12673.400000095367,13801.200000047684,14625.5,15513.5]","0.6","0.7777777777777778","0","","","","","","","","","","","","","","","","","","","","","","","","","","","","","",""
"","","","preload","6","100984","0.0-5.0","4","4","4","4","4","4","4","4","4","4","5","5","5","5","5","5","5","5","5","5","1","1","1","1","1","1","1","1","1","0","0","1","1","0","0","0","0","0","1","1","0","1","0","1","5","1","1","2","1","2","1","2","1","4","1","598897916660154368","刘","65","","true","","","","","","","","","","","false","[]","[]","[]","","","","","","","","","","","","","","","","","","","","","","","","","",""
"26791","","","instructions","7","127774","0.0-6.0","4","4","4","4","4","4","4","4","4","4","5","5","5","5","5","5","5","5","5","5","1","1","1","1","1","1","1","1","1","0","0","1","1","0","0","0","0","0","1","1","0","1","0","1","5","1","1","2","1","2","1","2","1","4","1","598897916660154368","刘","65","","","","","","","","","","","","","","","","","[{""page_index"":0,""viewing_time"":26790}]","","","","","","","","","","","","","","","","","","","","","","","","",""
"99287","","","instructions","8","227062","0.0-7.0-0.0-0.0","4","4","4","4","4","4","4","4","4","4","5","5","5","5","5","5","5","5","5","5","1","1","1","1","1","1","1","1","1","0","0","1","1","0","0","0","0","0","1","1","0","1","0","1","5","1","1","2","1","2","1","2","1","4","1","598897916660154368","刘","65","","","","","","","","","","","","","","","","","[{""page_index"":0,""viewing_time"":97431},{""page_index"":1,""viewing_time"":1056},{""page_index"":2,""viewing_time"":800}]","","","","","","","","","","","","","","","","","","","","","","","","",""
"829","","f","psychophysics","9","228894","0.0-7.0-0.0-1.0-0.0-0.0","4","4","4","4","4","4","4","4","4","4","5","5","5","5","5","5","5","5","5","5","1","1","1","1","1","1","1","1","1","0","0","1","1","0","0","0","0","0","1","1","0","1","0","1","5","1","1","2","1","2","1","2","1","4","1","598897916660154368","刘","65","","","","nonmatch","","","","","","","","","","","","","","key","f","16.664435185185372","768","428","f","true","nonmatch","img/hexagon.png","三角","六边","ALT1_1","prac_ALT1_1","","","","","","","","","","","",""
"null","<span style='color:GreenYellow; font-size: 70px;'>正确! </span>","null","html-keyboard-response","10","229403","0.0-7.0-0.0-1.0-0.0-1.0","4","4","4","4","4","4","4","4","4","4","5","5","5","5","5","5","5","5","5","5","1","1","1","1","1","1","1","1","1","0","0","1","1","0","0","0","0","0","1","1","0","1","0","1","5","1","1","2","1","2","1","2","1","4","1","598897916660154368","刘","65","","","","","","","","","","","","","","","","","","","","","","","","","","","","","","feedback_test","","","","","","","","","","","",""
"810","","j","psychophysics","11","231214","0.0-7.0-0.0-1.0-0.0-0.1","4","4","4","4","4","4","4","4","4","4","5","5","5","5","5","5","5","5","5","5","1","1","1","1","1","1","1","1","1","0","0","1","1","0","0","0","0","0","1","1","0","1","0","1","5","1","1","2","1","2","1","2","1","4","1","598897916660154368","刘","65","","","","match","","","","","","","","","","","","","","key","j","16.664703703703708","768","428","j","true","match","img/hexagon.png","六边","六边","ALT1_1","prac_ALT1_1","","","","","","","","","","","",""
"null","<span style='color:GreenYellow; font-size: 70px;'>正确! </span>","null","html-keyboard-response","12","231716","0.0-7.0-0.0-1.0-0.0-1.1","4","4","4","4","4","4","4","4","4","4","5","5","5","5","5","5","5","5","5","5","1","1","1","1","1","1","1","1","1","0","0","1","1","0","0","0","0","0","1","1","0","1","0","1","5","1","1","2","1","2","1","2","1","4","1","598897916660154368","刘","65","","","","","","","","","","","","","","","","","","","","","","","","","","","","","","feedback_test","","","","","","","","","","","",""
"688","","f","psychophysics","13","233406","0.0-7.0-0.0-1.0-0.0-0.2","4","4","4","4","4","4","4","4","4","4","5","5","5","5","5","5","5","5","5","5","1","1","1","1","1","1","1","1","1","0","0","1","1","0","0","0","0","0","1","1","0","1","0","1","5","1","1","2","1","2","1","2","1","4","1","598897916660154368","刘","65","","","","nonmatch","","","","","","","","","","","","","","key","f","16.66593999999983","768","428","f","true","nonmatch","img/triangle.png","六边","三角","ALT1_1","prac_ALT1_1","","","","","","","","","","","",""
"null","<span style='color:GreenYellow; font-size: 70px;'>正确! </span>","null","html-keyboard-response","14","233906","0.0-7.0-0.0-1.0-0.0-1.2","4","4","4","4","4","4","4","4","4","4","5","5","5","5","5","5","5","5","5","5","1","1","1","1","1","1","1","1","1","0","0","1","1","0","0","0","0","0","1","1","0","1","0","1","5","1","1","2","1","2","1","2","1","4","1","598897916660154368","刘","65","","","","","","","","","","","","","","","","","","","","","","","","","","","","","","feedback_test","","","","","","","","","","","",""
"802","","j","psychophysics","15","235710","0.0-7.0-0.0-1.0-0.0-0.3","4","4","4","4","4","4","4","4","4","4","5","5","5","5","5","5","5","5","5","5","1","1","1","1","1","1","1","1","1","0","0","1","1","0","0","0","0","0","1","1","0","1","0","1","5","1","1","2","1","2","1","2","1","4","1","598897916660154368","刘","65","","","","match","","","","","","","","","","","","","","key","j","16.664757009345667","768","428","j","true","match","img/circle.png","圆形","圆形","ALT1_1","prac_ALT1_1","","","","","","","","","","","",""
"null","<span style='color:GreenYellow; font-size: 70px;'>正确! </span>","null","html-keyboard-response","16","236211","0.0-7.0-0.0-1.0-0.0-1.3","4","4","4","4","4","4","4","4","4","4","5","5","5","5","5","5","5","5","5","5","1","1","1","1","1","1","1","1","1","0","0","1","1","0","0","0","0","0","1","1","0","1","0","1","5","1","1","2","1","2","1","2","1","4","1","598897916660154368","刘","65","","","","","","","","","","","","","","","","","","","","","","","","","","","","","","feedback_test","","","","","","","","","","","",""
"754","","f","psychophysics","17","237966","0.0-7.0-0.0-1.0-0.0-0.4","4","4","4","4","4","4","4","4","4","4","5","5","5","5","5","5","5","5","5","5","1","1","1","1","1","1","1","1","1","0","0","1","1","0","0","0","0","0","1","1","0","1","0","1","5","1","1","2","1","2","1","2","1","4","1","598897916660154368","刘","65","","","","nonmatch","","","","","","","","","","","","","","key","f","16.66465384615395","768","428","f","true","nonmatch","img/diamond.png","六边","菱形","ALT1_1","prac_ALT1_1","","","","","","","","","","","",""
"null","<span style='color:GreenYellow; font-size: 70px;'>正确! </span>","null","html-keyboard-response","18","238467","0.0-7.0-0.0-1.0-0.0-1.4","4","4","4","4","4","4","4","4","4","4","5","5","5","5","5","5","5","5","5","5","1","1","1","1","1","1","1","1","1","0","0","1","1","0","0","0","0","0","1","1","0","1","0","1","5","1","1","2","1","2","1","2","1","4","1","598897916660154368","刘","65","","","","","","","","","","","","","","","","","","","","","","","","","","","","","","feedback_test","","","","","","","","","","","",""
"593","","f","psychophysics","19","240062","0.0-7.0-0.0-1.0-0.0-0.5","4","4","4","4","4","4","4","4","4","4","5","5","5","5","5","5","5","5","5","5","1","1","1","1","1","1","1","1","1","0","0","1","1","0","0","0","0","0","1","1","0","1","0","1","5","1","1","2","1","2","1","2","1","4","1","598897916660154368","刘","65","","","","nonmatch","","","","","","","","","","","","","","key","f","16.666231578947535","768","428","j","false","match","img/triangle.png","三角","三角","ALT1_1","prac_ALT1_1","","","","","","","","","","","",""
"null","<span style='color:red; font-size: 70px;'>错误! </span>","null","html-keyboard-response","20","240563","0.0-7.0-0.0-1.0-0.0-1.5","4","4","4","4","4","4","4","4","4","4","5","5","5","5","5","5","5","5","5","5","1","1","1","1","1","1","1","1","1","0","0","1","1","0","0","0","0","0","1","1","0","1","0","1","5","1","1","2","1","2","1","2","1","4","1","598897916660154368","刘","65","","","","","","","","","","","","","","","","","","","","","","","","","","","","","","feedback_test","","","","","","","","","","","",""
"713","","f","psychophysics","21","242278","0.0-7.0-0.0-1.0-0.0-0.6","4","4","4","4","4","4","4","4","4","4","5","5","5","5","5","5","5","5","5","5","1","1","1","1","1","1","1","1","1","0","0","1","1","0","0","0","0","0","1","1","0","1","0","1","5","1","1","2","1","2","1","2","1","4","1","598897916660154368","刘","65","","","","nonmatch","","","","","","","","","","","","","","key","f","16.664656862744938","768","428","f","true","nonmatch","img/diamond.png","圆形","菱形","ALT1_1","prac_ALT1_1","","","","","","","","","","","",""
"null","<span style='color:GreenYellow; font-size: 70px;'>正确! </span>","null","html-keyboard-response","22","242779","0.0-7.0-0.0-1.0-0.0-1.6","4","4","4","4","4","4","4","4","4","4","5","5","5","5","5","5","5","5","5","5","1","1","1","1","1","1","1","1","1","0","0","1","1","0","0","0","0","0","1","1","0","1","0","1","5","1","1","2","1","2","1","2","1","4","1","598897916660154368","刘","65","","","","","","","","","","","","","","","","","","","","","","","","","","","","","","feedback_test","","","","","","","","","","","",""
"673","","f","psychophysics","23","244454","0.0-7.0-0.0-1.0-0.0-0.7","4","4","4","4","4","4","4","4","4","4","5","5","5","5","5","5","5","5","5","5","1","1","1","1","1","1","1","1","1","0","0","1","1","0","0","0","0","0","1","1","0","1","0","1","5","1","1","2","1","2","1","2","1","4","1","598897916660154368","刘","65","","","","nonmatch","","","","","","","","","","","","","","key","f","16.66497979797993","768","428","f","true","nonmatch","img/hexagon.png","圆形","六边","ALT1_1","prac_ALT1_1","","","","","","","","","","","",""
"null","<span style='color:GreenYellow; font-size: 70px;'>正确! </span>","null","html-keyboard-response","24","244956","0.0-7.0-0.0-1.0-0.0-1.7","4","4","4","4","4","4","4","4","4","4","5","5","5","5","5","5","5","5","5","5","1","1","1","1","1","1","1","1","1","0","0","1","1","0","0","0","0","0","1","1","0","1","0","1","5","1","1","2","1","2","1","2","1","4","1","598897916660154368","刘","65","","","","","","","","","","","","","","","","","","","","","","","","","","","","","","feedback_test","","","","","","","","","","","",""
"649","","j","psychophysics","25","246606","0.0-7.0-0.0-1.0-0.0-0.8","4","4","4","4","4","4","4","4","4","4","5","5","5","5","5","5","5","5","5","5","1","1","1","1","1","1","1","1","1","0","0","1","1","0","0","0","0","0","1","1","0","1","0","1","5","1","1","2","1","2","1","2","1","4","1","598897916660154368","刘","65","","","","match","","","","","","","","","","","","","","key","j","16.664887755101887","768","428","j","true","match","img/hexagon.png","六边","六边","ALT1_1","prac_ALT1_1","","","","","","","","","","","",""
"null","<span style='color:GreenYellow; font-size: 70px;'>正确! </span>","null","html-keyboard-response","26","247109","0.0-7.0-0.0-1.0-0.0-1.8","4","4","4","4","4","4","4","4","4","4","5","5","5","5","5","5","5","5","5","5","1","1","1","1","1","1","1","1","1","0","0","1","1","0","0","0","0","0","1","1","0","1","0","1","5","1","1","2","1","2","1","2","1","4","1","598897916660154368","刘","65","","","","","","","","","","","","","","","","","","","","","","","","","","","","","","feedback_test","","","","","","","","","","","",""
"592","","f","psychophysics","27","248702","0.0-7.0-0.0-1.0-0.0-0.9","4","4","4","4","4","4","4","4","4","4","5","5","5","5","5","5","5","5","5","5","1","1","1","1","1","1","1","1","1","0","0","1","1","0","0","0","0","0","1","1","0","1","0","1","5","1","1","2","1","2","1","2","1","4","1","598897916660154368","刘","65","","","","nonmatch","","","","","","","","","","","","","","key","f","16.66462765957453","768","428","f","true","nonmatch","img/triangle.png","圆形","三角","ALT1_1","prac_ALT1_1","","","","","","","","","","","",""
"null","<span style='color:GreenYellow; font-size: 70px;'>正确! </span>","null","html-keyboard-response","28","249203","0.0-7.0-0.0-1.0-0.0-1.9","4","4","4","4","4","4","4","4","4","4","5","5","5","5","5","5","5","5","5","5","1","1","1","1","1","1","1","1","1","0","0","1","1","0","0","0","0","0","1","1","0","1","0","1","5","1","1","2","1","2","1","2","1","4","1","598897916660154368","刘","65","","","","","","","","","","","","","","","","","","","","","","","","","","","","","","feedback_test","","","","","","","","","","","",""
"905","","j","psychophysics","29","251110","0.0-7.0-0.0-1.0-0.0-0.10","4","4","4","4","4","4","4","4","4","4","5","5","5","5","5","5","5","5","5","5","1","1","1","1","1","1","1","1","1","0","0","1","1","0","0","0","0","0","1","1","0","1","0","1","5","1","1","2","1","2","1","2","1","4","1","598897916660154368","刘","65","","","","match","","","","","","","","","","","","","","key","j","16.663157894736894","768","428","j","true","match","img/diamond.png","菱形","菱形","ALT1_1","prac_ALT1_1","","","","","","","","","","","",""
"null","<span style='color:GreenYellow; font-size: 70px;'>正确! </span>","null","html-keyboard-response","30","251612","0.0-7.0-0.0-1.0-0.0-1.10","4","4","4","4","4","4","4","4","4","4","5","5","5","5","5","5","5","5","5","5","1","1","1","1","1","1","1","1","1","0","0","1","1","0","0","0","0","0","1","1","0","1","0","1","5","1","1","2","1","2","1","2","1","4","1","598897916660154368","刘","65","","","","","","","","","","","","","","","","","","","","","","","","","","","","","","feedback_test","","","","","","","","","","","",""
"592","","j","psychophysics","31","253206","0.0-7.0-0.0-1.0-0.0-0.11","4","4","4","4","4","4","4","4","4","4","5","5","5","5","5","5","5","5","5","5","1","1","1","1","1","1","1","1","1","0","0","1","1","0","0","0","0","0","1","1","0","1","0","1","5","1","1","2","1","2","1","2","1","4","1","598897916660154368","刘","65","","","","match","","","","","","","","","","","","","","key","j","16.664851063829932","768","428","j","true","match","img/circle.png","圆形","圆形","ALT1_1","prac_ALT1_1","","","","","","","","","","","",""
"null","<span style='color:GreenYellow; font-size: 70px;'>正确! </span>","null","html-keyboard-response","32","253708","0.0-7.0-0.0-1.0-0.0-1.11","4","4","4","4","4","4","4","4","4","4","5","5","5","5","5","5","5","5","5","5","1","1","1","1","1","1","1","1","1","0","0","1","1","0","0","0","0","0","1","1","0","1","0","1","5","1","1","2","1","2","1","2","1","4","1","598897916660154368","刘","65","","","","","","","","","","","","","","","","","","","","","","","","","","","","","","feedback_test","","","","","","","","","","","",""
"553","","j","psychophysics","33","255262","0.0-7.0-0.0-1.0-0.0-0.12","4","4","4","4","4","4","4","4","4","4","5","5","5","5","5","5","5","5","5","5","1","1","1","1","1","1","1","1","1","0","0","1","1","0","0","0","0","0","1","1","0","1","0","1","5","1","1","2","1","2","1","2","1","4","1","598897916660154368","刘","65","","","","match","","","","","","","","","","","","","","key","j","16.664630434782694","768","428","j","true","match","img/triangle.png","三角","三角","ALT1_1","prac_ALT1_1","","","","","","","","","","","",""
"null","<span style='color:GreenYellow; font-size: 70px;'>正确! </span>","null","html-keyboard-response","34","255764","0.0-7.0-0.0-1.0-0.0-1.12","4","4","4","4","4","4","4","4","4","4","5","5","5","5","5","5","5","5","5","5","1","1","1","1","1","1","1","1","1","0","0","1","1","0","0","0","0","0","1","1","0","1","0","1","5","1","1","2","1","2","1","2","1","4","1","598897916660154368","刘","65","","","","","","","","","","","","","","","","","","","","","","","","","","","","","","feedback_test","","","","","","","","","","","",""
"568","","f","psychophysics","35","257334","0.0-7.0-0.0-1.0-0.0-0.13","4","4","4","4","4","4","4","4","4","4","5","5","5","5","5","5","5","5","5","5","1","1","1","1","1","1","1","1","1","0","0","1","1","0","0","0","0","0","1","1","0","1","0","1","5","1","1","2","1","2","1","2","1","4","1","598897916660154368","刘","65","","","","nonmatch","","","","","","","","","","","","","","key","f","16.665989247311884","768","428","f","true","nonmatch","img/circle.png","六边","圆形","ALT1_1","prac_ALT1_1","","","","","","","","","","","",""
"null","<span style='color:GreenYellow; font-size: 70px;'>正确! </span>","null","html-keyboard-response","36","257835","0.0-7.0-0.0-1.0-0.0-1.13","4","4","4","4","4","4","4","4","4","4","5","5","5","5","5","5","5","5","5","5","1","1","1","1","1","1","1","1","1","0","0","1","1","0","0","0","0","0","1","1","0","1","0","1","5","1","1","2","1","2","1","2","1","4","1","598897916660154368","刘","65","","","","","","","","","","","","","","","","","","","","","","","","","","","","","","feedback_test","","","","","","","","","","","",""
"587","","j","psychophysics","37","259423","0.0-7.0-0.0-1.0-0.0-0.14","4","4","4","4","4","4","4","4","4","4","5","5","5","5","5","5","5","5","5","5","1","1","1","1","1","1","1","1","1","0","0","1","1","0","0","0","0","0","1","1","0","1","0","1","5","1","1","2","1","2","1","2","1","4","1","598897916660154368","刘","65","","","","match","","","","","","","","","","","","","","key","j","16.664542553191225","768","428","j","true","match","img/triangle.png","三角","三角","ALT1_1","prac_ALT1_1","","","","","","","","","","","",""
"null","<span style='color:GreenYellow; font-size: 70px;'>正确! </span>","null","html-keyboard-response","38","259925","0.0-7.0-0.0-1.0-0.0-1.14","4","4","4","4","4","4","4","4","4","4","5","5","5","5","5","5","5","5","5","5","1","1","1","1","1","1","1","1","1","0","0","1","1","0","0","0","0","0","1","1","0","1","0","1","5","1","1","2","1","2","1","2","1","4","1","598897916660154368","刘","65","","","","","","","","","","","","","","","","","","","","","","","","","","","","","","feedback_test","","","","","","","","","","","",""
"624","","f","psychophysics","39","261550","0.0-7.0-0.0-1.0-0.0-0.15","4","4","4","4","4","4","4","4","4","4","5","5","5","5","5","5","5","5","5","5","1","1","1","1","1","1","1","1","1","0","0","1","1","0","0","0","0","0","1","1","0","1","0","1","5","1","1","2","1","2","1","2","1","4","1","598897916660154368","刘","65","","","","nonmatch","","","","","","","","","","","","","","key","f","16.66584374999972","768","428","f","true","nonmatch","img/circle.png","三角","圆形","ALT1_1","prac_ALT1_1","","","","","","","","","","","",""
"null","<span style='color:GreenYellow; font-size: 70px;'>正确! </span>","null","html-keyboard-response","40","262051","0.0-7.0-0.0-1.0-0.0-1.15","4","4","4","4","4","4","4","4","4","4","5","5","5","5","5","5","5","5","5","5","1","1","1","1","1","1","1","1","1","0","0","1","1","0","0","0","0","0","1","1","0","1","0","1","5","1","1","2","1","2","1","2","1","4","1","598897916660154368","刘","65","","","","","","","","","","","","","","","","","","","","","","","","","","","","","","feedback_test","","","","","","","","","","","",""
"602","","j","psychophysics","41","263654","0.0-7.0-0.0-1.0-0.0-0.16","4","4","4","4","4","4","4","4","4","4","5","5","5","5","5","5","5","5","5","5","1","1","1","1","1","1","1","1","1","0","0","1","1","0","0","0","0","0","1","1","0","1","0","1","5","1","1","2","1","2","1","2","1","4","1","598897916660154368","刘","65","","","","match","","","","","","","","","","","","","","key","j","16.665978947368842","768","428","j","true","match","img/circle.png","圆形","圆形","ALT1_1","prac_ALT1_1","","","","","","","","","","","",""
"null","<span style='color:GreenYellow; font-size: 70px;'>正确! </span>","null","html-keyboard-response","42","264156","0.0-7.0-0.0-1.0-0.0-1.16","4","4","4","4","4","4","4","4","4","4","5","5","5","5","5","5","5","5","5","5","1","1","1","1","1","1","1","1","1","0","0","1","1","0","0","0","0","0","1","1","0","1","0","1","5","1","1","2","1","2","1","2","1","4","1","598897916660154368","刘","65","","","","","","","","","","","","","","","","","","","","","","","","","","","","","","feedback_test","","","","","","","","","","","",""
"425","","j","psychophysics","43","265582","0.0-7.0-0.0-1.0-0.0-0.17","4","4","4","4","4","4","4","4","4","4","5","5","5","5","5","5","5","5","5","5","1","1","1","1","1","1","1","1","1","0","0","1","1","0","0","0","0","0","1","1","0","1","0","1","5","1","1","2","1","2","1","2","1","4","1","598897916660154368","刘","65","","","","match","","","","","","","","","","","","","","key","j","16.665000000000273","768","428","f","false","nonmatch","img/circle.png","菱形","圆形","ALT1_1","prac_ALT1_1","","","","","","","","","","","",""
"null","<span style='color:red; font-size: 70px;'>错误! </span>","null","html-keyboard-response","44","266085","0.0-7.0-0.0-1.0-0.0-1.17","4","4","4","4","4","4","4","4","4","4","5","5","5","5","5","5","5","5","5","5","1","1","1","1","1","1","1","1","1","0","0","1","1","0","0","0","0","0","1","1","0","1","0","1","5","1","1","2","1","2","1","2","1","4","1","598897916660154368","刘","65","","","","","","","","","","","","","","","","","","","","","","","","","","","","","","feedback_test","","","","","","","","","","","",""
"847","","j","psychophysics","45","267934","0.0-7.0-0.0-1.0-0.0-0.18","4","4","4","4","4","4","4","4","4","4","5","5","5","5","5","5","5","5","5","5","1","1","1","1","1","1","1","1","1","0","0","1","1","0","0","0","0","0","1","1","0","1","0","1","5","1","1","2","1","2","1","2","1","4","1","598897916660154368","刘","65","","","","match","","","","","","","","","","","","","","key","j","16.66442727272727","768","428","j","true","match","img/diamond.png","菱形","菱形","ALT1_1","prac_ALT1_1","","","","","","","","","","","",""
"null","<span style='color:GreenYellow; font-size: 70px;'>正确! </span>","null","html-keyboard-response","46","268436","0.0-7.0-0.0-1.0-0.0-1.18","4","4","4","4","4","4","4","4","4","4","5","5","5","5","5","5","5","5","5","5","1","1","1","1","1","1","1","1","1","0","0","1","1","0","0","0","0","0","1","1","0","1","0","1","5","1","1","2","1","2","1","2","1","4","1","598897916660154368","刘","65","","","","","","","","","","","","","","","","","","","","","","","","","","","","","","feedback_test","","","","","","","","","","","",""
"665","","j","psychophysics","47","270102","0.0-7.0-0.0-1.0-0.0-0.19","4","4","4","4","4","4","4","4","4","4","5","5","5","5","5","5","5","5","5","5","1","1","1","1","1","1","1","1","1","0","0","1","1","0","0","0","0","0","1","1","0","1","0","1","5","1","1","2","1","2","1","2","1","4","1","598897916660154368","刘","65","","","","match","","","","","","","","","","","","","","key","j","16.665888888888986","768","428","j","true","match","img/diamond.png","菱形","菱形","ALT1_1","prac_ALT1_1","","","","","","","","","","","",""
"null","<span style='color:GreenYellow; font-size: 70px;'>正确! </span>","null","html-keyboard-response","48","270605","0.0-7.0-0.0-1.0-0.0-1.19","4","4","4","4","4","4","4","4","4","4","5","5","5","5","5","5","5","5","5","5","1","1","1","1","1","1","1","1","1","0","0","1","1","0","0","0","0","0","1","1","0","1","0","1","5","1","1","2","1","2","1","2","1","4","1","598897916660154368","刘","65","","","","","","","","","","","","","","","","","","","","","","","","","","","","","","feedback_test","","","","","","","","","","","",""
"744","","j","psychophysics","49","272351","0.0-7.0-0.0-1.0-0.0-0.20","4","4","4","4","4","4","4","4","4","4","5","5","5","5","5","5","5","5","5","5","1","1","1","1","1","1","1","1","1","0","0","1","1","0","0","0","0","0","1","1","0","1","0","1","5","1","1","2","1","2","1","2","1","4","1","598897916660154368","刘","65","","","","match","","","","","","","","","","","","","","key","j","16.66452884615361","768","428","j","true","match","img/hexagon.png","六边","六边","ALT1_1","prac_ALT1_1","","","","","","","","","","","",""
"null","<span style='color:GreenYellow; font-size: 70px;'>正确! </span>","null","html-keyboard-response","50","272859","0.0-7.0-0.0-1.0-0.0-1.20","4","4","4","4","4","4","4","4","4","4","5","5","5","5","5","5","5","5","5","5","1","1","1","1","1","1","1","1","1","0","0","1","1","0","0","0","0","0","1","1","0","1","0","1","5","1","1","2","1","2","1","2","1","4","1","598897916660154368","刘","65","","","","","","","","","","","","","","","","","","","","","","","","","","","","","","feedback_test","","","","","","","","","","","",""
"594","","f","psychophysics","51","274455","0.0-7.0-0.0-1.0-0.0-0.21","4","4","4","4","4","4","4","4","4","4","5","5","5","5","5","5","5","5","5","5","1","1","1","1","1","1","1","1","1","0","0","1","1","0","0","0","0","0","1","1","0","1","0","1","5","1","1","2","1","2","1","2","1","4","1","598897916660154368","刘","65","","","","nonmatch","","","","","","","","","","","","","","key","f","16.664978723403962","768","428","f","true","nonmatch","img/hexagon.png","菱形","六边","ALT1_1","prac_ALT1_1","","","","","","","","","","","",""
"null","<span style='color:GreenYellow; font-size: 70px;'>正确! </span>","null","html-keyboard-response","52","274956","0.0-7.0-0.0-1.0-0.0-1.21","4","4","4","4","4","4","4","4","4","4","5","5","5","5","5","5","5","5","5","5","1","1","1","1","1","1","1","1","1","0","0","1","1","0","0","0","0","0","1","1","0","1","0","1","5","1","1","2","1","2","1","2","1","4","1","598897916660154368","刘","65","","","","","","","","","","","","","","","","","","","","","","","","","","","","","","feedback_test","","","","","","","","","","","",""
"730","","f","psychophysics","53","276686","0.0-7.0-0.0-1.0-0.0-0.22","4","4","4","4","4","4","4","4","4","4","5","5","5","5","5","5","5","5","5","5","1","1","1","1","1","1","1","1","1","0","0","1","1","0","0","0","0","0","1","1","0","1","0","1","5","1","1","2","1","2","1","2","1","4","1","598897916660154368","刘","65","","","","nonmatch","","","","","","","","","","","","","","key","f","16.666078431372572","768","428","f","true","nonmatch","img/diamond.png","三角","菱形","ALT1_1","prac_ALT1_1","","","","","","","","","","","",""
"null","<span style='color:GreenYellow; font-size: 70px;'>正确! </span>","null","html-keyboard-response","54","277188","0.0-7.0-0.0-1.0-0.0-1.22","4","4","4","4","4","4","4","4","4","4","5","5","5","5","5","5","5","5","5","5","1","1","1","1","1","1","1","1","1","0","0","1","1","0","0","0","0","0","1","1","0","1","0","1","5","1","1","2","1","2","1","2","1","4","1","598897916660154368","刘","65","","","","","","","","","","","","","","","","","","","","","","","","","","","","","","feedback_test","","","","","","","","","","","",""
"745","","f","psychophysics","55","278934","0.0-7.0-0.0-1.0-0.0-0.23","4","4","4","4","4","4","4","4","4","4","5","5","5","5","5","5","5","5","5","5","1","1","1","1","1","1","1","1","1","0","0","1","1","0","0","0","0","0","1","1","0","1","0","1","5","1","1","2","1","2","1","2","1","4","1","598897916660154368","刘","65","","","","nonmatch","","","","","","","","","","","","","","key","f","16.664519230769095","768","428","f","true","nonmatch","img/triangle.png","菱形","三角","ALT1_1","prac_ALT1_1","","","","","","","","","","","",""
"null","<span style='color:GreenYellow; font-size: 70px;'>正确! </span>","null","html-keyboard-response","56","279435","0.0-7.0-0.0-1.0-0.0-1.23","4","4","4","4","4","4","4","4","4","4","5","5","5","5","5","5","5","5","5","5","1","1","1","1","1","1","1","1","1","0","0","1","1","0","0","0","0","0","1","1","0","1","0","1","5","1","1","2","1","2","1","2","1","4","1","598897916660154368","刘","65","","","","","","","","","","","","","","","","","","","","","","","","","","","","","","feedback_test","","","","","","","","","","","",""
"537","","j","psychophysics","57","280974","0.0-7.0-0.0-1.0-0.0-0.24","4","4","4","4","4","4","4","4","4","4","5","5","5","5","5","5","5","5","5","5","1","1","1","1","1","1","1","1","1","0","0","1","1","0","0","0","0","0","1","1","0","1","0","1","5","1","1","2","1","2","1","2","1","4","1","598897916660154368","刘","65","","","","match","","","","","","","","","","","","","","key","j","16.665902173913427","768","428","j","true","match","img/circle.png","圆形","圆形","ALT1_1","prac_ALT1_1","","","","","","","","","","","",""
"null","<span style='color:GreenYellow; font-size: 70px;'>正确! </span>","null","html-keyboard-response","58","281481","0.0-7.0-0.0-1.0-0.0-1.24","4","4","4","4","4","4","4","4","4","4","5","5","5","5","5","5","5","5","5","5","1","1","1","1","1","1","1","1","1","0","0","1","1","0","0","0","0","0","1","1","0","1","0","1","5","1","1","2","1","2","1","2","1","4","1","598897916660154368","刘","65","","","","","","","","","","","","","","","","","","","","","","","","","","","","","","feedback_test","","","","","","","","","","","",""
"684","","f","psychophysics","59","283167","0.0-7.0-0.0-1.0-0.0-0.25","4","4","4","4","4","4","4","4","4","4","5","5","5","5","5","5","5","5","5","5","1","1","1","1","1","1","1","1","1","0","0","1","1","0","0","0","0","0","1","1","0","1","0","1","5","1","1","2","1","2","1","2","1","4","1","598897916660154368","刘","65","","","","nonmatch","","","","","","","","","","","","","","key","f","16.666300000000046","768","428","f","true","nonmatch","img/circle.png","六边","圆形","ALT1_1","prac_ALT1_1","","","","","","","","","","","",""
"null","<span style='color:GreenYellow; font-size: 70px;'>正确! </span>","null","html-keyboard-response","60","283668","0.0-7.0-0.0-1.0-0.0-1.25","4","4","4","4","4","4","4","4","4","4","5","5","5","5","5","5","5","5","5","5","1","1","1","1","1","1","1","1","1","0","0","1","1","0","0","0","0","0","1","1","0","1","0","1","5","1","1","2","1","2","1","2","1","4","1","598897916660154368","刘","65","","","","","","","","","","","","","","","","","","","","","","","","","","","","","","feedback_test","","","","","","","","","","","",""
"690","","f","psychophysics","61","285359","0.0-7.0-0.0-1.0-0.0-0.26","4","4","4","4","4","4","4","4","4","4","5","5","5","5","5","5","5","5","5","5","1","1","1","1","1","1","1","1","1","0","0","1","1","0","0","0","0","0","1","1","0","1","0","1","5","1","1","2","1","2","1","2","1","4","1","598897916660154368","刘","65","","","","nonmatch","","","","","","","","","","","","","","key","f","16.66473267326768","768","428","f","true","nonmatch","img/circle.png","三角","圆形","ALT1_1","prac_ALT1_1","","","","","","","","","","","",""
"null","<span style='color:GreenYellow; font-size: 70px;'>正确! </span>","null","html-keyboard-response","62","285861","0.0-7.0-0.0-1.0-0.0-1.26","4","4","4","4","4","4","4","4","4","4","5","5","5","5","5","5","5","5","5","5","1","1","1","1","1","1","1","1","1","0","0","1","1","0","0","0","0","0","1","1","0","1","0","1","5","1","1","2","1","2","1","2","1","4","1","598897916660154368","刘","65","","","","","","","","","","","","","","","","","","","","","","","","","","","","","","feedback_test","","","","","","","","","","","",""
"600","","j","psychophysics","63","287462","0.0-7.0-0.0-1.0-0.0-0.27","4","4","4","4","4","4","4","4","4","4","5","5","5","5","5","5","5","5","5","5","1","1","1","1","1","1","1","1","1","0","0","1","1","0","0","0","0","0","1","1","0","1","0","1","5","1","1","2","1","2","1","2","1","4","1","598897916660154368","刘","65","","","","match","","","","","","","","","","","","","","key","j","16.666494736841905","768","428","j","true","match","img/hexagon.png","六边","六边","ALT1_1","prac_ALT1_1","","","","","","","","","","","",""
"null","<span style='color:GreenYellow; font-size: 70px;'>正确! </span>","null","html-keyboard-response","64","287964","0.0-7.0-0.0-1.0-0.0-1.27","4","4","4","4","4","4","4","4","4","4","5","5","5","5","5","5","5","5","5","5","1","1","1","1","1","1","1","1","1","0","0","1","1","0","0","0","0","0","1","1","0","1","0","1","5","1","1","2","1","2","1","2","1","4","1","598897916660154368","刘","65","","","","","","","","","","","","","","","","","","","","","","","","","","","","","","feedback_test","","","","","","","","","","","",""
"531","","j","psychophysics","65","289510","0.0-7.0-0.0-1.0-0.0-0.28","4","4","4","4","4","4","4","4","4","4","5","5","5","5","5","5","5","5","5","5","1","1","1","1","1","1","1","1","1","0","0","1","1","0","0","0","0","0","1","1","0","1","0","1","5","1","1","2","1","2","1","2","1","4","1","598897916660154368","刘","65","","","","match","","","","","","","","","","","","","","key","j","16.66463043478206","768","428","j","true","match","img/circle.png","圆形","圆形","ALT1_1","prac_ALT1_1","","","","","","","","","","","",""
"null","<span style='color:GreenYellow; font-size: 70px;'>正确! </span>","null","html-keyboard-response","66","290012","0.0-7.0-0.0-1.0-0.0-1.28","4","4","4","4","4","4","4","4","4","4","5","5","5","5","5","5","5","5","5","5","1","1","1","1","1","1","1","1","1","0","0","1","1","0","0","0","0","0","1","1","0","1","0","1","5","1","1","2","1","2","1","2","1","4","1","598897916660154368","刘","65","","","","","","","","","","","","","","","","","","","","","","","","","","","","","","feedback_test","","","","","","","","","","","",""
"593","","j","psychophysics","67","291606","0.0-7.0-0.0-1.0-0.0-0.29","4","4","4","4","4","4","4","4","4","4","5","5","5","5","5","5","5","5","5","5","1","1","1","1","1","1","1","1","1","0","0","1","1","0","0","0","0","0","1","1","0","1","0","1","5","1","1","2","1","2","1","2","1","4","1","598897916660154368","刘","65","","","","match","","","","","","","","","","","","","","key","j","16.664884210526207","768","428","j","true","match","img/circle.png","圆形","圆形","ALT1_1","prac_ALT1_1","","","","","","","","","","","",""
"null","<span style='color:GreenYellow; font-size: 70px;'>正确! </span>","null","html-keyboard-response","68","292108","0.0-7.0-0.0-1.0-0.0-1.29","4","4","4","4","4","4","4","4","4","4","5","5","5","5","5","5","5","5","5","5","1","1","1","1","1","1","1","1","1","0","0","1","1","0","0","0","0","0","1","1","0","1","0","1","5","1","1","2","1","2","1","2","1","4","1","598897916660154368","刘","65","","","","","","","","","","","","","","","","","","","","","","","","","","","","","","feedback_test","","","","","","","","","","","",""
"552","","j","psychophysics","69","293662","0.0-7.0-0.0-1.0-0.0-0.30","4","4","4","4","4","4","4","4","4","4","5","5","5","5","5","5","5","5","5","5","1","1","1","1","1","1","1","1","1","0","0","1","1","0","0","0","0","0","1","1","0","1","0","1","5","1","1","2","1","2","1","2","1","4","1","598897916660154368","刘","65","","","","match","","","","","","","","","","","","","","key","j","16.66496739130462","768","428","j","true","match","img/hexagon.png","六边","六边","ALT1_1","prac_ALT1_1","","","","","","","","","","","",""
"null","<span style='color:GreenYellow; font-size: 70px;'>正确! </span>","null","html-keyboard-response","70","294163","0.0-7.0-0.0-1.0-0.0-1.30","4","4","4","4","4","4","4","4","4","4","5","5","5","5","5","5","5","5","5","5","1","1","1","1","1","1","1","1","1","0","0","1","1","0","0","0","0","0","1","1","0","1","0","1","5","1","1","2","1","2","1","2","1","4","1","598897916660154368","刘","65","","","","","","","","","","","","","","","","","","","","","","","","","","","","","","feedback_test","","","","","","","","","","","",""
"642","","j","psychophysics","71","295806","0.0-7.0-0.0-1.0-0.0-0.31","4","4","4","4","4","4","4","4","4","4","5","5","5","5","5","5","5","5","5","5","1","1","1","1","1","1","1","1","1","0","0","1","1","0","0","0","0","0","1","1","0","1","0","1","5","1","1","2","1","2","1","2","1","4","1","598897916660154368","刘","65","","","","match","","","","","","","","","","","","","","key","j","16.665112244897777","768","428","j","true","match","img/diamond.png","菱形","菱形","ALT1_1","prac_ALT1_1","","","","","","","","","","","",""
"null","<span style='color:GreenYellow; font-size: 70px;'>正确! </span>","null","html-keyboard-response","72","296317","0.0-7.0-0.0-1.0-0.0-1.31","4","4","4","4","4","4","4","4","4","4","5","5","5","5","5","5","5","5","5","5","1","1","1","1","1","1","1","1","1","0","0","1","1","0","0","0","0","0","1","1","0","1","0","1","5","1","1","2","1","2","1","2","1","4","1","598897916660154368","刘","65","","","","","","","","","","","","","","","","","","","","","","","","","","","","","","feedback_test","","","","","","","","","","","",""
"623","","f","psychophysics","73","297942","0.0-7.0-0.0-1.0-0.0-0.32","4","4","4","4","4","4","4","4","4","4","5","5","5","5","5","5","5","5","5","5","1","1","1","1","1","1","1","1","1","0","0","1","1","0","0","0","0","0","1","1","0","1","0","1","5","1","1","2","1","2","1","2","1","4","1","598897916660154368","刘","65","","","","nonmatch","","","","","","","","","","","","","","key","f","16.664854166666675","768","428","f","true","nonmatch","img/diamond.png","三角","菱形","ALT1_1","prac_ALT1_1","","","","","","","","","","","",""
"null","<span style='color:GreenYellow; font-size: 70px;'>正确! </span>","null","html-keyboard-response","74","298443","0.0-7.0-0.0-1.0-0.0-1.32","4","4","4","4","4","4","4","4","4","4","5","5","5","5","5","5","5","5","5","5","1","1","1","1","1","1","1","1","1","0","0","1","1","0","0","0","0","0","1","1","0","1","0","1","5","1","1","2","1","2","1","2","1","4","1","598897916660154368","刘","65","","","","","","","","","","","","","","","","","","","","","","","","","","","","","","feedback_test","","","","","","","","","","","",""
"611","","f","psychophysics","75","300056","0.0-7.0-0.0-1.0-0.0-0.33","4","4","4","4","4","4","4","4","4","4","5","5","5","5","5","5","5","5","5","5","1","1","1","1","1","1","1","1","1","0","0","1","1","0","0","0","0","0","1","1","0","1","0","1","5","1","1","2","1","2","1","2","1","4","1","598897916660154368","刘","65","","","","nonmatch","","","","","","","","","","","","","","key","f","16.664652631578868","768","428","f","true","nonmatch","img/circle.png","菱形","圆形","ALT1_1","prac_ALT1_1","","","","","","","","","","","",""
"null","<span style='color:GreenYellow; font-size: 70px;'>正确! </span>","null","html-keyboard-response","76","300556","0.0-7.0-0.0-1.0-0.0-1.33","4","4","4","4","4","4","4","4","4","4","5","5","5","5","5","5","5","5","5","5","1","1","1","1","1","1","1","1","1","0","0","1","1","0","0","0","0","0","1","1","0","1","0","1","5","1","1","2","1","2","1","2","1","4","1","598897916660154368","刘","65","","","","","","","","","","","","","","","","","","","","","","","","","","","","","","feedback_test","","","","","","","","","","","",""
"624","","j","psychophysics","77","302183","0.0-7.0-0.0-1.0-0.0-0.34","4","4","4","4","4","4","4","4","4","4","5","5","5","5","5","5","5","5","5","5","1","1","1","1","1","1","1","1","1","0","0","1","1","0","0","0","0","0","1","1","0","1","0","1","5","1","1","2","1","2","1","2","1","4","1","598897916660154368","刘","65","","","","match","","","","","","","","","","","","","","key","j","16.66462500000004","768","428","j","true","match","img/triangle.png","三角","三角","ALT1_1","prac_ALT1_1","","","","","","","","","","","",""
"null","<span style='color:GreenYellow; font-size: 70px;'>正确! </span>","null","html-keyboard-response","78","302685","0.0-7.0-0.0-1.0-0.0-1.34","4","4","4","4","4","4","4","4","4","4","5","5","5","5","5","5","5","5","5","5","1","1","1","1","1","1","1","1","1","0","0","1","1","0","0","0","0","0","1","1","0","1","0","1","5","1","1","2","1","2","1","2","1","4","1","598897916660154368","刘","65","","","","","","","","","","","","","","","","","","","","","","","","","","","","","","feedback_test","","","","","","","","","","","",""
"720","","f","psychophysics","79","304406","0.0-7.0-0.0-1.0-0.0-0.35","4","4","4","4","4","4","4","4","4","4","5","5","5","5","5","5","5","5","5","5","1","1","1","1","1","1","1","1","1","0","0","1","1","0","0","0","0","0","1","1","0","1","0","1","5","1","1","2","1","2","1","2","1","4","1","598897916660154368","刘","65","","","","nonmatch","","","","","","","","","","","","","","key","f","16.664815533980818","768","428","f","true","nonmatch","img/diamond.png","六边","菱形","ALT1_1","prac_ALT1_1","","","","","","","","","","","",""
"null","<span style='color:GreenYellow; font-size: 70px;'>正确! </span>","null","html-keyboard-response","80","304907","0.0-7.0-0.0-1.0-0.0-1.35","4","4","4","4","4","4","4","4","4","4","5","5","5","5","5","5","5","5","5","5","1","1","1","1","1","1","1","1","1","0","0","1","1","0","0","0","0","0","1","1","0","1","0","1","5","1","1","2","1","2","1","2","1","4","1","598897916660154368","刘","65","","","","","","","","","","","","","","","","","","","","","","","","","","","","","","feedback_test","","","","","","","","","","","",""
"489","","j","psychophysics","81","306398","0.0-7.0-0.0-1.0-0.0-0.36","4","4","4","4","4","4","4","4","4","4","5","5","5","5","5","5","5","5","5","5","1","1","1","1","1","1","1","1","1","0","0","1","1","0","0","0","0","0","1","1","0","1","0","1","5","1","1","2","1","2","1","2","1","4","1","598897916660154368","刘","65","","","","match","","","","","","","","","","","","","","key","j","16.66628409090878","768","428","j","true","match","img/triangle.png","三角","三角","ALT1_1","prac_ALT1_1","","","","","","","","","","","",""
"null","<span style='color:GreenYellow; font-size: 70px;'>正确! </span>","null","html-keyboard-response","82","306899","0.0-7.0-0.0-1.0-0.0-1.36","4","4","4","4","4","4","4","4","4","4","5","5","5","5","5","5","5","5","5","5","1","1","1","1","1","1","1","1","1","0","0","1","1","0","0","0","0","0","1","1","0","1","0","1","5","1","1","2","1","2","1","2","1","4","1","598897916660154368","刘","65","","","","","","","","","","","","","","","","","","","","","","","","","","","","","","feedback_test","","","","","","","","","","","",""
"778","","f","psychophysics","83","308678","0.0-7.0-0.0-1.0-0.0-0.37","4","4","4","4","4","4","4","4","4","4","5","5","5","5","5","5","5","5","5","5","1","1","1","1","1","1","1","1","1","0","0","1","1","0","0","0","0","0","1","1","0","1","0","1","5","1","1","2","1","2","1","2","1","4","1","598897916660154368","刘","65","","","","nonmatch","","","","","","","","","","","","","","key","f","16.664122641509408","768","428","f","true","nonmatch","img/triangle.png","菱形","三角","ALT1_1","prac_ALT1_1","","","","","","","","","","","",""
"null","<span style='color:GreenYellow; font-size: 70px;'>正确! </span>","null","html-keyboard-response","84","309180","0.0-7.0-0.0-1.0-0.0-1.37","4","4","4","4","4","4","4","4","4","4","5","5","5","5","5","5","5","5","5","5","1","1","1","1","1","1","1","1","1","0","0","1","1","0","0","0","0","0","1","1","0","1","0","1","5","1","1","2","1","2","1","2","1","4","1","598897916660154368","刘","65","","","","","","","","","","","","","","","","","","","","","","","","","","","","","","feedback_test","","","","","","","","","","","",""
"554","","j","psychophysics","85","310734","0.0-7.0-0.0-1.0-0.0-0.38","4","4","4","4","4","4","4","4","4","4","5","5","5","5","5","5","5","5","5","5","1","1","1","1","1","1","1","1","1","0","0","1","1","0","0","0","0","0","1","1","0","1","0","1","5","1","1","2","1","2","1","2","1","4","1","598897916660154368","刘","65","","","","match","","","","","","","","","","","","","","key","j","16.66645652173864","768","428","j","true","match","img/triangle.png","三角","三角","ALT1_1","prac_ALT1_1","","","","","","","","","","","",""
"null","<span style='color:GreenYellow; font-size: 70px;'>正确! </span>","null","html-keyboard-response","86","311236","0.0-7.0-0.0-1.0-0.0-1.38","4","4","4","4","4","4","4","4","4","4","5","5","5","5","5","5","5","5","5","5","1","1","1","1","1","1","1","1","1","0","0","1","1","0","0","0","0","0","1","1","0","1","0","1","5","1","1","2","1","2","1","2","1","4","1","598897916660154368","刘","65","","","","","","","","","","","","","","","","","","","","","","","","","","","","","","feedback_test","","","","","","","","","","","",""
"657","","f","psychophysics","87","312894","0.0-7.0-0.0-1.0-0.0-0.39","4","4","4","4","4","4","4","4","4","4","5","5","5","5","5","5","5","5","5","5","1","1","1","1","1","1","1","1","1","0","0","1","1","0","0","0","0","0","1","1","0","1","0","1","5","1","1","2","1","2","1","2","1","4","1","598897916660154368","刘","65","","","","nonmatch","","","","","","","","","","","","","","key","f","16.666520408163446","768","428","f","true","nonmatch","img/triangle.png","六边","三角","ALT1_1","prac_ALT1_1","","","","","","","","","","","",""
"null","<span style='color:GreenYellow; font-size: 70px;'>正确! </span>","null","html-keyboard-response","88","313395","0.0-7.0-0.0-1.0-0.0-1.39","4","4","4","4","4","4","4","4","4","4","5","5","5","5","5","5","5","5","5","5","1","1","1","1","1","1","1","1","1","0","0","1","1","0","0","0","0","0","1","1","0","1","0","1","5","1","1","2","1","2","1","2","1","4","1","598897916660154368","刘","65","","","","","","","","","","","","","","","","","","","","","","","","","","","","","","feedback_test","","","","","","","","","","","",""
"602","","f","psychophysics","89","314998","0.0-7.0-0.0-1.0-0.0-0.40","4","4","4","4","4","4","4","4","4","4","5","5","5","5","5","5","5","5","5","5","1","1","1","1","1","1","1","1","1","0","0","1","1","0","0","0","0","0","1","1","0","1","0","1","5","1","1","2","1","2","1","2","1","4","1","598897916660154368","刘","65","","","","nonmatch","","","","","","","","","","","","","","key","f","16.664863157894853","768","428","f","true","nonmatch","img/hexagon.png","圆形","六边","ALT1_1","prac_ALT1_1","","","","","","","","","","","",""
"null","<span style='color:GreenYellow; font-size: 70px;'>正确! </span>","null","html-keyboard-response","90","315500","0.0-7.0-0.0-1.0-0.0-1.40","4","4","4","4","4","4","4","4","4","4","5","5","5","5","5","5","5","5","5","5","1","1","1","1","1","1","1","1","1","0","0","1","1","0","0","0","0","0","1","1","0","1","0","1","5","1","1","2","1","2","1","2","1","4","1","598897916660154368","刘","65","","","","","","","","","","","","","","","","","","","","","","","","","","","","","","feedback_test","","","","","","","","","","","",""
"618","","f","psychophysics","91","317118","0.0-7.0-0.0-1.0-0.0-0.41","4","4","4","4","4","4","4","4","4","4","5","5","5","5","5","5","5","5","5","5","1","1","1","1","1","1","1","1","1","0","0","1","1","0","0","0","0","0","1","1","0","1","0","1","5","1","1","2","1","2","1","2","1","4","1","598897916660154368","刘","65","","","","nonmatch","","","","","","","","","","","","","","key","f","16.66491752577353","768","428","f","true","nonmatch","img/triangle.png","圆形","三角","ALT1_1","prac_ALT1_1","","","","","","","","","","","",""
"null","<span style='color:GreenYellow; font-size: 70px;'>正确! </span>","null","html-keyboard-response","92","317620","0.0-7.0-0.0-1.0-0.0-1.41","4","4","4","4","4","4","4","4","4","4","5","5","5","5","5","5","5","5","5","5","1","1","1","1","1","1","1","1","1","0","0","1","1","0","0","0","0","0","1","1","0","1","0","1","5","1","1","2","1","2","1","2","1","4","1","598897916660154368","刘","65","","","","","","","","","","","","","","","","","","","","","","","","","","","","","","feedback_test","","","","","","","","","","","",""
"601","","j","psychophysics","93","319222","0.0-7.0-0.0-1.0-0.0-0.42","4","4","4","4","4","4","4","4","4","4","5","5","5","5","5","5","5","5","5","5","1","1","1","1","1","1","1","1","1","0","0","1","1","0","0","0","0","0","1","1","0","1","0","1","5","1","1","2","1","2","1","2","1","4","1","598897916660154368","刘","65","","","","match","","","","","","","","","","","","","","key","j","16.664852631579176","768","428","j","true","match","img/hexagon.png","六边","六边","ALT1_1","prac_ALT1_1","","","","","","","","","","","",""
"null","<span style='color:GreenYellow; font-size: 70px;'>正确! </span>","null","html-keyboard-response","94","319723","0.0-7.0-0.0-1.0-0.0-1.42","4","4","4","4","4","4","4","4","4","4","5","5","5","5","5","5","5","5","5","5","1","1","1","1","1","1","1","1","1","0","0","1","1","0","0","0","0","0","1","1","0","1","0","1","5","1","1","2","1","2","1","2","1","4","1","598897916660154368","刘","65","","","","","","","","","","","","","","","","","","","","","","","","","","","","","","feedback_test","","","","","","","","","","","",""
"618","","j","psychophysics","95","321342","0.0-7.0-0.0-1.0-0.0-0.43","4","4","4","4","4","4","4","4","4","4","5","5","5","5","5","5","5","5","5","5","1","1","1","1","1","1","1","1","1","0","0","1","1","0","0","0","0","0","1","1","0","1","0","1","5","1","1","2","1","2","1","2","1","4","1","598897916660154368","刘","65","","","","match","","","","","","","","","","","","","","key","j","16.66523958333346","768","428","f","false","nonmatch","img/hexagon.png","菱形","六边","ALT1_1","prac_ALT1_1","","","","","","","","","","","",""
"null","<span style='color:red; font-size: 70px;'>错误! </span>","null","html-keyboard-response","96","321844","0.0-7.0-0.0-1.0-0.0-1.43","4","4","4","4","4","4","4","4","4","4","5","5","5","5","5","5","5","5","5","5","1","1","1","1","1","1","1","1","1","0","0","1","1","0","0","0","0","0","1","1","0","1","0","1","5","1","1","2","1","2","1","2","1","4","1","598897916660154368","刘","65","","","","","","","","","","","","","","","","","","","","","","","","","","","","","","feedback_test","","","","","","","","","","","",""
"656","","j","psychophysics","97","323502","0.0-7.0-0.0-1.0-0.0-0.44","4","4","4","4","4","4","4","4","4","4","5","5","5","5","5","5","5","5","5","5","1","1","1","1","1","1","1","1","1","0","0","1","1","0","0","0","0","0","1","1","0","1","0","1","5","1","1","2","1","2","1","2","1","4","1","598897916660154368","刘","65","","","","match","","","","","","","","","","","","","","key","j","16.665090909091322","768","428","j","true","match","img/diamond.png","菱形","菱形","ALT1_1","prac_ALT1_1","","","","","","","","","","","",""
"null","<span style='color:GreenYellow; font-size: 70px;'>正确! </span>","null","html-keyboard-response","98","324004","0.0-7.0-0.0-1.0-0.0-1.44","4","4","4","4","4","4","4","4","4","4","5","5","5","5","5","5","5","5","5","5","1","1","1","1","1","1","1","1","1","0","0","1","1","0","0","0","0","0","1","1","0","1","0","1","5","1","1","2","1","2","1","2","1","4","1","598897916660154368","刘","65","","","","","","","","","","","","","","","","","","","","","","","","","","","","","","feedback_test","","","","","","","","","","","",""
"601","","f","psychophysics","99","325607","0.0-7.0-0.0-1.0-0.0-0.45","4","4","4","4","4","4","4","4","4","4","5","5","5","5","5","5","5","5","5","5","1","1","1","1","1","1","1","1","1","0","0","1","1","0","0","0","0","0","1","1","0","1","0","1","5","1","1","2","1","2","1","2","1","4","1","598897916660154368","刘","65","","","","nonmatch","","","","","","","","","","","","","","key","f","16.664610526316164","768","428","f","true","nonmatch","img/diamond.png","圆形","菱形","ALT1_1","prac_ALT1_1","","","","","","","","","","","",""
"null","<span style='color:GreenYellow; font-size: 70px;'>正确! </span>","null","html-keyboard-response","100","326107","0.0-7.0-0.0-1.0-0.0-1.45","4","4","4","4","4","4","4","4","4","4","5","5","5","5","5","5","5","5","5","5","1","1","1","1","1","1","1","1","1","0","0","1","1","0","0","0","0","0","1","1","0","1","0","1","5","1","1","2","1","2","1","2","1","4","1","598897916660154368","刘","65","","","","","","","","","","","","","","","","","","","","","","","","","","","","","","feedback_test","","","","","","","","","","","",""
"697","","j","psychophysics","101","327806","0.0-7.0-0.0-1.0-0.0-0.46","4","4","4","4","4","4","4","4","4","4","5","5","5","5","5","5","5","5","5","5","1","1","1","1","1","1","1","1","1","0","0","1","1","0","0","0","0","0","1","1","0","1","0","1","5","1","1","2","1","2","1","2","1","4","1","598897916660154368","刘","65","","","","match","","","","","","","","","","","","","","key","j","16.664831683168185","768","428","j","true","match","img/diamond.png","菱形","菱形","ALT1_1","prac_ALT1_1","","","","","","","","","","","",""
"null","<span style='color:GreenYellow; font-size: 70px;'>正确! </span>","null","html-keyboard-response","102","328307","0.0-7.0-0.0-1.0-0.0-1.46","4","4","4","4","4","4","4","4","4","4","5","5","5","5","5","5","5","5","5","5","1","1","1","1","1","1","1","1","1","0","0","1","1","0","0","0","0","0","1","1","0","1","0","1","5","1","1","2","1","2","1","2","1","4","1","598897916660154368","刘","65","","","","","","","","","","","","","","","","","","","","","","","","","","","","","","feedback_test","","","","","","","","","","","",""
"537","","f","psychophysics","103","329846","0.0-7.0-0.0-1.0-0.0-0.47","4","4","4","4","4","4","4","4","4","4","5","5","5","5","5","5","5","5","5","5","1","1","1","1","1","1","1","1","1","0","0","1","1","0","0","0","0","0","1","1","0","1","0","1","5","1","1","2","1","2","1","2","1","4","1","598897916660154368","刘","65","","","","nonmatch","","","","","","","","","","","","","","key","f","16.66312087912069","768","428","f","true","nonmatch","img/hexagon.png","三角","六边","ALT1_1","prac_ALT1_1","","","","","","","","","","","",""
"null","<span style='color:GreenYellow; font-size: 70px;'>正确! </span>","null","html-keyboard-response","104","330347","0.0-7.0-0.0-1.0-0.0-1.47","4","4","4","4","4","4","4","4","4","4","5","5","5","5","5","5","5","5","5","5","1","1","1","1","1","1","1","1","1","0","0","1","1","0","0","0","0","0","1","1","0","1","0","1","5","1","1","2","1","2","1","2","1","4","1","598897916660154368","刘","65","","","","","","","","","","","","","","","","","","","","","","","","","","","","","","feedback_test","","","","","","","","","","","",""
"53290","<style>.context{color:white; font-size: 35px; line-height:40px}</style>                            <div><p class='context'>您正确回答了94% 的试次。</p><p class='context'>您的平均反应时为655毫秒。</p><p class='context'>恭喜您完成练习。按空格键进入正式实验。</p><p class='footer' style='font-size: 35px; line-height:40px;'>请在进入正式实验之前将您的<span style='color: lightgreen;'>食指</span>放在电脑键盘的相应键位上进行按键。</p>"," ","html-keyboard-response","105","383639","0.0-7.0-0.0-2.0","4","4","4","4","4","4","4","4","4","4","5","5","5","5","5","5","5","5","5","5","1","1","1","1","1","1","1","1","1","0","0","1","1","0","0","0","0","0","1","1","0","1","0","1","5","1","1","2","1","2","1","2","1","4","1","598897916660154368","刘","65","","","","","","","","","","","","","","","","","","","","","","","","","","","","","","","","","","","","","","","","","",""
"2462","
    <p style='color: white; font-size: 22px'>请您将手指放在按键上，准备进入正式的匹配任务。</p>
    <p> <div style = ""color: green""><按空格键进入下一阶段的匹配任务></div></p>
    "," ","html-keyboard-response","106","386103","0.0-7.0-0.0-3.0","4","4","4","4","4","4","4","4","4","4","5","5","5","5","5","5","5","5","5","5","1","1","1","1","1","1","1","1","1","0","0","1","1","0","0","0","0","0","1","1","0","1","0","1","5","1","1","2","1","2","1","2","1","4","1","598897916660154368","刘","65","","","","","","","","","","","","","","","","","","","","","","","","","","","","","","","","","","","","","","","","","",""
"581","","j","psychophysics","107","387686","0.0-7.0-0.0-4.0-0.0-0.0","4","4","4","4","4","4","4","4","4","4","5","5","5","5","5","5","5","5","5","5","1","1","1","1","1","1","1","1","1","0","0","1","1","0","0","0","0","0","1","1","0","1","0","1","5","1","1","2","1","2","1","2","1","4","1","598897916660154368","刘","65","","","","match","","","","","","","","","","","","","","key","j","16.666414893616828","768","428","j","true","match","img/circle.png","圆形","圆形","ALT1","formal_ALT1_1","","","","","","","","","","","",""
"null","<span style='color:GreenYellow; font-size: 70px;'>正确! </span>","null","html-keyboard-response","108","388187","0.0-7.0-0.0-4.0-0.0-1.0","4","4","4","4","4","4","4","4","4","4","5","5","5","5","5","5","5","5","5","5","1","1","1","1","1","1","1","1","1","0","0","1","1","0","0","0","0","0","1","1","0","1","0","1","5","1","1","2","1","2","1","2","1","4","1","598897916660154368","刘","65","","","","","","","","","","","","","","","","","","","","","","","","","","","","","","feedback_test","","","","","","","","","","","",""
"657","","f","psychophysics","109","389847","0.0-7.0-0.0-4.0-0.0-0.1","4","4","4","4","4","4","4","4","4","4","5","5","5","5","5","5","5","5","5","5","1","1","1","1","1","1","1","1","1","0","0","1","1","0","0","0","0","0","1","1","0","1","0","1","5","1","1","2","1","2","1","2","1","4","1","598897916660154368","刘","65","","","","nonmatch","","","","","","","","","","","","","","key","f","16.664494949494692","768","428","f","true","nonmatch","img/diamond.png","三角","菱形","ALT1","formal_ALT1_1","","","","","","","","","","","",""
"null","<span style='color:GreenYellow; font-size: 70px;'>正确! </span>","null","html-keyboard-response","110","390348","0.0-7.0-0.0-4.0-0.0-1.1","4","4","4","4","4","4","4","4","4","4","5","5","5","5","5","5","5","5","5","5","1","1","1","1","1","1","1","1","1","0","0","1","1","0","0","0","0","0","1","1","0","1","0","1","5","1","1","2","1","2","1","2","1","4","1","598897916660154368","刘","65","","","","","","","","","","","","","","","","","","","","","","","","","","","","","","feedback_test","","","","","","","","","","","",""
"626","","f","psychophysics","111","391974","0.0-7.0-0.0-4.0-0.0-0.2","4","4","4","4","4","4","4","4","4","4","5","5","5","5","5","5","5","5","5","5","1","1","1","1","1","1","1","1","1","0","0","1","1","0","0","0","0","0","1","1","0","1","0","1","5","1","1","2","1","2","1","2","1","4","1","598897916660154368","刘","65","","","","nonmatch","","","","","","","","","","","","","","key","f","16.6642291666667","768","428","f","true","nonmatch","img/diamond.png","圆形","菱形","ALT1","formal_ALT1_1","","","","","","","","","","","",""
"null","<span style='color:GreenYellow; font-size: 70px;'>正确! </span>","null","html-keyboard-response","112","392476","0.0-7.0-0.0-4.0-0.0-1.2","4","4","4","4","4","4","4","4","4","4","5","5","5","5","5","5","5","5","5","5","1","1","1","1","1","1","1","1","1","0","0","1","1","0","0","0","0","0","1","1","0","1","0","1","5","1","1","2","1","2","1","2","1","4","1","598897916660154368","刘","65","","","","","","","","","","","","","","","","","","","","","","","","","","","","","","feedback_test","","","","","","","","","","","",""
"642","","j","psychophysics","113","394119","0.0-7.0-0.0-4.0-0.0-0.3","4","4","4","4","4","4","4","4","4","4","5","5","5","5","5","5","5","5","5","5","1","1","1","1","1","1","1","1","1","0","0","1","1","0","0","0","0","0","1","1","0","1","0","1","5","1","1","2","1","2","1","2","1","4","1","598897916660154368","刘","65","","","","match","","","","","","","","","","","","","","key","j","16.664618556700965","768","428","j","true","match","img/hexagon.png","六边","六边","ALT1","formal_ALT1_1","","","","","","","","","","","",""
"null","<span style='color:GreenYellow; font-size: 70px;'>正确! </span>","null","html-keyboard-response","114","394621","0.0-7.0-0.0-4.0-0.0-1.3","4","4","4","4","4","4","4","4","4","4","5","5","5","5","5","5","5","5","5","5","1","1","1","1","1","1","1","1","1","0","0","1","1","0","0","0","0","0","1","1","0","1","0","1","5","1","1","2","1","2","1","2","1","4","1","598897916660154368","刘","65","","","","","","","","","","","","","","","","","","","","","","","","","","","","","","feedback_test","","","","","","","","","","","",""
"776","","f","psychophysics","115","396398","0.0-7.0-0.0-4.0-0.0-0.4","4","4","4","4","4","4","4","4","4","4","5","5","5","5","5","5","5","5","5","5","1","1","1","1","1","1","1","1","1","0","0","1","1","0","0","0","0","0","1","1","0","1","0","1","5","1","1","2","1","2","1","2","1","4","1","598897916660154368","刘","65","","","","nonmatch","","","","","","","","","","","","","","key","f","16.663424528302198","768","428","f","true","nonmatch","img/circle.png","三角","圆形","ALT1","formal_ALT1_1","","","","","","","","","","","",""
"null","<span style='color:GreenYellow; font-size: 70px;'>正确! </span>","null","html-keyboard-response","116","396899","0.0-7.0-0.0-4.0-0.0-1.4","4","4","4","4","4","4","4","4","4","4","5","5","5","5","5","5","5","5","5","5","1","1","1","1","1","1","1","1","1","0","0","1","1","0","0","0","0","0","1","1","0","1","0","1","5","1","1","2","1","2","1","2","1","4","1","598897916660154368","刘","65","","","","","","","","","","","","","","","","","","","","","","","","","","","","","","feedback_test","","","","","","","","","","","",""
"553","","j","psychophysics","117","398454","0.0-7.0-0.0-4.0-0.0-0.5","4","4","4","4","4","4","4","4","4","4","5","5","5","5","5","5","5","5","5","5","1","1","1","1","1","1","1","1","1","0","0","1","1","0","0","0","0","0","1","1","0","1","0","1","5","1","1","2","1","2","1","2","1","4","1","598897916660154368","刘","65","","","","match","","","","","","","","","","","","","","key","j","16.663706521738987","768","428","j","true","match","img/circle.png","圆形","圆形","ALT1","formal_ALT1_1","","","","","","","","","","","",""
"null","<span style='color:GreenYellow; font-size: 70px;'>正确! </span>","null","html-keyboard-response","118","398957","0.0-7.0-0.0-4.0-0.0-1.5","4","4","4","4","4","4","4","4","4","4","5","5","5","5","5","5","5","5","5","5","1","1","1","1","1","1","1","1","1","0","0","1","1","0","0","0","0","0","1","1","0","1","0","1","5","1","1","2","1","2","1","2","1","4","1","598897916660154368","刘","65","","","","","","","","","","","","","","","","","","","","","","","","","","","","","","feedback_test","","","","","","","","","","","",""
"618","","f","psychophysics","119","400576","0.0-7.0-0.0-4.0-0.0-0.6","4","4","4","4","4","4","4","4","4","4","5","5","5","5","5","5","5","5","5","5","1","1","1","1","1","1","1","1","1","0","0","1","1","0","0","0","0","0","1","1","0","1","0","1","5","1","1","2","1","2","1","2","1","4","1","598897916660154368","刘","65","","","","nonmatch","","","","","","","","","","","","","","key","f","16.66464583333315","768","428","f","true","nonmatch","img/circle.png","六边","圆形","ALT1","formal_ALT1_1","","","","","","","","","","","",""
"null","<span style='color:GreenYellow; font-size: 70px;'>正确! </span>","null","html-keyboard-response","120","401077","0.0-7.0-0.0-4.0-0.0-1.6","4","4","4","4","4","4","4","4","4","4","5","5","5","5","5","5","5","5","5","5","1","1","1","1","1","1","1","1","1","0","0","1","1","0","0","0","0","0","1","1","0","1","0","1","5","1","1","2","1","2","1","2","1","4","1","598897916660154368","刘","65","","","","","","","","","","","","","","","","","","","","","","","","","","","","","","feedback_test","","","","","","","","","","","",""
"729","","j","psychophysics","121","402807","0.0-7.0-0.0-4.0-0.0-0.7","4","4","4","4","4","4","4","4","4","4","5","5","5","5","5","5","5","5","5","5","1","1","1","1","1","1","1","1","1","0","0","1","1","0","0","0","0","0","1","1","0","1","0","1","5","1","1","2","1","2","1","2","1","4","1","598897916660154368","刘","65","","","","match","","","","","","","","","","","","","","key","j","16.664960784313735","768","428","j","true","match","img/diamond.png","菱形","菱形","ALT1","formal_ALT1_1","","","","","","","","","","","",""
"null","<span style='color:GreenYellow; font-size: 70px;'>正确! </span>","null","html-keyboard-response","122","403308","0.0-7.0-0.0-4.0-0.0-1.7","4","4","4","4","4","4","4","4","4","4","5","5","5","5","5","5","5","5","5","5","1","1","1","1","1","1","1","1","1","0","0","1","1","0","0","0","0","0","1","1","0","1","0","1","5","1","1","2","1","2","1","2","1","4","1","598897916660154368","刘","65","","","","","","","","","","","","","","","","","","","","","","","","","","","","","","feedback_test","","","","","","","","","","","",""
"546","","f","psychophysics","123","404855","0.0-7.0-0.0-4.0-0.0-0.8","4","4","4","4","4","4","4","4","4","4","5","5","5","5","5","5","5","5","5","5","1","1","1","1","1","1","1","1","1","0","0","1","1","0","0","0","0","0","1","1","0","1","0","1","5","1","1","2","1","2","1","2","1","4","1","598897916660154368","刘","65","","","","nonmatch","","","","","","","","","","","","","","key","f","16.66478021978017","768","428","f","true","nonmatch","img/diamond.png","六边","菱形","ALT1","formal_ALT1_1","","","","","","","","","","","",""
"null","<span style='color:GreenYellow; font-size: 70px;'>正确! </span>","null","html-keyboard-response","124","405356","0.0-7.0-0.0-4.0-0.0-1.8","4","4","4","4","4","4","4","4","4","4","5","5","5","5","5","5","5","5","5","5","1","1","1","1","1","1","1","1","1","0","0","1","1","0","0","0","0","0","1","1","0","1","0","1","5","1","1","2","1","2","1","2","1","4","1","598897916660154368","刘","65","","","","","","","","","","","","","","","","","","","","","","","","","","","","","","feedback_test","","","","","","","","","","","",""
"562","","f","psychophysics","125","406918","0.0-7.0-0.0-4.0-0.0-0.9","4","4","4","4","4","4","4","4","4","4","5","5","5","5","5","5","5","5","5","5","1","1","1","1","1","1","1","1","1","0","0","1","1","0","0","0","0","0","1","1","0","1","0","1","5","1","1","2","1","2","1","2","1","4","1","598897916660154368","刘","65","","","","nonmatch","","","","","","","","","","","","","","key","f","16.664376344086143","768","428","f","true","nonmatch","img/triangle.png","圆形","三角","ALT1","formal_ALT1_1","","","","","","","","","","","",""
"null","<span style='color:GreenYellow; font-size: 70px;'>正确! </span>","null","html-keyboard-response","126","407419","0.0-7.0-0.0-4.0-0.0-1.9","4","4","4","4","4","4","4","4","4","4","5","5","5","5","5","5","5","5","5","5","1","1","1","1","1","1","1","1","1","0","0","1","1","0","0","0","0","0","1","1","0","1","0","1","5","1","1","2","1","2","1","2","1","4","1","598897916660154368","刘","65","","","","","","","","","","","","","","","","","","","","","","","","","","","","","","feedback_test","","","","","","","","","","","",""
"498","","j","psychophysics","127","408919","0.0-7.0-0.0-4.0-0.0-0.10","4","4","4","4","4","4","4","4","4","4","5","5","5","5","5","5","5","5","5","5","1","1","1","1","1","1","1","1","1","0","0","1","1","0","0","0","0","0","1","1","0","1","0","1","5","1","1","2","1","2","1","2","1","4","1","598897916660154368","刘","65","","","","match","","","","","","","","","","","","","","key","j","16.666539325842535","768","428","j","true","match","img/circle.png","圆形","圆形","ALT1","formal_ALT1_1","","","","","","","","","","","",""
"null","<span style='color:GreenYellow; font-size: 70px;'>正确! </span>","null","html-keyboard-response","128","409421","0.0-7.0-0.0-4.0-0.0-1.10","4","4","4","4","4","4","4","4","4","4","5","5","5","5","5","5","5","5","5","5","1","1","1","1","1","1","1","1","1","0","0","1","1","0","0","0","0","0","1","1","0","1","0","1","5","1","1","2","1","2","1","2","1","4","1","598897916660154368","刘","65","","","","","","","","","","","","","","","","","","","","","","","","","","","","","","feedback_test","","","","","","","","","","","",""
"535","","f","psychophysics","129","410959","0.0-7.0-0.0-4.0-0.0-0.11","4","4","4","4","4","4","4","4","4","4","5","5","5","5","5","5","5","5","5","5","1","1","1","1","1","1","1","1","1","0","0","1","1","0","0","0","0","0","1","1","0","1","0","1","5","1","1","2","1","2","1","2","1","4","1","598897916660154368","刘","65","","","","nonmatch","","","","","","","","","","","","","","key","f","16.664630434782694","768","428","j","false","match","img/diamond.png","菱形","菱形","ALT1","formal_ALT1_1","","","","","","","","","","","",""
"null","<span style='color:red; font-size: 70px;'>错误! </span>","null","html-keyboard-response","130","411459","0.0-7.0-0.0-4.0-0.0-1.11","4","4","4","4","4","4","4","4","4","4","5","5","5","5","5","5","5","5","5","5","1","1","1","1","1","1","1","1","1","0","0","1","1","0","0","0","0","0","1","1","0","1","0","1","5","1","1","2","1","2","1","2","1","4","1","598897916660154368","刘","65","","","","","","","","","","","","","","","","","","","","","","","","","","","","","","feedback_test","","","","","","","","","","","",""
"649","","f","psychophysics","131","413110","0.0-7.0-0.0-4.0-0.0-0.12","4","4","4","4","4","4","4","4","4","4","5","5","5","5","5","5","5","5","5","5","1","1","1","1","1","1","1","1","1","0","0","1","1","0","0","0","0","0","1","1","0","1","0","1","5","1","1","2","1","2","1","2","1","4","1","598897916660154368","刘","65","","","","nonmatch","","","","","","","","","","","","","","key","f","16.664755102040896","768","428","f","true","nonmatch","img/hexagon.png","三角","六边","ALT1","formal_ALT1_1","","","","","","","","","","","",""
"null","<span style='color:GreenYellow; font-size: 70px;'>正确! </span>","null","html-keyboard-response","132","413612","0.0-7.0-0.0-4.0-0.0-1.12","4","4","4","4","4","4","4","4","4","4","5","5","5","5","5","5","5","5","5","5","1","1","1","1","1","1","1","1","1","0","0","1","1","0","0","0","0","0","1","1","0","1","0","1","5","1","1","2","1","2","1","2","1","4","1","598897916660154368","刘","65","","","","","","","","","","","","","","","","","","","","","","","","","","","","","","feedback_test","","","","","","","","","","","",""
"729","","f","psychophysics","133","415343","0.0-7.0-0.0-4.0-0.0-0.13","4","4","4","4","4","4","4","4","4","4","5","5","5","5","5","5","5","5","5","5","1","1","1","1","1","1","1","1","1","0","0","1","1","0","0","0","0","0","1","1","0","1","0","1","5","1","1","2","1","2","1","2","1","4","1","598897916660154368","刘","65","","","","nonmatch","","","","","","","","","","","","","","key","f","16.66467961165048","768","428","f","true","nonmatch","img/hexagon.png","菱形","六边","ALT1","formal_ALT1_1","","","","","","","","","","","",""
"null","<span style='color:GreenYellow; font-size: 70px;'>正确! </span>","null","html-keyboard-response","134","415844","0.0-7.0-0.0-4.0-0.0-1.13","4","4","4","4","4","4","4","4","4","4","5","5","5","5","5","5","5","5","5","5","1","1","1","1","1","1","1","1","1","0","0","1","1","0","0","0","0","0","1","1","0","1","0","1","5","1","1","2","1","2","1","2","1","4","1","598897916660154368","刘","65","","","","","","","","","","","","","","","","","","","","","","","","","","","","","","feedback_test","","","","","","","","","","","",""
"626","","f","psychophysics","135","417471","0.0-7.0-0.0-4.0-0.0-0.14","4","4","4","4","4","4","4","4","4","4","5","5","5","5","5","5","5","5","5","5","1","1","1","1","1","1","1","1","1","0","0","1","1","0","0","0","0","0","1","1","0","1","0","1","5","1","1","2","1","2","1","2","1","4","1","598897916660154368","刘","65","","","","nonmatch","","","","","","","","","","","","","","key","f","16.66576041666667","768","428","f","true","nonmatch","img/circle.png","菱形","圆形","ALT1","formal_ALT1_1","","","","","","","","","","","",""
"null","<span style='color:GreenYellow; font-size: 70px;'>正确! </span>","null","html-keyboard-response","136","417973","0.0-7.0-0.0-4.0-0.0-1.14","4","4","4","4","4","4","4","4","4","4","5","5","5","5","5","5","5","5","5","5","1","1","1","1","1","1","1","1","1","0","0","1","1","0","0","0","0","0","1","1","0","1","0","1","5","1","1","2","1","2","1","2","1","4","1","598897916660154368","刘","65","","","","","","","","","","","","","","","","","","","","","","","","","","","","","","feedback_test","","","","","","","","","","","",""
"497","","j","psychophysics","137","419471","0.0-7.0-0.0-4.0-0.0-0.15","4","4","4","4","4","4","4","4","4","4","5","5","5","5","5","5","5","5","5","5","1","1","1","1","1","1","1","1","1","0","0","1","1","0","0","0","0","0","1","1","0","1","0","1","5","1","1","2","1","2","1","2","1","4","1","598897916660154368","刘","65","","","","match","","","","","","","","","","","","","","key","j","16.66462500000026","768","428","j","true","match","img/triangle.png","三角","三角","ALT1","formal_ALT1_1","","","","","","","","","","","",""
"null","<span style='color:GreenYellow; font-size: 70px;'>正确! </span>","null","html-keyboard-response","138","419972","0.0-7.0-0.0-4.0-0.0-1.15","4","4","4","4","4","4","4","4","4","4","5","5","5","5","5","5","5","5","5","5","1","1","1","1","1","1","1","1","1","0","0","1","1","0","0","0","0","0","1","1","0","1","0","1","5","1","1","2","1","2","1","2","1","4","1","598897916660154368","刘","65","","","","","","","","","","","","","","","","","","","","","","","","","","","","","","feedback_test","","","","","","","","","","","",""
"594","","j","psychophysics","139","421567","0.0-7.0-0.0-4.0-0.0-0.16","4","4","4","4","4","4","4","4","4","4","5","5","5","5","5","5","5","5","5","5","1","1","1","1","1","1","1","1","1","0","0","1","1","0","0","0","0","0","1","1","0","1","0","1","5","1","1","2","1","2","1","2","1","4","1","598897916660154368","刘","65","","","","match","","","","","","","","","","","","","","key","j","16.66484210526289","768","428","j","true","match","img/triangle.png","三角","三角","ALT1","formal_ALT1_1","","","","","","","","","","","",""
"null","<span style='color:GreenYellow; font-size: 70px;'>正确! </span>","null","html-keyboard-response","140","422068","0.0-7.0-0.0-4.0-0.0-1.16","4","4","4","4","4","4","4","4","4","4","5","5","5","5","5","5","5","5","5","5","1","1","1","1","1","1","1","1","1","0","0","1","1","0","0","0","0","0","1","1","0","1","0","1","5","1","1","2","1","2","1","2","1","4","1","598897916660154368","刘","65","","","","","","","","","","","","","","","","","","","","","","","","","","","","","","feedback_test","","","","","","","","","","","",""
"409","","j","psychophysics","141","423479","0.0-7.0-0.0-4.0-0.0-0.17","4","4","4","4","4","4","4","4","4","4","5","5","5","5","5","5","5","5","5","5","1","1","1","1","1","1","1","1","1","0","0","1","1","0","0","0","0","0","1","1","0","1","0","1","5","1","1","2","1","2","1","2","1","4","1","598897916660154368","刘","65","","","","match","","","","","","","","","","","","","","key","j","16.664464285714313","768","428","j","true","match","img/triangle.png","三角","三角","ALT1","formal_ALT1_1","","","","","","","","","","","",""
"null","<span style='color:GreenYellow; font-size: 70px;'>正确! </span>","null","html-keyboard-response","142","423981","0.0-7.0-0.0-4.0-0.0-1.17","4","4","4","4","4","4","4","4","4","4","5","5","5","5","5","5","5","5","5","5","1","1","1","1","1","1","1","1","1","0","0","1","1","0","0","0","0","0","1","1","0","1","0","1","5","1","1","2","1","2","1","2","1","4","1","598897916660154368","刘","65","","","","","","","","","","","","","","","","","","","","","","","","","","","","","","feedback_test","","","","","","","","","","","",""
"657","","f","psychophysics","143","425639","0.0-7.0-0.0-4.0-0.0-0.18","4","4","4","4","4","4","4","4","4","4","5","5","5","5","5","5","5","5","5","5","1","1","1","1","1","1","1","1","1","0","0","1","1","0","0","0","0","0","1","1","0","1","0","1","5","1","1","2","1","2","1","2","1","4","1","598897916660154368","刘","65","","","","nonmatch","","","","","","","","","","","","","","key","f","16.664622448979312","768","428","f","true","nonmatch","img/triangle.png","菱形","三角","ALT1","formal_ALT1_1","","","","","","","","","","","",""
"null","<span style='color:GreenYellow; font-size: 70px;'>正确! </span>","null","html-keyboard-response","144","426140","0.0-7.0-0.0-4.0-0.0-1.18","4","4","4","4","4","4","4","4","4","4","5","5","5","5","5","5","5","5","5","5","1","1","1","1","1","1","1","1","1","0","0","1","1","0","0","0","0","0","1","1","0","1","0","1","5","1","1","2","1","2","1","2","1","4","1","598897916660154368","刘","65","","","","","","","","","","","","","","","","","","","","","","","","","","","","","","feedback_test","","","","","","","","","","","",""
"624","","j","psychophysics","145","427766","0.0-7.0-0.0-4.0-0.0-0.19","4","4","4","4","4","4","4","4","4","4","5","5","5","5","5","5","5","5","5","5","1","1","1","1","1","1","1","1","1","0","0","1","1","0","0","0","0","0","1","1","0","1","0","1","5","1","1","2","1","2","1","2","1","4","1","598897916660154368","刘","65","","","","match","","","","","","","","","","","","","","key","j","16.665802083332892","768","428","j","true","match","img/hexagon.png","六边","六边","ALT1","formal_ALT1_1","","","","","","","","","","","",""
"null","<span style='color:GreenYellow; font-size: 70px;'>正确! </span>","null","html-keyboard-response","146","428267","0.0-7.0-0.0-4.0-0.0-1.19","4","4","4","4","4","4","4","4","4","4","5","5","5","5","5","5","5","5","5","5","1","1","1","1","1","1","1","1","1","0","0","1","1","0","0","0","0","0","1","1","0","1","0","1","5","1","1","2","1","2","1","2","1","4","1","598897916660154368","刘","65","","","","","","","","","","","","","","","","","","","","","","","","","","","","","","feedback_test","","","","","","","","","","","",""
"593","","f","psychophysics","147","429863","0.0-7.0-0.0-4.0-0.0-0.20","4","4","4","4","4","4","4","4","4","4","5","5","5","5","5","5","5","5","5","5","1","1","1","1","1","1","1","1","1","0","0","1","1","0","0","0","0","0","1","1","0","1","0","1","5","1","1","2","1","2","1","2","1","4","1","598897916660154368","刘","65","","","","nonmatch","","","","","","","","","","","","","","key","f","16.664915789473852","768","428","f","true","nonmatch","img/hexagon.png","圆形","六边","ALT1","formal_ALT1_1","","","","","","","","","","","",""
"null","<span style='color:GreenYellow; font-size: 70px;'>正确! </span>","null","html-keyboard-response","148","430364","0.0-7.0-0.0-4.0-0.0-1.20","4","4","4","4","4","4","4","4","4","4","5","5","5","5","5","5","5","5","5","5","1","1","1","1","1","1","1","1","1","0","0","1","1","0","0","0","0","0","1","1","0","1","0","1","5","1","1","2","1","2","1","2","1","4","1","598897916660154368","刘","65","","","","","","","","","","","","","","","","","","","","","","","","","","","","","","feedback_test","","","","","","","","","","","",""
"737","","j","psychophysics","149","432103","0.0-7.0-0.0-4.0-0.0-0.21","4","4","4","4","4","4","4","4","4","4","5","5","5","5","5","5","5","5","5","5","1","1","1","1","1","1","1","1","1","0","0","1","1","0","0","0","0","0","1","1","0","1","0","1","5","1","1","2","1","2","1","2","1","4","1","598897916660154368","刘","65","","","","match","","","","","","","","","","","","","","key","j","16.664592233010076","768","428","j","true","match","img/diamond.png","菱形","菱形","ALT1","formal_ALT1_1","","","","","","","","","","","",""
"null","<span style='color:GreenYellow; font-size: 70px;'>正确! </span>","null","html-keyboard-response","150","432604","0.0-7.0-0.0-4.0-0.0-1.21","4","4","4","4","4","4","4","4","4","4","5","5","5","5","5","5","5","5","5","5","1","1","1","1","1","1","1","1","1","0","0","1","1","0","0","0","0","0","1","1","0","1","0","1","5","1","1","2","1","2","1","2","1","4","1","598897916660154368","刘","65","","","","","","","","","","","","","","","","","","","","","","","","","","","","","","feedback_test","","","","","","","","","","","",""
"609","","j","psychophysics","151","434215","0.0-7.0-0.0-4.0-0.0-0.22","4","4","4","4","4","4","4","4","4","4","5","5","5","5","5","5","5","5","5","5","1","1","1","1","1","1","1","1","1","0","0","1","1","0","0","0","0","0","1","1","0","1","0","1","5","1","1","2","1","2","1","2","1","4","1","598897916660154368","刘","65","","","","match","","","","","","","","","","","","","","key","j","16.6526631578944","768","428","j","true","match","img/hexagon.png","六边","六边","ALT1","formal_ALT1_1","","","","","","","","","","","",""
"null","<span style='color:GreenYellow; font-size: 70px;'>正确! </span>","null","html-keyboard-response","152","434715","0.0-7.0-0.0-4.0-0.0-1.22","4","4","4","4","4","4","4","4","4","4","5","5","5","5","5","5","5","5","5","5","1","1","1","1","1","1","1","1","1","0","0","1","1","0","0","0","0","0","1","1","0","1","0","1","5","1","1","2","1","2","1","2","1","4","1","598897916660154368","刘","65","","","","","","","","","","","","","","","","","","","","","","","","","","","","","","feedback_test","","","","","","","","","","","",""
"656","","f","psychophysics","153","436375","0.0-7.0-0.0-4.0-0.0-0.23","4","4","4","4","4","4","4","4","4","4","5","5","5","5","5","5","5","5","5","5","1","1","1","1","1","1","1","1","1","0","0","1","1","0","0","0","0","0","1","1","0","1","0","1","5","1","1","2","1","2","1","2","1","4","1","598897916660154368","刘","65","","","","nonmatch","","","","","","","","","","","","","","key","f","16.666464646465045","768","428","f","true","nonmatch","img/triangle.png","六边","三角","ALT1","formal_ALT1_1","","","","","","","","","","","",""
"null","<span style='color:GreenYellow; font-size: 70px;'>正确! </span>","null","html-keyboard-response","154","436875","0.0-7.0-0.0-4.0-0.0-1.23","4","4","4","4","4","4","4","4","4","4","5","5","5","5","5","5","5","5","5","5","1","1","1","1","1","1","1","1","1","0","0","1","1","0","0","0","0","0","1","1","0","1","0","1","5","1","1","2","1","2","1","2","1","4","1","598897916660154368","刘","65","","","","","","","","","","","","","","","","","","","","","","","","","","","","","","feedback_test","","","","","","","","","","","",""
"513","","f","psychophysics","155","438391","0.0-7.0-0.0-4.0-0.0-0.24","4","4","4","4","4","4","4","4","4","4","5","5","5","5","5","5","5","5","5","5","1","1","1","1","1","1","1","1","1","0","0","1","1","0","0","0","0","0","1","1","0","1","0","1","5","1","1","2","1","2","1","2","1","4","1","598897916660154368","刘","65","","","","nonmatch","","","","","","","","","","","","","","key","f","16.66478888888895","768","428","f","true","nonmatch","img/hexagon.png","三角","六边","ALT1","formal_ALT1_1","","","","","","","","","","","",""
"null","<span style='color:GreenYellow; font-size: 70px;'>正确! </span>","null","html-keyboard-response","156","438892","0.0-7.0-0.0-4.0-0.0-1.24","4","4","4","4","4","4","4","4","4","4","5","5","5","5","5","5","5","5","5","5","1","1","1","1","1","1","1","1","1","0","0","1","1","0","0","0","0","0","1","1","0","1","0","1","5","1","1","2","1","2","1","2","1","4","1","598897916660154368","刘","65","","","","","","","","","","","","","","","","","","","","","","","","","","","","","","feedback_test","","","","","","","","","","","",""
"577","","j","psychophysics","157","440471","0.0-7.0-0.0-4.0-0.0-0.25","4","4","4","4","4","4","4","4","4","4","5","5","5","5","5","5","5","5","5","5","1","1","1","1","1","1","1","1","1","0","0","1","1","0","0","0","0","0","1","1","0","1","0","1","5","1","1","2","1","2","1","2","1","4","1","598897916660154368","刘","65","","","","match","","","","","","","","","","","","","","key","j","16.666301075268976","768","428","f","false","nonmatch","img/hexagon.png","菱形","六边","ALT1","formal_ALT1_1","","","","","","","","","","","",""
"null","<span style='color:red; font-size: 70px;'>错误! </span>","null","html-keyboard-response","158","440971","0.0-7.0-0.0-4.0-0.0-1.25","4","4","4","4","4","4","4","4","4","4","5","5","5","5","5","5","5","5","5","5","1","1","1","1","1","1","1","1","1","0","0","1","1","0","0","0","0","0","1","1","0","1","0","1","5","1","1","2","1","2","1","2","1","4","1","598897916660154368","刘","65","","","","","","","","","","","","","","","","","","","","","","","","","","","","","","feedback_test","","","","","","","","","","","",""
"562","","f","psychophysics","159","442535","0.0-7.0-0.0-4.0-0.0-0.26","4","4","4","4","4","4","4","4","4","4","5","5","5","5","5","5","5","5","5","5","1","1","1","1","1","1","1","1","1","0","0","1","1","0","0","0","0","0","1","1","0","1","0","1","5","1","1","2","1","2","1","2","1","4","1","598897916660154368","刘","65","","","","nonmatch","","","","","","","","","","","","","","key","f","16.666543478260714","768","428","f","true","nonmatch","img/triangle.png","圆形","三角","ALT1","formal_ALT1_1","","","","","","","","","","","",""
"null","<span style='color:GreenYellow; font-size: 70px;'>正确! </span>","null","html-keyboard-response","160","443037","0.0-7.0-0.0-4.0-0.0-1.26","4","4","4","4","4","4","4","4","4","4","5","5","5","5","5","5","5","5","5","5","1","1","1","1","1","1","1","1","1","0","0","1","1","0","0","0","0","0","1","1","0","1","0","1","5","1","1","2","1","2","1","2","1","4","1","598897916660154368","刘","65","","","","","","","","","","","","","","","","","","","","","","","","","","","","","","feedback_test","","","","","","","","","","","",""
"673","","f","psychophysics","161","444710","0.0-7.0-0.0-4.0-0.0-0.27","4","4","4","4","4","4","4","4","4","4","5","5","5","5","5","5","5","5","5","5","1","1","1","1","1","1","1","1","1","0","0","1","1","0","0","0","0","0","1","1","0","1","0","1","5","1","1","2","1","2","1","2","1","4","1","598897916660154368","刘","65","","","","nonmatch","","","","","","","","","","","","","","key","f","16.666040404040057","768","428","f","true","nonmatch","img/triangle.png","六边","三角","ALT1","formal_ALT1_1","","","","","","","","","","","",""
"null","<span style='color:GreenYellow; font-size: 70px;'>正确! </span>","null","html-keyboard-response","162","445212","0.0-7.0-0.0-4.0-0.0-1.27","4","4","4","4","4","4","4","4","4","4","5","5","5","5","5","5","5","5","5","5","1","1","1","1","1","1","1","1","1","0","0","1","1","0","0","0","0","0","1","1","0","1","0","1","5","1","1","2","1","2","1","2","1","4","1","598897916660154368","刘","65","","","","","","","","","","","","","","","","","","","","","","","","","","","","","","feedback_test","","","","","","","","","","","",""
"512","","j","psychophysics","163","446726","0.0-7.0-0.0-4.0-0.0-0.28","4","4","4","4","4","4","4","4","4","4","5","5","5","5","5","5","5","5","5","5","1","1","1","1","1","1","1","1","1","0","0","1","1","0","0","0","0","0","1","1","0","1","0","1","5","1","1","2","1","2","1","2","1","4","1","598897916660154368","刘","65","","","","match","","","","","","","","","","","","","","key","j","16.664300000000125","768","428","j","true","match","img/circle.png","圆形","圆形","ALT1","formal_ALT1_1","","","","","","","","","","","",""
"null","<span style='color:GreenYellow; font-size: 70px;'>正确! </span>","null","html-keyboard-response","164","447227","0.0-7.0-0.0-4.0-0.0-1.28","4","4","4","4","4","4","4","4","4","4","5","5","5","5","5","5","5","5","5","5","1","1","1","1","1","1","1","1","1","0","0","1","1","0","0","0","0","0","1","1","0","1","0","1","5","1","1","2","1","2","1","2","1","4","1","598897916660154368","刘","65","","","","","","","","","","","","","","","","","","","","","","","","","","","","","","feedback_test","","","","","","","","","","","",""
"593","","j","psychophysics","165","448822","0.0-7.0-0.0-4.0-0.0-0.29","4","4","4","4","4","4","4","4","4","4","5","5","5","5","5","5","5","5","5","5","1","1","1","1","1","1","1","1","1","0","0","1","1","0","0","0","0","0","1","1","0","1","0","1","5","1","1","2","1","2","1","2","1","4","1","598897916660154368","刘","65","","","","match","","","","","","","","","","","","","","key","j","16.6645368421052","768","428","j","true","match","img/hexagon.png","六边","六边","ALT1","formal_ALT1_1","","","","","","","","","","","",""
"null","<span style='color:GreenYellow; font-size: 70px;'>正确! </span>","null","html-keyboard-response","166","449324","0.0-7.0-0.0-4.0-0.0-1.29","4","4","4","4","4","4","4","4","4","4","5","5","5","5","5","5","5","5","5","5","1","1","1","1","1","1","1","1","1","0","0","1","1","0","0","0","0","0","1","1","0","1","0","1","5","1","1","2","1","2","1","2","1","4","1","598897916660154368","刘","65","","","","","","","","","","","","","","","","","","","","","","","","","","","","","","feedback_test","","","","","","","","","","","",""
"632","","f","psychophysics","167","450958","0.0-7.0-0.0-4.0-0.0-0.30","4","4","4","4","4","4","4","4","4","4","5","5","5","5","5","5","5","5","5","5","1","1","1","1","1","1","1","1","1","0","0","1","1","0","0","0","0","0","1","1","0","1","0","1","5","1","1","2","1","2","1","2","1","4","1","598897916660154368","刘","65","","","","nonmatch","","","","","","","","","","","","","","key","f","16.665134020618968","768","428","f","true","nonmatch","img/triangle.png","菱形","三角","ALT1","formal_ALT1_1","","","","","","","","","","","",""
"null","<span style='color:GreenYellow; font-size: 70px;'>正确! </span>","null","html-keyboard-response","168","451460","0.0-7.0-0.0-4.0-0.0-1.30","4","4","4","4","4","4","4","4","4","4","5","5","5","5","5","5","5","5","5","5","1","1","1","1","1","1","1","1","1","0","0","1","1","0","0","0","0","0","1","1","0","1","0","1","5","1","1","2","1","2","1","2","1","4","1","598897916660154368","刘","65","","","","","","","","","","","","","","","","","","","","","","","","","","","","","","feedback_test","","","","","","","","","","","",""
"609","","j","psychophysics","169","453071","0.0-7.0-0.0-4.0-0.0-0.31","4","4","4","4","4","4","4","4","4","4","5","5","5","5","5","5","5","5","5","5","1","1","1","1","1","1","1","1","1","0","0","1","1","0","0","0","0","0","1","1","0","1","0","1","5","1","1","2","1","2","1","2","1","4","1","598897916660154368","刘","65","","","","match","","","","","","","","","","","","","","key","j","16.665145833333856","768","428","j","true","match","img/triangle.png","三角","三角","ALT1","formal_ALT1_1","","","","","","","","","","","",""
"null","<span style='color:GreenYellow; font-size: 70px;'>正确! </span>","null","html-keyboard-response","170","453571","0.0-7.0-0.0-4.0-0.0-1.31","4","4","4","4","4","4","4","4","4","4","5","5","5","5","5","5","5","5","5","5","1","1","1","1","1","1","1","1","1","0","0","1","1","0","0","0","0","0","1","1","0","1","0","1","5","1","1","2","1","2","1","2","1","4","1","598897916660154368","刘","65","","","","","","","","","","","","","","","","","","","","","","","","","","","","","","feedback_test","","","","","","","","","","","",""
"593","","f","psychophysics","171","455166","0.0-7.0-0.0-4.0-0.0-0.32","4","4","4","4","4","4","4","4","4","4","5","5","5","5","5","5","5","5","5","5","1","1","1","1","1","1","1","1","1","0","0","1","1","0","0","0","0","0","1","1","0","1","0","1","5","1","1","2","1","2","1","2","1","4","1","598897916660154368","刘","65","","","","nonmatch","","","","","","","","","","","","","","key","f","16.664861702127382","768","428","f","true","nonmatch","img/circle.png","三角","圆形","ALT1","formal_ALT1_1","","","","","","","","","","","",""
"null","<span style='color:GreenYellow; font-size: 70px;'>正确! </span>","null","html-keyboard-response","172","455668","0.0-7.0-0.0-4.0-0.0-1.32","4","4","4","4","4","4","4","4","4","4","5","5","5","5","5","5","5","5","5","5","1","1","1","1","1","1","1","1","1","0","0","1","1","0","0","0","0","0","1","1","0","1","0","1","5","1","1","2","1","2","1","2","1","4","1","598897916660154368","刘","65","","","","","","","","","","","","","","","","","","","","","","","","","","","","","","feedback_test","","","","","","","","","","","",""
"602","","j","psychophysics","173","457270","0.0-7.0-0.0-4.0-0.0-0.33","4","4","4","4","4","4","4","4","4","4","5","5","5","5","5","5","5","5","5","5","1","1","1","1","1","1","1","1","1","0","0","1","1","0","0","0","0","0","1","1","0","1","0","1","5","1","1","2","1","2","1","2","1","4","1","598897916660154368","刘","65","","","","match","","","","","","","","","","","","","","key","j","16.66054736842144","768","428","j","true","match","img/circle.png","圆形","圆形","ALT1","formal_ALT1_1","","","","","","","","","","","",""
"null","<span style='color:GreenYellow; font-size: 70px;'>正确! </span>","null","html-keyboard-response","174","457772","0.0-7.0-0.0-4.0-0.0-1.33","4","4","4","4","4","4","4","4","4","4","5","5","5","5","5","5","5","5","5","5","1","1","1","1","1","1","1","1","1","0","0","1","1","0","0","0","0","0","1","1","0","1","0","1","5","1","1","2","1","2","1","2","1","4","1","598897916660154368","刘","65","","","","","","","","","","","","","","","","","","","","","","","","","","","","","","feedback_test","","","","","","","","","","","",""
"632","","f","psychophysics","175","459406","0.0-7.0-0.0-4.0-0.0-0.34","4","4","4","4","4","4","4","4","4","4","5","5","5","5","5","5","5","5","5","5","1","1","1","1","1","1","1","1","1","0","0","1","1","0","0","0","0","0","1","1","0","1","0","1","5","1","1","2","1","2","1","2","1","4","1","598897916660154368","刘","65","","","","nonmatch","","","","","","","","","","","","","","key","f","16.664360824741962","768","428","j","false","match","img/diamond.png","菱形","菱形","ALT1","formal_ALT1_1","","","","","","","","","","","",""
"null","<span style='color:red; font-size: 70px;'>错误! </span>","null","html-keyboard-response","176","459907","0.0-7.0-0.0-4.0-0.0-1.34","4","4","4","4","4","4","4","4","4","4","5","5","5","5","5","5","5","5","5","5","1","1","1","1","1","1","1","1","1","0","0","1","1","0","0","0","0","0","1","1","0","1","0","1","5","1","1","2","1","2","1","2","1","4","1","598897916660154368","刘","65","","","","","","","","","","","","","","","","","","","","","","","","","","","","","","feedback_test","","","","","","","","","","","",""
"626","","j","psychophysics","177","461534","0.0-7.0-0.0-4.0-0.0-0.35","4","4","4","4","4","4","4","4","4","4","5","5","5","5","5","5","5","5","5","5","1","1","1","1","1","1","1","1","1","0","0","1","1","0","0","0","0","0","1","1","0","1","0","1","5","1","1","2","1","2","1","2","1","4","1","598897916660154368","刘","65","","","","match","","","","","","","","","","","","","","key","j","16.664729166666802","768","428","j","true","match","img/hexagon.png","六边","六边","ALT1","formal_ALT1_1","","","","","","","","","","","",""
"null","<span style='color:GreenYellow; font-size: 70px;'>正确! </span>","null","html-keyboard-response","178","462035","0.0-7.0-0.0-4.0-0.0-1.35","4","4","4","4","4","4","4","4","4","4","5","5","5","5","5","5","5","5","5","5","1","1","1","1","1","1","1","1","1","0","0","1","1","0","0","0","0","0","1","1","0","1","0","1","5","1","1","2","1","2","1","2","1","4","1","598897916660154368","刘","65","","","","","","","","","","","","","","","","","","","","","","","","","","","","","","feedback_test","","","","","","","","","","","",""
"650","","j","psychophysics","179","463686","0.0-7.0-0.0-4.0-0.0-0.36","4","4","4","4","4","4","4","4","4","4","5","5","5","5","5","5","5","5","5","5","1","1","1","1","1","1","1","1","1","0","0","1","1","0","0","0","0","0","1","1","0","1","0","1","5","1","1","2","1","2","1","2","1","4","1","598897916660154368","刘","65","","","","match","","","","","","","","","","","","","","key","j","16.665020408163475","768","428","j","true","match","img/diamond.png","菱形","菱形","ALT1","formal_ALT1_1","","","","","","","","","","","",""
"null","<span style='color:GreenYellow; font-size: 70px;'>正确! </span>","null","html-keyboard-response","180","464188","0.0-7.0-0.0-4.0-0.0-1.36","4","4","4","4","4","4","4","4","4","4","5","5","5","5","5","5","5","5","5","5","1","1","1","1","1","1","1","1","1","0","0","1","1","0","0","0","0","0","1","1","0","1","0","1","5","1","1","2","1","2","1","2","1","4","1","598897916660154368","刘","65","","","","","","","","","","","","","","","","","","","","","","","","","","","","","","feedback_test","","","","","","","","","","","",""
"825","","j","psychophysics","181","466014","0.0-7.0-0.0-4.0-0.0-0.37","4","4","4","4","4","4","4","4","4","4","5","5","5","5","5","5","5","5","5","5","1","1","1","1","1","1","1","1","1","0","0","1","1","0","0","0","0","0","1","1","0","1","0","1","5","1","1","2","1","2","1","2","1","4","1","598897916660154368","刘","65","","","","match","","","","","","","","","","","","","","key","j","16.66458333333355","768","428","j","true","match","img/diamond.png","菱形","菱形","ALT1","formal_ALT1_1","","","","","","","","","","","",""
