"rt","stimulus","response","trial_type","trial_index","time_elapsed","internal_node_id","ses_1","ses_2","ses_3","ses_4","ses_5","ses_6","ses_7","ses_8","ses_9","ses_10","coreself_1","coreself_2","coreself_3","coreself_4","coreself_5","coreself_6","coreself_7","coreself_8","coreself_9","coreself_10","SGPS_1","SGPS_2","SGPS_3","SGPS_4","SGPS_5","SGPS_6","SGPS_7","SGPS_8","SGPS_9","NPI1","NPI2","NPI3","NPI4","NPI5","NPI6","NPI7","NPI8","NPI9","NPI10","NPI11","NPI12","NPI13","NPI14","NPI15","hsns_1","hsns_2","hsns_3","hsns_4","hsns_5","trap1","hsns_6","hsns_7","hsns_8","hsns_9","hsns_10","subj_idx","friend_name","ParticipantID","value","success","user_agent","responses","item_order","radio_event_ids","radio_event_times","key_event_times","mouse_event_times","straightlining","zigzagging","honeypot","timeout","failed_images","failed_audio","failed_video","view_history","response_type","key_press","avg_frame_time","center_x","center_y","correct_response","correct","identity","Image","word","condition","task_id","screen_id","time_stamp","version_attrib","version_target","IAT","RT","varname","summary","version_attrib2","version_target2","question_order","correct_answer","trap1_item"
"25149","
   <p><div style = ""color: white;font-size:25px;"">您好，欢迎参加本次实验。</div> </p>
   <p><div style = ""color: white;font-size:25px;"">为充分保障您的权利，请确保您已经知晓并同意《参与实验同意书》以及《数据公开知情同意书》。</div></p>
   <p><div style = ""color: white;font-size:25px;"">如果您未见过上述内容，请咨询实验员。</div></p>
   <p><div style = ""color: white;font-size:25px;"">如果您选择继续实验，则表示您已经清楚两份知情同意书的内容并同意。</div></p>
   <p><div style = ""color: pink;font-size:30px;"">请确保您记得day0的实验编号，您将在本次实验输入该编号，若您忘记，请咨询实验员后作答。</div></p>
   <p><div style = ""color: lightblue;font-size:25px;"">请您尽可能认真地作答，我们将依据您在各问卷和按键任务中的作答质量发放报酬。</div></p>
   <p> <div style = ""color: green;font-size:25px;""><按空格键至下页></div> </p>
   "," ","html-keyboard-response","0","25151","0.0-0.0","2","3","2","2","2","2","2","1","2","2","2","2","2","3","2","2","2","2","3","2","3","4","4","4","3","3","4","4","4","1","0","1","1","0","0","0","1","0","1","1","0","1","0","1","3","4","4","4","5","1","3","4","4","2","2","732625560492314625","杨","169","","","","","","","","","","","","","","","","","","","","","","","","","","","","","","","","","","","","","","","","","",""
"","","","call-function","1","25152","0.0-1.0-0.0","2","3","2","2","2","2","2","1","2","2","2","2","2","3","2","2","2","2","3","2","3","4","4","4","3","3","4","4","4","1","0","1","1","0","0","0","1","0","1","1","0","1","0","1","3","4","4","4","5","1","3","4","4","2","2","732625560492314625","杨","169","","","","","","","","","","","","","","","","","","","","","","","","","","","","","","","","","","","","","","","","","",""
"29373","","{""friend_name"":""杨"",""ParticipantID"":""169""}","survey-html-form","2","54526","0.0-1.0-1.0","2","3","2","2","2","2","2","1","2","2","2","2","2","3","2","2","2","2","3","2","3","4","4","4","3","3","4","4","4","1","0","1","1","0","0","0","1","0","1","1","0","1","0","1","3","4","4","4","5","1","3","4","4","2","2","732625560492314625","杨","169","","","","","","","","","","","","","","","","","","","","","","","","","","","","","","","","","","","","","","","","","",""
"","","","fullscreen","3","55763","0.0-2.0","2","3","2","2","2","2","2","1","2","2","2","2","2","3","2","2","2","2","3","2","3","4","4","4","3","3","4","4","4","1","0","1","1","0","0","0","1","0","1","1","0","1","0","1","3","4","4","4","5","1","3","4","4","2","2","732625560492314625","杨","169","","true","{}","","","","","","","","","","","","","","","","","","","","","","","","","","","","","","","","","","","","","","",""
"59850.900000002235","","{""Q01"":""2"",""Q02"":""3"",""Q03"":""2"",""Q04"":""2"",""Q05"":""2"",""Q06"":""2"",""Q07"":""2"",""Q08"":""1"",""Q09"":""2"",""Q10"":""2""}","survey-template","4","115615","0.0-3.0","2","3","2","2","2","2","2","1","2","2","2","2","2","3","2","2","2","2","3","2","3","4","4","4","3","3","4","4","4","1","0","1","1","0","0","0","1","0","1","1","0","1","0","1","3","4","4","4","5","1","3","4","4","2","2","732625560492314625","杨","169","","","","{""Q01"":""2"",""Q02"":""3"",""Q03"":""2"",""Q04"":""2"",""Q05"":""2"",""Q06"":""2"",""Q07"":""2"",""Q08"":""1"",""Q09"":""2"",""Q10"":""2""}","[0,1,2,3,4,5,6,7,8,9]","[""Q01"",""Q02"",""Q03"",""Q04"",""Q05"",""Q06"",""Q07"",""Q08"",""Q09"",""Q10""]","[2977.800000000745,4041.60000000149,5994,7473.900000002235,10201.5,11313.800000000745,15889.800000000745,16873.800000000745,18018.199999999255,19866.699999999255]","[]","[2977.800000000745,4041.60000000149,5994,7473.900000002235,9010,10201.5,11313.800000000745,15889.800000000745,16873.800000000745,18018.199999999255,19866.699999999255,59850]","0.5","0.5555555555555556","0","","","","","","","","","","","","","","","","","","","","","","","","","","","","","",""
"25419.39999999851","","{""Q01"":""2"",""Q02"":""2"",""Q03"":""2"",""Q04"":""3"",""Q05"":""2"",""Q06"":""2"",""Q07"":""2"",""Q08"":""2"",""Q09"":""3"",""Q10"":""2""}","survey-template","5","141039","0.0-4.0","2","3","2","2","2","2","2","1","2","2","2","2","2","3","2","2","2","2","3","2","3","4","4","4","3","3","4","4","4","1","0","1","1","0","0","0","1","0","1","1","0","1","0","1","3","4","4","4","5","1","3","4","4","2","2","732625560492314625","杨","169","","","","{""Q01"":""2"",""Q02"":""2"",""Q03"":""2"",""Q04"":""3"",""Q05"":""2"",""Q06"":""2"",""Q07"":""2"",""Q08"":""2"",""Q09"":""3"",""Q10"":""2""}","[0,1,2,3,4,5,6,7,8,9]","[""Q01"",""Q02"",""Q03"",""Q04"",""Q05"",""Q06"",""Q07"",""Q08"",""Q09"",""Q10""]","[6538.099999997765,7330.300000000745,9802.5,10722.39999999851,11746,12874.300000000745,15242.099999997765,17962.5,21690.099999997765,24394.199999999255]","[]","[5842.39999999851,6538.099999997765,7330.300000000745,8842,9802.5,10722.39999999851,11746,12874.300000000745,14058.300000000745,15242.099999997765,16002.39999999851,16802.39999999851,17962.5,21690.099999997765,23322.89999999851,24394.199999999255,25418.300000000745]","0.6","0.4444444444444444","0","","","","","","","","","","","","","","","","","","","","","","","","","","","","","",""
"","","","preload","6","141230","0.0-5.0","2","3","2","2","2","2","2","1","2","2","2","2","2","3","2","2","2","2","3","2","3","4","4","4","3","3","4","4","4","1","0","1","1","0","0","0","1","0","1","1","0","1","0","1","3","4","4","4","5","1","3","4","4","2","2","732625560492314625","杨","169","","true","","","","","","","","","","","false","[]","[]","[]","","","","","","","","","","","","","","","","","","","","","","","","","",""
"15623","","","instructions","7","156854","0.0-6.0","2","3","2","2","2","2","2","1","2","2","2","2","2","3","2","2","2","2","3","2","3","4","4","4","3","3","4","4","4","1","0","1","1","0","0","0","1","0","1","1","0","1","0","1","3","4","4","4","5","1","3","4","4","2","2","732625560492314625","杨","169","","","","","","","","","","","","","","","","","[{""page_index"":0,""viewing_time"":15623}]","","","","","","","","","","","","","","","","","","","","","","","","",""
"19983","","","instructions","8","176837","0.0-7.0-0.0-0.0","2","3","2","2","2","2","2","1","2","2","2","2","2","3","2","2","2","2","3","2","3","4","4","4","3","3","4","4","4","1","0","1","1","0","0","0","1","0","1","1","0","1","0","1","3","4","4","4","5","1","3","4","4","2","2","732625560492314625","杨","169","","","","","","","","","","","","","","","","","[{""page_index"":0,""viewing_time"":16990},{""page_index"":1,""viewing_time"":2152},{""page_index"":2,""viewing_time"":841}]","","","","","","","","","","","","","","","","","","","","","","","","",""
"null","","null","psychophysics","9","179041","0.0-7.0-0.0-1.0-0.0-0.0","2","3","2","2","2","2","2","1","2","2","2","2","2","3","2","2","2","2","3","2","3","4","4","4","3","3","4","4","4","1","0","1","1","0","0","0","1","0","1","1","0","1","0","1","3","4","4","4","5","1","3","4","4","2","2","732625560492314625","杨","169","","","","null","","","","","","","","","","","","","","key","null","16.6839694656489","960","536","j","false","match","img/diamond.png","菱形","菱形","ALT1_1","prac_ALT1_1","","","","","","","","","","","",""
"null","<span class='add_' style='color:yellow; font-size: 70px;'> 太慢! </span>","null","html-keyboard-response","10","179543","0.0-7.0-0.0-1.0-0.0-1.0","2","3","2","2","2","2","2","1","2","2","2","2","2","3","2","2","2","2","3","2","3","4","4","4","3","3","4","4","4","1","0","1","1","0","0","0","1","0","1","1","0","1","0","1","3","4","4","4","5","1","3","4","4","2","2","732625560492314625","杨","169","","","","","","","","","","","","","","","","","","","","","","","","","","","","","","feedback_test","","","","","","","","","","","",""
"820","","j","psychophysics","11","181365","0.0-7.0-0.0-1.0-0.0-0.1","2","3","2","2","2","2","2","1","2","2","2","2","2","3","2","2","2","2","3","2","3","4","4","4","3","3","4","4","4","1","0","1","1","0","0","0","1","0","1","1","0","1","0","1","3","4","4","4","5","1","3","4","4","2","2","732625560492314625","杨","169","","","","match","","","","","","","","","","","","","","key","j","16.682407407407513","960","536","f","false","nonmatch","img/diamond.png","三角","菱形","ALT1_1","prac_ALT1_1","","","","","","","","","","","",""
"null","<span style='color:red; font-size: 70px;'>错误! </span>","null","html-keyboard-response","12","181867","0.0-7.0-0.0-1.0-0.0-1.1","2","3","2","2","2","2","2","1","2","2","2","2","2","3","2","2","2","2","3","2","3","4","4","4","3","3","4","4","4","1","0","1","1","0","0","0","1","0","1","1","0","1","0","1","3","4","4","4","5","1","3","4","4","2","2","732625560492314625","杨","169","","","","","","","","","","","","","","","","","","","","","","","","","","","","","","feedback_test","","","","","","","","","","","",""
"649","","f","psychophysics","13","183517","0.0-7.0-0.0-1.0-0.0-0.2","2","3","2","2","2","2","2","1","2","2","2","2","2","3","2","2","2","2","3","2","3","4","4","4","3","3","4","4","4","1","0","1","1","0","0","0","1","0","1","1","0","1","0","1","3","4","4","4","5","1","3","4","4","2","2","732625560492314625","杨","169","","","","nonmatch","","","","","","","","","","","","","","key","f","16.68469387755108","960","536","j","false","match","img/triangle.png","三角","三角","ALT1_1","prac_ALT1_1","","","","","","","","","","","",""
"null","<span style='color:red; font-size: 70px;'>错误! </span>","null","html-keyboard-response","14","184019","0.0-7.0-0.0-1.0-0.0-1.2","2","3","2","2","2","2","2","1","2","2","2","2","2","3","2","2","2","2","3","2","3","4","4","4","3","3","4","4","4","1","0","1","1","0","0","0","1","0","1","1","0","1","0","1","3","4","4","4","5","1","3","4","4","2","2","732625560492314625","杨","169","","","","","","","","","","","","","","","","","","","","","","","","","","","","","","feedback_test","","","","","","","","","","","",""
"785","","j","psychophysics","15","185805","0.0-7.0-0.0-1.0-0.0-0.3","2","3","2","2","2","2","2","1","2","2","2","2","2","3","2","2","2","2","3","2","3","4","4","4","3","3","4","4","4","1","0","1","1","0","0","0","1","0","1","1","0","1","0","1","3","4","4","4","5","1","3","4","4","2","2","732625560492314625","杨","169","","","","match","","","","","","","","","","","","","","key","j","16.683962264150942","960","536","f","false","nonmatch","img/triangle.png","六边","三角","ALT1_1","prac_ALT1_1","","","","","","","","","","","",""
"null","<span style='color:red; font-size: 70px;'>错误! </span>","null","html-keyboard-response","16","186306","0.0-7.0-0.0-1.0-0.0-1.3","2","3","2","2","2","2","2","1","2","2","2","2","2","3","2","2","2","2","3","2","3","4","4","4","3","3","4","4","4","1","0","1","1","0","0","0","1","0","1","1","0","1","0","1","3","4","4","4","5","1","3","4","4","2","2","732625560492314625","杨","169","","","","","","","","","","","","","","","","","","","","","","","","","","","","","","feedback_test","","","","","","","","","","","",""
"834","","j","psychophysics","17","188141","0.0-7.0-0.0-1.0-0.0-0.4","2","3","2","2","2","2","2","1","2","2","2","2","2","3","2","2","2","2","3","2","3","4","4","4","3","3","4","4","4","1","0","1","1","0","0","0","1","0","1","1","0","1","0","1","3","4","4","4","5","1","3","4","4","2","2","732625560492314625","杨","169","","","","match","","","","","","","","","","","","","","key","j","16.68348623853211","960","536","f","false","nonmatch","img/circle.png","三角","圆形","ALT1_1","prac_ALT1_1","","","","","","","","","","","",""
"null","<span style='color:red; font-size: 70px;'>错误! </span>","null","html-keyboard-response","18","188642","0.0-7.0-0.0-1.0-0.0-1.4","2","3","2","2","2","2","2","1","2","2","2","2","2","3","2","2","2","2","3","2","3","4","4","4","3","3","4","4","4","1","0","1","1","0","0","0","1","0","1","1","0","1","0","1","3","4","4","4","5","1","3","4","4","2","2","732625560492314625","杨","169","","","","","","","","","","","","","","","","","","","","","","","","","","","","","","feedback_test","","","","","","","","","","","",""
"818","","f","psychophysics","19","190461","0.0-7.0-0.0-1.0-0.0-0.5","2","3","2","2","2","2","2","1","2","2","2","2","2","3","2","2","2","2","3","2","3","4","4","4","3","3","4","4","4","1","0","1","1","0","0","0","1","0","1","1","0","1","0","1","3","4","4","4","5","1","3","4","4","2","2","732625560492314625","杨","169","","","","nonmatch","","","","","","","","","","","","","","key","f","16.683333333333493","960","536","f","true","nonmatch","img/diamond.png","六边","菱形","ALT1_1","prac_ALT1_1","","","","","","","","","","","",""
"null","<span style='color:GreenYellow; font-size: 70px;'>正确! </span>","null","html-keyboard-response","20","190962","0.0-7.0-0.0-1.0-0.0-1.5","2","3","2","2","2","2","2","1","2","2","2","2","2","3","2","2","2","2","3","2","3","4","4","4","3","3","4","4","4","1","0","1","1","0","0","0","1","0","1","1","0","1","0","1","3","4","4","4","5","1","3","4","4","2","2","732625560492314625","杨","169","","","","","","","","","","","","","","","","","","","","","","","","","","","","","","feedback_test","","","","","","","","","","","",""
"1068","","j","psychophysics","21","193031","0.0-7.0-0.0-1.0-0.0-0.6","2","3","2","2","2","2","2","1","2","2","2","2","2","3","2","2","2","2","3","2","3","4","4","4","3","3","4","4","4","1","0","1","1","0","0","0","1","0","1","1","0","1","0","1","3","4","4","4","5","1","3","4","4","2","2","732625560492314625","杨","169","","","","match","","","","","","","","","","","","","","key","j","16.68373983739842","960","536","j","true","match","img/hexagon.png","六边","六边","ALT1_1","prac_ALT1_1","","","","","","","","","","","",""
"null","<span style='color:GreenYellow; font-size: 70px;'>正确! </span>","null","html-keyboard-response","22","193531","0.0-7.0-0.0-1.0-0.0-1.6","2","3","2","2","2","2","2","1","2","2","2","2","2","3","2","2","2","2","3","2","3","4","4","4","3","3","4","4","4","1","0","1","1","0","0","0","1","0","1","1","0","1","0","1","3","4","4","4","5","1","3","4","4","2","2","732625560492314625","杨","169","","","","","","","","","","","","","","","","","","","","","","","","","","","","","","feedback_test","","","","","","","","","","","",""
"792","","f","psychophysics","23","195325","0.0-7.0-0.0-1.0-0.0-0.7","2","3","2","2","2","2","2","1","2","2","2","2","2","3","2","2","2","2","3","2","3","4","4","4","3","3","4","4","4","1","0","1","1","0","0","0","1","0","1","1","0","1","0","1","3","4","4","4","5","1","3","4","4","2","2","732625560492314625","杨","169","","","","nonmatch","","","","","","","","","","","","","","key","f","16.680188679245063","960","536","f","true","nonmatch","img/hexagon.png","圆形","六边","ALT1_1","prac_ALT1_1","","","","","","","","","","","",""
"null","<span style='color:GreenYellow; font-size: 70px;'>正确! </span>","null","html-keyboard-response","24","195825","0.0-7.0-0.0-1.0-0.0-1.7","2","3","2","2","2","2","2","1","2","2","2","2","2","3","2","2","2","2","3","2","3","4","4","4","3","3","4","4","4","1","0","1","1","0","0","0","1","0","1","1","0","1","0","1","3","4","4","4","5","1","3","4","4","2","2","732625560492314625","杨","169","","","","","","","","","","","","","","","","","","","","","","","","","","","","","","feedback_test","","","","","","","","","","","",""
"851","","j","psychophysics","25","197677","0.0-7.0-0.0-1.0-0.0-0.8","2","3","2","2","2","2","2","1","2","2","2","2","2","3","2","2","2","2","3","2","3","4","4","4","3","3","4","4","4","1","0","1","1","0","0","0","1","0","1","1","0","1","0","1","3","4","4","4","5","1","3","4","4","2","2","732625560492314625","杨","169","","","","match","","","","","","","","","","","","","","key","j","16.68363636363647","960","536","j","true","match","img/hexagon.png","六边","六边","ALT1_1","prac_ALT1_1","","","","","","","","","","","",""
"null","<span style='color:GreenYellow; font-size: 70px;'>正确! </span>","null","html-keyboard-response","26","198179","0.0-7.0-0.0-1.0-0.0-1.8","2","3","2","2","2","2","2","1","2","2","2","2","2","3","2","2","2","2","3","2","3","4","4","4","3","3","4","4","4","1","0","1","1","0","0","0","1","0","1","1","0","1","0","1","3","4","4","4","5","1","3","4","4","2","2","732625560492314625","杨","169","","","","","","","","","","","","","","","","","","","","","","","","","","","","","","feedback_test","","","","","","","","","","","",""
"665","","f","psychophysics","27","199845","0.0-7.0-0.0-1.0-0.0-0.9","2","3","2","2","2","2","2","1","2","2","2","2","2","3","2","2","2","2","3","2","3","4","4","4","3","3","4","4","4","1","0","1","1","0","0","0","1","0","1","1","0","1","0","1","3","4","4","4","5","1","3","4","4","2","2","732625560492314625","杨","169","","","","nonmatch","","","","","","","","","","","","","","key","f","16.682828282828343","960","536","f","true","nonmatch","img/hexagon.png","菱形","六边","ALT1_1","prac_ALT1_1","","","","","","","","","","","",""
"null","<span style='color:GreenYellow; font-size: 70px;'>正确! </span>","null","html-keyboard-response","28","200345","0.0-7.0-0.0-1.0-0.0-1.9","2","3","2","2","2","2","2","1","2","2","2","2","2","3","2","2","2","2","3","2","3","4","4","4","3","3","4","4","4","1","0","1","1","0","0","0","1","0","1","1","0","1","0","1","3","4","4","4","5","1","3","4","4","2","2","732625560492314625","杨","169","","","","","","","","","","","","","","","","","","","","","","","","","","","","","","feedback_test","","","","","","","","","","","",""
"706","","f","psychophysics","29","202053","0.0-7.0-0.0-1.0-0.0-0.10","2","3","2","2","2","2","2","1","2","2","2","2","2","3","2","2","2","2","3","2","3","4","4","4","3","3","4","4","4","1","0","1","1","0","0","0","1","0","1","1","0","1","0","1","3","4","4","4","5","1","3","4","4","2","2","732625560492314625","杨","169","","","","nonmatch","","","","","","","","","","","","","","key","f","16.682178217821725","960","536","f","true","nonmatch","img/circle.png","六边","圆形","ALT1_1","prac_ALT1_1","","","","","","","","","","","",""
"null","<span style='color:GreenYellow; font-size: 70px;'>正确! </span>","null","html-keyboard-response","30","202554","0.0-7.0-0.0-1.0-0.0-1.10","2","3","2","2","2","2","2","1","2","2","2","2","2","3","2","2","2","2","3","2","3","4","4","4","3","3","4","4","4","1","0","1","1","0","0","0","1","0","1","1","0","1","0","1","3","4","4","4","5","1","3","4","4","2","2","732625560492314625","杨","169","","","","","","","","","","","","","","","","","","","","","","","","","","","","","","feedback_test","","","","","","","","","","","",""
"754","","f","psychophysics","31","204309","0.0-7.0-0.0-1.0-0.0-0.11","2","3","2","2","2","2","2","1","2","2","2","2","2","3","2","2","2","2","3","2","3","4","4","4","3","3","4","4","4","1","0","1","1","0","0","0","1","0","1","1","0","1","0","1","3","4","4","4","5","1","3","4","4","2","2","732625560492314625","杨","169","","","","nonmatch","","","","","","","","","","","","","","key","f","16.684615384615217","960","536","f","true","nonmatch","img/triangle.png","菱形","三角","ALT1_1","prac_ALT1_1","","","","","","","","","","","",""
"null","<span style='color:GreenYellow; font-size: 70px;'>正确! </span>","null","html-keyboard-response","32","204809","0.0-7.0-0.0-1.0-0.0-1.11","2","3","2","2","2","2","2","1","2","2","2","2","2","3","2","2","2","2","3","2","3","4","4","4","3","3","4","4","4","1","0","1","1","0","0","0","1","0","1","1","0","1","0","1","3","4","4","4","5","1","3","4","4","2","2","732625560492314625","杨","169","","","","","","","","","","","","","","","","","","","","","","","","","","","","","","feedback_test","","","","","","","","","","","",""
"715","","f","psychophysics","33","206525","0.0-7.0-0.0-1.0-0.0-0.12","2","3","2","2","2","2","2","1","2","2","2","2","2","3","2","2","2","2","3","2","3","4","4","4","3","3","4","4","4","1","0","1","1","0","0","0","1","0","1","1","0","1","0","1","3","4","4","4","5","1","3","4","4","2","2","732625560492314625","杨","169","","","","nonmatch","","","","","","","","","","","","","","key","f","16.684313725490366","960","536","f","true","nonmatch","img/diamond.png","圆形","菱形","ALT1_1","prac_ALT1_1","","","","","","","","","","","",""
"null","<span style='color:GreenYellow; font-size: 70px;'>正确! </span>","null","html-keyboard-response","34","207027","0.0-7.0-0.0-1.0-0.0-1.12","2","3","2","2","2","2","2","1","2","2","2","2","2","3","2","2","2","2","3","2","3","4","4","4","3","3","4","4","4","1","0","1","1","0","0","0","1","0","1","1","0","1","0","1","3","4","4","4","5","1","3","4","4","2","2","732625560492314625","杨","169","","","","","","","","","","","","","","","","","","","","","","","","","","","","","","feedback_test","","","","","","","","","","","",""
"945","","j","psychophysics","35","208973","0.0-7.0-0.0-1.0-0.0-0.13","2","3","2","2","2","2","2","1","2","2","2","2","2","3","2","2","2","2","3","2","3","4","4","4","3","3","4","4","4","1","0","1","1","0","0","0","1","0","1","1","0","1","0","1","3","4","4","4","5","1","3","4","4","2","2","732625560492314625","杨","169","","","","match","","","","","","","","","","","","","","key","j","16.683620689655324","960","536","j","true","match","img/diamond.png","菱形","菱形","ALT1_1","prac_ALT1_1","","","","","","","","","","","",""
"null","<span style='color:GreenYellow; font-size: 70px;'>正确! </span>","null","html-keyboard-response","36","209473","0.0-7.0-0.0-1.0-0.0-1.13","2","3","2","2","2","2","2","1","2","2","2","2","2","3","2","2","2","2","3","2","3","4","4","4","3","3","4","4","4","1","0","1","1","0","0","0","1","0","1","1","0","1","0","1","3","4","4","4","5","1","3","4","4","2","2","732625560492314625","杨","169","","","","","","","","","","","","","","","","","","","","","","","","","","","","","","feedback_test","","","","","","","","","","","",""
"602","","f","psychophysics","37","211077","0.0-7.0-0.0-1.0-0.0-0.14","2","3","2","2","2","2","2","1","2","2","2","2","2","3","2","2","2","2","3","2","3","4","4","4","3","3","4","4","4","1","0","1","1","0","0","0","1","0","1","1","0","1","0","1","3","4","4","4","5","1","3","4","4","2","2","732625560492314625","杨","169","","","","nonmatch","","","","","","","","","","","","","","key","f","16.682105263157773","960","536","f","true","nonmatch","img/triangle.png","圆形","三角","ALT1_1","prac_ALT1_1","","","","","","","","","","","",""
"null","<span style='color:GreenYellow; font-size: 70px;'>正确! </span>","null","html-keyboard-response","38","211577","0.0-7.0-0.0-1.0-0.0-1.14","2","3","2","2","2","2","2","1","2","2","2","2","2","3","2","2","2","2","3","2","3","4","4","4","3","3","4","4","4","1","0","1","1","0","0","0","1","0","1","1","0","1","0","1","3","4","4","4","5","1","3","4","4","2","2","732625560492314625","杨","169","","","","","","","","","","","","","","","","","","","","","","","","","","","","","","feedback_test","","","","","","","","","","","",""
"778","","j","psychophysics","39","213357","0.0-7.0-0.0-1.0-0.0-0.15","2","3","2","2","2","2","2","1","2","2","2","2","2","3","2","2","2","2","3","2","3","4","4","4","3","3","4","4","4","1","0","1","1","0","0","0","1","0","1","1","0","1","0","1","3","4","4","4","5","1","3","4","4","2","2","732625560492314625","杨","169","","","","match","","","","","","","","","","","","","","key","j","16.683962264150942","960","536","j","true","match","img/diamond.png","菱形","菱形","ALT1_1","prac_ALT1_1","","","","","","","","","","","",""
"null","<span style='color:GreenYellow; font-size: 70px;'>正确! </span>","null","html-keyboard-response","40","213857","0.0-7.0-0.0-1.0-0.0-1.15","2","3","2","2","2","2","2","1","2","2","2","2","2","3","2","2","2","2","3","2","3","4","4","4","3","3","4","4","4","1","0","1","1","0","0","0","1","0","1","1","0","1","0","1","3","4","4","4","5","1","3","4","4","2","2","732625560492314625","杨","169","","","","","","","","","","","","","","","","","","","","","","","","","","","","","","feedback_test","","","","","","","","","","","",""
"635","","j","psychophysics","41","215493","0.0-7.0-0.0-1.0-0.0-0.16","2","3","2","2","2","2","2","1","2","2","2","2","2","3","2","2","2","2","3","2","3","4","4","4","3","3","4","4","4","1","0","1","1","0","0","0","1","0","1","1","0","1","0","1","3","4","4","4","5","1","3","4","4","2","2","732625560492314625","杨","169","","","","match","","","","","","","","","","","","","","key","j","16.684536082474168","960","536","j","true","match","img/circle.png","圆形","圆形","ALT1_1","prac_ALT1_1","","","","","","","","","","","",""
"null","<span style='color:GreenYellow; font-size: 70px;'>正确! </span>","null","html-keyboard-response","42","215994","0.0-7.0-0.0-1.0-0.0-1.16","2","3","2","2","2","2","2","1","2","2","2","2","2","3","2","2","2","2","3","2","3","4","4","4","3","3","4","4","4","1","0","1","1","0","0","0","1","0","1","1","0","1","0","1","3","4","4","4","5","1","3","4","4","2","2","732625560492314625","杨","169","","","","","","","","","","","","","","","","","","","","","","","","","","","","","","feedback_test","","","","","","","","","","","",""
"776","","f","psychophysics","43","217773","0.0-7.0-0.0-1.0-0.0-0.17","2","3","2","2","2","2","2","1","2","2","2","2","2","3","2","2","2","2","3","2","3","4","4","4","3","3","4","4","4","1","0","1","1","0","0","0","1","0","1","1","0","1","0","1","3","4","4","4","5","1","3","4","4","2","2","732625560492314625","杨","169","","","","nonmatch","","","","","","","","","","","","","","key","f","16.683809523809412","960","536","f","true","nonmatch","img/hexagon.png","三角","六边","ALT1_1","prac_ALT1_1","","","","","","","","","","","",""
"null","<span style='color:GreenYellow; font-size: 70px;'>正确! </span>","null","html-keyboard-response","44","218274","0.0-7.0-0.0-1.0-0.0-1.17","2","3","2","2","2","2","2","1","2","2","2","2","2","3","2","2","2","2","3","2","3","4","4","4","3","3","4","4","4","1","0","1","1","0","0","0","1","0","1","1","0","1","0","1","3","4","4","4","5","1","3","4","4","2","2","732625560492314625","杨","169","","","","","","","","","","","","","","","","","","","","","","","","","","","","","","feedback_test","","","","","","","","","","","",""
"818","","j","psychophysics","45","220093","0.0-7.0-0.0-1.0-0.0-0.18","2","3","2","2","2","2","2","1","2","2","2","2","2","3","2","2","2","2","3","2","3","4","4","4","3","3","4","4","4","1","0","1","1","0","0","0","1","0","1","1","0","1","0","1","3","4","4","4","5","1","3","4","4","2","2","732625560492314625","杨","169","","","","match","","","","","","","","","","","","","","key","j","16.679439252336284","960","536","j","true","match","img/hexagon.png","六边","六边","ALT1_1","prac_ALT1_1","","","","","","","","","","","",""
"null","<span style='color:GreenYellow; font-size: 70px;'>正确! </span>","null","html-keyboard-response","46","220594","0.0-7.0-0.0-1.0-0.0-1.18","2","3","2","2","2","2","2","1","2","2","2","2","2","3","2","2","2","2","3","2","3","4","4","4","3","3","4","4","4","1","0","1","1","0","0","0","1","0","1","1","0","1","0","1","3","4","4","4","5","1","3","4","4","2","2","732625560492314625","杨","169","","","","","","","","","","","","","","","","","","","","","","","","","","","","","","feedback_test","","","","","","","","","","","",""
"665","","f","psychophysics","47","222261","0.0-7.0-0.0-1.0-0.0-0.19","2","3","2","2","2","2","2","1","2","2","2","2","2","3","2","2","2","2","3","2","3","4","4","4","3","3","4","4","4","1","0","1","1","0","0","0","1","0","1","1","0","1","0","1","3","4","4","4","5","1","3","4","4","2","2","732625560492314625","杨","169","","","","nonmatch","","","","","","","","","","","","","","key","f","16.683673469387756","960","536","f","true","nonmatch","img/circle.png","菱形","圆形","ALT1_1","prac_ALT1_1","","","","","","","","","","","",""
"null","<span style='color:GreenYellow; font-size: 70px;'>正确! </span>","null","html-keyboard-response","48","222762","0.0-7.0-0.0-1.0-0.0-1.19","2","3","2","2","2","2","2","1","2","2","2","2","2","3","2","2","2","2","3","2","3","4","4","4","3","3","4","4","4","1","0","1","1","0","0","0","1","0","1","1","0","1","0","1","3","4","4","4","5","1","3","4","4","2","2","732625560492314625","杨","169","","","","","","","","","","","","","","","","","","","","","","","","","","","","","","feedback_test","","","","","","","","","","","",""
"658","","j","psychophysics","49","224421","0.0-7.0-0.0-1.0-0.0-0.20","2","3","2","2","2","2","2","1","2","2","2","2","2","3","2","2","2","2","3","2","3","4","4","4","3","3","4","4","4","1","0","1","1","0","0","0","1","0","1","1","0","1","0","1","3","4","4","4","5","1","3","4","4","2","2","732625560492314625","杨","169","","","","match","","","","","","","","","","","","","","key","j","16.683673469387756","960","536","j","true","match","img/circle.png","圆形","圆形","ALT1_1","prac_ALT1_1","","","","","","","","","","","",""
"null","<span style='color:GreenYellow; font-size: 70px;'>正确! </span>","null","html-keyboard-response","50","224927","0.0-7.0-0.0-1.0-0.0-1.20","2","3","2","2","2","2","2","1","2","2","2","2","2","3","2","2","2","2","3","2","3","4","4","4","3","3","4","4","4","1","0","1","1","0","0","0","1","0","1","1","0","1","0","1","3","4","4","4","5","1","3","4","4","2","2","732625560492314625","杨","169","","","","","","","","","","","","","","","","","","","","","","","","","","","","","","feedback_test","","","","","","","","","","","",""
"653","","j","psychophysics","51","226581","0.0-7.0-0.0-1.0-0.0-0.21","2","3","2","2","2","2","2","1","2","2","2","2","2","3","2","2","2","2","3","2","3","4","4","4","3","3","4","4","4","1","0","1","1","0","0","0","1","0","1","1","0","1","0","1","3","4","4","4","5","1","3","4","4","2","2","732625560492314625","杨","169","","","","match","","","","","","","","","","","","","","key","j","16.68469387755108","960","536","j","true","match","img/triangle.png","三角","三角","ALT1_1","prac_ALT1_1","","","","","","","","","","","",""
"null","<span style='color:GreenYellow; font-size: 70px;'>正确! </span>","null","html-keyboard-response","52","227081","0.0-7.0-0.0-1.0-0.0-1.21","2","3","2","2","2","2","2","1","2","2","2","2","2","3","2","2","2","2","3","2","3","4","4","4","3","3","4","4","4","1","0","1","1","0","0","0","1","0","1","1","0","1","0","1","3","4","4","4","5","1","3","4","4","2","2","732625560492314625","杨","169","","","","","","","","","","","","","","","","","","","","","","","","","","","","","","feedback_test","","","","","","","","","","","",""
"858","","j","psychophysics","53","228941","0.0-7.0-0.0-1.0-0.0-0.22","2","3","2","2","2","2","2","1","2","2","2","2","2","3","2","2","2","2","3","2","3","4","4","4","3","3","4","4","4","1","0","1","1","0","0","0","1","0","1","1","0","1","0","1","3","4","4","4","5","1","3","4","4","2","2","732625560492314625","杨","169","","","","match","","","","","","","","","","","","","","key","j","16.683783783783994","960","536","j","true","match","img/triangle.png","三角","三角","ALT1_1","prac_ALT1_1","","","","","","","","","","","",""
"null","<span style='color:GreenYellow; font-size: 70px;'>正确! </span>","null","html-keyboard-response","54","229442","0.0-7.0-0.0-1.0-0.0-1.22","2","3","2","2","2","2","2","1","2","2","2","2","2","3","2","2","2","2","3","2","3","4","4","4","3","3","4","4","4","1","0","1","1","0","0","0","1","0","1","1","0","1","0","1","3","4","4","4","5","1","3","4","4","2","2","732625560492314625","杨","169","","","","","","","","","","","","","","","","","","","","","","","","","","","","","","feedback_test","","","","","","","","","","","",""
"522","","j","psychophysics","55","230965","0.0-7.0-0.0-1.0-0.0-0.23","2","3","2","2","2","2","2","1","2","2","2","2","2","3","2","2","2","2","3","2","3","4","4","4","3","3","4","4","4","1","0","1","1","0","0","0","1","0","1","1","0","1","0","1","3","4","4","4","5","1","3","4","4","2","2","732625560492314625","杨","169","","","","match","","","","","","","","","","","","","","key","j","16.684444444444186","960","536","j","true","match","img/circle.png","圆形","圆形","ALT1_1","prac_ALT1_1","","","","","","","","","","","",""
"null","<span style='color:GreenYellow; font-size: 70px;'>正确! </span>","null","html-keyboard-response","56","231467","0.0-7.0-0.0-1.0-0.0-1.23","2","3","2","2","2","2","2","1","2","2","2","2","2","3","2","2","2","2","3","2","3","4","4","4","3","3","4","4","4","1","0","1","1","0","0","0","1","0","1","1","0","1","0","1","3","4","4","4","5","1","3","4","4","2","2","732625560492314625","杨","169","","","","","","","","","","","","","","","","","","","","","","","","","","","","","","feedback_test","","","","","","","","","","","",""
"null","","null","psychophysics","57","233670","0.0-7.0-0.0-1.0-0.0-0.24","2","3","2","2","2","2","2","1","2","2","2","2","2","3","2","2","2","2","3","2","3","4","4","4","3","3","4","4","4","1","0","1","1","0","0","0","1","0","1","1","0","1","0","1","3","4","4","4","5","1","3","4","4","2","2","732625560492314625","杨","169","","","","null","","","","","","","","","","","","","","key","null","16.6839694656489","960","536","f","false","nonmatch","img/triangle.png","六边","三角","ALT1_1","prac_ALT1_1","","","","","","","","","","","",""
"null","<span class='add_' style='color:yellow; font-size: 70px;'> 太慢! </span>","null","html-keyboard-response","58","234171","0.0-7.0-0.0-1.0-0.0-1.24","2","3","2","2","2","2","2","1","2","2","2","2","2","3","2","2","2","2","3","2","3","4","4","4","3","3","4","4","4","1","0","1","1","0","0","0","1","0","1","1","0","1","0","1","3","4","4","4","5","1","3","4","4","2","2","732625560492314625","杨","169","","","","","","","","","","","","","","","","","","","","","","","","","","","","","","feedback_test","","","","","","","","","","","",""
"857","","f","psychophysics","59","236029","0.0-7.0-0.0-1.0-0.0-0.25","2","3","2","2","2","2","2","1","2","2","2","2","2","3","2","2","2","2","3","2","3","4","4","4","3","3","4","4","4","1","0","1","1","0","0","0","1","0","1","1","0","1","0","1","3","4","4","4","5","1","3","4","4","2","2","732625560492314625","杨","169","","","","nonmatch","","","","","","","","","","","","","","key","f","16.68288288288304","960","536","f","true","nonmatch","img/triangle.png","菱形","三角","ALT1_1","prac_ALT1_1","","","","","","","","","","","",""
"null","<span style='color:GreenYellow; font-size: 70px;'>正确! </span>","null","html-keyboard-response","60","236530","0.0-7.0-0.0-1.0-0.0-1.25","2","3","2","2","2","2","2","1","2","2","2","2","2","3","2","2","2","2","3","2","3","4","4","4","3","3","4","4","4","1","0","1","1","0","0","0","1","0","1","1","0","1","0","1","3","4","4","4","5","1","3","4","4","2","2","732625560492314625","杨","169","","","","","","","","","","","","","","","","","","","","","","","","","","","","","","feedback_test","","","","","","","","","","","",""
"570","","f","psychophysics","61","238101","0.0-7.0-0.0-1.0-0.0-0.26","2","3","2","2","2","2","2","1","2","2","2","2","2","3","2","2","2","2","3","2","3","4","4","4","3","3","4","4","4","1","0","1","1","0","0","0","1","0","1","1","0","1","0","1","3","4","4","4","5","1","3","4","4","2","2","732625560492314625","杨","169","","","","nonmatch","","","","","","","","","","","","","","key","f","16.682795698924732","960","536","j","false","match","img/diamond.png","菱形","菱形","ALT1_1","prac_ALT1_1","","","","","","","","","","","",""
"null","<span style='color:red; font-size: 70px;'>错误! </span>","null","html-keyboard-response","62","238602","0.0-7.0-0.0-1.0-0.0-1.26","2","3","2","2","2","2","2","1","2","2","2","2","2","3","2","2","2","2","3","2","3","4","4","4","3","3","4","4","4","1","0","1","1","0","0","0","1","0","1","1","0","1","0","1","3","4","4","4","5","1","3","4","4","2","2","732625560492314625","杨","169","","","","","","","","","","","","","","","","","","","","","","","","","","","","","","feedback_test","","","","","","","","","","","",""
"611","","j","psychophysics","63","240214","0.0-7.0-0.0-1.0-0.0-0.27","2","3","2","2","2","2","2","1","2","2","2","2","2","3","2","2","2","2","3","2","3","4","4","4","3","3","4","4","4","1","0","1","1","0","0","0","1","0","1","1","0","1","0","1","3","4","4","4","5","1","3","4","4","2","2","732625560492314625","杨","169","","","","match","","","","","","","","","","","","","","key","j","16.683333333333394","960","536","j","true","match","img/circle.png","圆形","圆形","ALT1_1","prac_ALT1_1","","","","","","","","","","","",""
"null","<span style='color:GreenYellow; font-size: 70px;'>正确! </span>","null","html-keyboard-response","64","240716","0.0-7.0-0.0-1.0-0.0-1.27","2","3","2","2","2","2","2","1","2","2","2","2","2","3","2","2","2","2","3","2","3","4","4","4","3","3","4","4","4","1","0","1","1","0","0","0","1","0","1","1","0","1","0","1","3","4","4","4","5","1","3","4","4","2","2","732625560492314625","杨","169","","","","","","","","","","","","","","","","","","","","","","","","","","","","","","feedback_test","","","","","","","","","","","",""
"1009","","f","psychophysics","65","242725","0.0-7.0-0.0-1.0-0.0-0.28","2","3","2","2","2","2","2","1","2","2","2","2","2","3","2","2","2","2","3","2","3","4","4","4","3","3","4","4","4","1","0","1","1","0","0","0","1","0","1","1","0","1","0","1","3","4","4","4","5","1","3","4","4","2","2","732625560492314625","杨","169","","","","nonmatch","","","","","","","","","","","","","","key","f","16.683193277310828","960","536","f","true","nonmatch","img/circle.png","三角","圆形","ALT1_1","prac_ALT1_1","","","","","","","","","","","",""
"null","<span style='color:GreenYellow; font-size: 70px;'>正确! </span>","null","html-keyboard-response","66","243226","0.0-7.0-0.0-1.0-0.0-1.28","2","3","2","2","2","2","2","1","2","2","2","2","2","3","2","2","2","2","3","2","3","4","4","4","3","3","4","4","4","1","0","1","1","0","0","0","1","0","1","1","0","1","0","1","3","4","4","4","5","1","3","4","4","2","2","732625560492314625","杨","169","","","","","","","","","","","","","","","","","","","","","","","","","","","","","","feedback_test","","","","","","","","","","","",""
"827","","f","psychophysics","67","245055","0.0-7.0-0.0-1.0-0.0-0.29","2","3","2","2","2","2","2","1","2","2","2","2","2","3","2","2","2","2","3","2","3","4","4","4","3","3","4","4","4","1","0","1","1","0","0","0","1","0","1","1","0","1","0","1","3","4","4","4","5","1","3","4","4","2","2","732625560492314625","杨","169","","","","nonmatch","","","","","","","","","","","","","","key","f","16.684403669724556","960","536","f","true","nonmatch","img/circle.png","六边","圆形","ALT1_1","prac_ALT1_1","","","","","","","","","","","",""
"null","<span style='color:GreenYellow; font-size: 70px;'>正确! </span>","null","html-keyboard-response","68","245557","0.0-7.0-0.0-1.0-0.0-1.29","2","3","2","2","2","2","2","1","2","2","2","2","2","3","2","2","2","2","3","2","3","4","4","4","3","3","4","4","4","1","0","1","1","0","0","0","1","0","1","1","0","1","0","1","3","4","4","4","5","1","3","4","4","2","2","732625560492314625","杨","169","","","","","","","","","","","","","","","","","","","","","","","","","","","","","","feedback_test","","","","","","","","","","","",""
"743","","j","psychophysics","69","247301","0.0-7.0-0.0-1.0-0.0-0.30","2","3","2","2","2","2","2","1","2","2","2","2","2","3","2","2","2","2","3","2","3","4","4","4","3","3","4","4","4","1","0","1","1","0","0","0","1","0","1","1","0","1","0","1","3","4","4","4","5","1","3","4","4","2","2","732625560492314625","杨","169","","","","match","","","","","","","","","","","","","","key","j","16.682524271844546","960","536","j","true","match","img/diamond.png","菱形","菱形","ALT1_1","prac_ALT1_1","","","","","","","","","","","",""
"null","<span style='color:GreenYellow; font-size: 70px;'>正确! </span>","null","html-keyboard-response","70","247802","0.0-7.0-0.0-1.0-0.0-1.30","2","3","2","2","2","2","2","1","2","2","2","2","2","3","2","2","2","2","3","2","3","4","4","4","3","3","4","4","4","1","0","1","1","0","0","0","1","0","1","1","0","1","0","1","3","4","4","4","5","1","3","4","4","2","2","732625560492314625","杨","169","","","","","","","","","","","","","","","","","","","","","","","","","","","","","","feedback_test","","","","","","","","","","","",""
"1033","","f","psychophysics","71","249838","0.0-7.0-0.0-1.0-0.0-0.31","2","3","2","2","2","2","2","1","2","2","2","2","2","3","2","2","2","2","3","2","3","4","4","4","3","3","4","4","4","1","0","1","1","0","0","0","1","0","1","1","0","1","0","1","3","4","4","4","5","1","3","4","4","2","2","732625560492314625","杨","169","","","","nonmatch","","","","","","","","","","","","","","key","f","16.682644628099222","960","536","f","true","nonmatch","img/hexagon.png","菱形","六边","ALT1_1","prac_ALT1_1","","","","","","","","","","","",""
"null","<span style='color:GreenYellow; font-size: 70px;'>正确! </span>","null","html-keyboard-response","72","250338","0.0-7.0-0.0-1.0-0.0-1.31","2","3","2","2","2","2","2","1","2","2","2","2","2","3","2","2","2","2","3","2","3","4","4","4","3","3","4","4","4","1","0","1","1","0","0","0","1","0","1","1","0","1","0","1","3","4","4","4","5","1","3","4","4","2","2","732625560492314625","杨","169","","","","","","","","","","","","","","","","","","","","","","","","","","","","","","feedback_test","","","","","","","","","","","",""
"706","","f","psychophysics","73","252045","0.0-7.0-0.0-1.0-0.0-0.32","2","3","2","2","2","2","2","1","2","2","2","2","2","3","2","2","2","2","3","2","3","4","4","4","3","3","4","4","4","1","0","1","1","0","0","0","1","0","1","1","0","1","0","1","3","4","4","4","5","1","3","4","4","2","2","732625560492314625","杨","169","","","","nonmatch","","","","","","","","","","","","","","key","f","16.684313725490366","960","536","f","true","nonmatch","img/circle.png","菱形","圆形","ALT1_1","prac_ALT1_1","","","","","","","","","","","",""
"null","<span style='color:GreenYellow; font-size: 70px;'>正确! </span>","null","html-keyboard-response","74","252547","0.0-7.0-0.0-1.0-0.0-1.32","2","3","2","2","2","2","2","1","2","2","2","2","2","3","2","2","2","2","3","2","3","4","4","4","3","3","4","4","4","1","0","1","1","0","0","0","1","0","1","1","0","1","0","1","3","4","4","4","5","1","3","4","4","2","2","732625560492314625","杨","169","","","","","","","","","","","","","","","","","","","","","","","","","","","","","","feedback_test","","","","","","","","","","","",""
"834","","f","psychophysics","75","254381","0.0-7.0-0.0-1.0-0.0-0.33","2","3","2","2","2","2","2","1","2","2","2","2","2","3","2","2","2","2","3","2","3","4","4","4","3","3","4","4","4","1","0","1","1","0","0","0","1","0","1","1","0","1","0","1","3","4","4","4","5","1","3","4","4","2","2","732625560492314625","杨","169","","","","nonmatch","","","","","","","","","","","","","","key","f","16.68348623853211","960","536","f","true","nonmatch","img/diamond.png","三角","菱形","ALT1_1","prac_ALT1_1","","","","","","","","","","","",""
"null","<span style='color:GreenYellow; font-size: 70px;'>正确! </span>","null","html-keyboard-response","76","254882","0.0-7.0-0.0-1.0-0.0-1.33","2","3","2","2","2","2","2","1","2","2","2","2","2","3","2","2","2","2","3","2","3","4","4","4","3","3","4","4","4","1","0","1","1","0","0","0","1","0","1","1","0","1","0","1","3","4","4","4","5","1","3","4","4","2","2","732625560492314625","杨","169","","","","","","","","","","","","","","","","","","","","","","","","","","","","","","feedback_test","","","","","","","","","","","",""
"857","","j","psychophysics","77","256741","0.0-7.0-0.0-1.0-0.0-0.34","2","3","2","2","2","2","2","1","2","2","2","2","2","3","2","2","2","2","3","2","3","4","4","4","3","3","4","4","4","1","0","1","1","0","0","0","1","0","1","1","0","1","0","1","3","4","4","4","5","1","3","4","4","2","2","732625560492314625","杨","169","","","","match","","","","","","","","","","","","","","key","j","16.682727272727327","960","536","j","true","match","img/hexagon.png","六边","六边","ALT1_1","prac_ALT1_1","","","","","","","","","","","",""
"null","<span style='color:GreenYellow; font-size: 70px;'>正确! </span>","null","html-keyboard-response","78","257242","0.0-7.0-0.0-1.0-0.0-1.34","2","3","2","2","2","2","2","1","2","2","2","2","2","3","2","2","2","2","3","2","3","4","4","4","3","3","4","4","4","1","0","1","1","0","0","0","1","0","1","1","0","1","0","1","3","4","4","4","5","1","3","4","4","2","2","732625560492314625","杨","169","","","","","","","","","","","","","","","","","","","","","","","","","","","","","","feedback_test","","","","","","","","","","","",""
"697","","j","psychophysics","79","258941","0.0-7.0-0.0-1.0-0.0-0.35","2","3","2","2","2","2","2","1","2","2","2","2","2","3","2","2","2","2","3","2","3","4","4","4","3","3","4","4","4","1","0","1","1","0","0","0","1","0","1","1","0","1","0","1","3","4","4","4","5","1","3","4","4","2","2","732625560492314625","杨","169","","","","match","","","","","","","","","","","","","","key","j","16.683168316831683","960","536","j","true","match","img/hexagon.png","六边","六边","ALT1_1","prac_ALT1_1","","","","","","","","","","","",""
"null","<span style='color:GreenYellow; font-size: 70px;'>正确! </span>","null","html-keyboard-response","80","259442","0.0-7.0-0.0-1.0-0.0-1.35","2","3","2","2","2","2","2","1","2","2","2","2","2","3","2","2","2","2","3","2","3","4","4","4","3","3","4","4","4","1","0","1","1","0","0","0","1","0","1","1","0","1","0","1","3","4","4","4","5","1","3","4","4","2","2","732625560492314625","杨","169","","","","","","","","","","","","","","","","","","","","","","","","","","","","","","feedback_test","","","","","","","","","","","",""
"771","","j","psychophysics","81","261213","0.0-7.0-0.0-1.0-0.0-0.36","2","3","2","2","2","2","2","1","2","2","2","2","2","3","2","2","2","2","3","2","3","4","4","4","3","3","4","4","4","1","0","1","1","0","0","0","1","0","1","1","0","1","0","1","3","4","4","4","5","1","3","4","4","2","2","732625560492314625","杨","169","","","","match","","","","","","","","","","","","","","key","j","16.685714285714287","960","536","j","true","match","img/triangle.png","三角","三角","ALT1_1","prac_ALT1_1","","","","","","","","","","","",""
"null","<span style='color:GreenYellow; font-size: 70px;'>正确! </span>","null","html-keyboard-response","82","261715","0.0-7.0-0.0-1.0-0.0-1.36","2","3","2","2","2","2","2","1","2","2","2","2","2","3","2","2","2","2","3","2","3","4","4","4","3","3","4","4","4","1","0","1","1","0","0","0","1","0","1","1","0","1","0","1","3","4","4","4","5","1","3","4","4","2","2","732625560492314625","杨","169","","","","","","","","","","","","","","","","","","","","","","","","","","","","","","feedback_test","","","","","","","","","","","",""
"780","","f","psychophysics","83","263501","0.0-7.0-0.0-1.0-0.0-0.37","2","3","2","2","2","2","2","1","2","2","2","2","2","3","2","2","2","2","3","2","3","4","4","4","3","3","4","4","4","1","0","1","1","0","0","0","1","0","1","1","0","1","0","1","3","4","4","4","5","1","3","4","4","2","2","732625560492314625","杨","169","","","","nonmatch","","","","","","","","","","","","","","key","f","16.683962264150942","960","536","f","true","nonmatch","img/diamond.png","六边","菱形","ALT1_1","prac_ALT1_1","","","","","","","","","","","",""
"null","<span style='color:GreenYellow; font-size: 70px;'>正确! </span>","null","html-keyboard-response","84","264002","0.0-7.0-0.0-1.0-0.0-1.37","2","3","2","2","2","2","2","1","2","2","2","2","2","3","2","2","2","2","3","2","3","4","4","4","3","3","4","4","4","1","0","1","1","0","0","0","1","0","1","1","0","1","0","1","3","4","4","4","5","1","3","4","4","2","2","732625560492314625","杨","169","","","","","","","","","","","","","","","","","","","","","","","","","","","","","","feedback_test","","","","","","","","","","","",""
"681","","j","psychophysics","85","265685","0.0-7.0-0.0-1.0-0.0-0.38","2","3","2","2","2","2","2","1","2","2","2","2","2","3","2","2","2","2","3","2","3","4","4","4","3","3","4","4","4","1","0","1","1","0","0","0","1","0","1","1","0","1","0","1","3","4","4","4","5","1","3","4","4","2","2","732625560492314625","杨","169","","","","match","","","","","","","","","","","","","","key","j","16.68399999999965","960","536","j","true","match","img/circle.png","圆形","圆形","ALT1_1","prac_ALT1_1","","","","","","","","","","","",""
"null","<span style='color:GreenYellow; font-size: 70px;'>正确! </span>","null","html-keyboard-response","86","266186","0.0-7.0-0.0-1.0-0.0-1.38","2","3","2","2","2","2","2","1","2","2","2","2","2","3","2","2","2","2","3","2","3","4","4","4","3","3","4","4","4","1","0","1","1","0","0","0","1","0","1","1","0","1","0","1","3","4","4","4","5","1","3","4","4","2","2","732625560492314625","杨","169","","","","","","","","","","","","","","","","","","","","","","","","","","","","","","feedback_test","","","","","","","","","","","",""
"650","","j","psychophysics","87","267837","0.0-7.0-0.0-1.0-0.0-0.39","2","3","2","2","2","2","2","1","2","2","2","2","2","3","2","2","2","2","3","2","3","4","4","4","3","3","4","4","4","1","0","1","1","0","0","0","1","0","1","1","0","1","0","1","3","4","4","4","5","1","3","4","4","2","2","732625560492314625","杨","169","","","","match","","","","","","","","","","","","","","key","j","16.68469387755078","960","536","j","true","match","img/triangle.png","三角","三角","ALT1_1","prac_ALT1_1","","","","","","","","","","","",""
"null","<span style='color:GreenYellow; font-size: 70px;'>正确! </span>","null","html-keyboard-response","88","268338","0.0-7.0-0.0-1.0-0.0-1.39","2","3","2","2","2","2","2","1","2","2","2","2","2","3","2","2","2","2","3","2","3","4","4","4","3","3","4","4","4","1","0","1","1","0","0","0","1","0","1","1","0","1","0","1","3","4","4","4","5","1","3","4","4","2","2","732625560492314625","杨","169","","","","","","","","","","","","","","","","","","","","","","","","","","","","","","feedback_test","","","","","","","","","","","",""
"665","","j","psychophysics","89","270005","0.0-7.0-0.0-1.0-0.0-0.40","2","3","2","2","2","2","2","1","2","2","2","2","2","3","2","2","2","2","3","2","3","4","4","4","3","3","4","4","4","1","0","1","1","0","0","0","1","0","1","1","0","1","0","1","3","4","4","4","5","1","3","4","4","2","2","732625560492314625","杨","169","","","","match","","","","","","","","","","","","","","key","j","16.683838383838502","960","536","j","true","match","img/triangle.png","三角","三角","ALT1_1","prac_ALT1_1","","","","","","","","","","","",""
"null","<span style='color:GreenYellow; font-size: 70px;'>正确! </span>","null","html-keyboard-response","90","270506","0.0-7.0-0.0-1.0-0.0-1.40","2","3","2","2","2","2","2","1","2","2","2","2","2","3","2","2","2","2","3","2","3","4","4","4","3","3","4","4","4","1","0","1","1","0","0","0","1","0","1","1","0","1","0","1","3","4","4","4","5","1","3","4","4","2","2","732625560492314625","杨","169","","","","","","","","","","","","","","","","","","","","","","","","","","","","","","feedback_test","","","","","","","","","","","",""
"698","","j","psychophysics","91","272205","0.0-7.0-0.0-1.0-0.0-0.41","2","3","2","2","2","2","2","1","2","2","2","2","2","3","2","2","2","2","3","2","3","4","4","4","3","3","4","4","4","1","0","1","1","0","0","0","1","0","1","1","0","1","0","1","3","4","4","4","5","1","3","4","4","2","2","732625560492314625","杨","169","","","","match","","","","","","","","","","","","","","key","j","16.683168316831683","960","536","j","true","match","img/circle.png","圆形","圆形","ALT1_1","prac_ALT1_1","","","","","","","","","","","",""
"null","<span style='color:GreenYellow; font-size: 70px;'>正确! </span>","null","html-keyboard-response","92","272706","0.0-7.0-0.0-1.0-0.0-1.41","2","3","2","2","2","2","2","1","2","2","2","2","2","3","2","2","2","2","3","2","3","4","4","4","3","3","4","4","4","1","0","1","1","0","0","0","1","0","1","1","0","1","0","1","3","4","4","4","5","1","3","4","4","2","2","732625560492314625","杨","169","","","","","","","","","","","","","","","","","","","","","","","","","","","","","","feedback_test","","","","","","","","","","","",""
"794","","f","psychophysics","93","274501","0.0-7.0-0.0-1.0-0.0-0.42","2","3","2","2","2","2","2","1","2","2","2","2","2","3","2","2","2","2","3","2","3","4","4","4","3","3","4","4","4","1","0","1","1","0","0","0","1","0","1","1","0","1","0","1","3","4","4","4","5","1","3","4","4","2","2","732625560492314625","杨","169","","","","nonmatch","","","","","","","","","","","","","","key","f","16.68411214953282","960","536","f","true","nonmatch","img/hexagon.png","圆形","六边","ALT1_1","prac_ALT1_1","","","","","","","","","","","",""
"null","<span style='color:GreenYellow; font-size: 70px;'>正确! </span>","null","html-keyboard-response","94","275001","0.0-7.0-0.0-1.0-0.0-1.42","2","3","2","2","2","2","2","1","2","2","2","2","2","3","2","2","2","2","3","2","3","4","4","4","3","3","4","4","4","1","0","1","1","0","0","0","1","0","1","1","0","1","0","1","3","4","4","4","5","1","3","4","4","2","2","732625560492314625","杨","169","","","","","","","","","","","","","","","","","","","","","","","","","","","","","","feedback_test","","","","","","","","","","","",""
"1035","","f","psychophysics","95","277037","0.0-7.0-0.0-1.0-0.0-0.43","2","3","2","2","2","2","2","1","2","2","2","2","2","3","2","2","2","2","3","2","3","4","4","4","3","3","4","4","4","1","0","1","1","0","0","0","1","0","1","1","0","1","0","1","3","4","4","4","5","1","3","4","4","2","2","732625560492314625","杨","169","","","","nonmatch","","","","","","","","","","","","","","key","f","16.68264462809898","960","536","f","true","nonmatch","img/hexagon.png","三角","六边","ALT1_1","prac_ALT1_1","","","","","","","","","","","",""
"null","<span style='color:GreenYellow; font-size: 70px;'>正确! </span>","null","html-keyboard-response","96","277538","0.0-7.0-0.0-1.0-0.0-1.43","2","3","2","2","2","2","2","1","2","2","2","2","2","3","2","2","2","2","3","2","3","4","4","4","3","3","4","4","4","1","0","1","1","0","0","0","1","0","1","1","0","1","0","1","3","4","4","4","5","1","3","4","4","2","2","732625560492314625","杨","169","","","","","","","","","","","","","","","","","","","","","","","","","","","","","","feedback_test","","","","","","","","","","","",""
"763","","f","psychophysics","97","279302","0.0-7.0-0.0-1.0-0.0-0.44","2","3","2","2","2","2","2","1","2","2","2","2","2","3","2","2","2","2","3","2","3","4","4","4","3","3","4","4","4","1","0","1","1","0","0","0","1","0","1","1","0","1","0","1","3","4","4","4","5","1","3","4","4","2","2","732625560492314625","杨","169","","","","nonmatch","","","","","","","","","","","","","","key","f","16.681730769230434","960","536","f","true","nonmatch","img/triangle.png","圆形","三角","ALT1_1","prac_ALT1_1","","","","","","","","","","","",""
"null","<span style='color:GreenYellow; font-size: 70px;'>正确! </span>","null","html-keyboard-response","98","279803","0.0-7.0-0.0-1.0-0.0-1.44","2","3","2","2","2","2","2","1","2","2","2","2","2","3","2","2","2","2","3","2","3","4","4","4","3","3","4","4","4","1","0","1","1","0","0","0","1","0","1","1","0","1","0","1","3","4","4","4","5","1","3","4","4","2","2","732625560492314625","杨","169","","","","","","","","","","","","","","","","","","","","","","","","","","","","","","feedback_test","","","","","","","","","","","",""
"960","","j","psychophysics","99","281765","0.0-7.0-0.0-1.0-0.0-0.45","2","3","2","2","2","2","2","1","2","2","2","2","2","3","2","2","2","2","3","2","3","4","4","4","3","3","4","4","4","1","0","1","1","0","0","0","1","0","1","1","0","1","0","1","3","4","4","4","5","1","3","4","4","2","2","732625560492314625","杨","169","","","","match","","","","","","","","","","","","","","key","j","16.682758620689757","960","536","j","true","match","img/diamond.png","菱形","菱形","ALT1_1","prac_ALT1_1","","","","","","","","","","","",""
"null","<span style='color:GreenYellow; font-size: 70px;'>正确! </span>","null","html-keyboard-response","100","282266","0.0-7.0-0.0-1.0-0.0-1.45","2","3","2","2","2","2","2","1","2","2","2","2","2","3","2","2","2","2","3","2","3","4","4","4","3","3","4","4","4","1","0","1","1","0","0","0","1","0","1","1","0","1","0","1","3","4","4","4","5","1","3","4","4","2","2","732625560492314625","杨","169","","","","","","","","","","","","","","","","","","","","","","","","","","","","","","feedback_test","","","","","","","","","","","",""
"675","","f","psychophysics","101","283942","0.0-7.0-0.0-1.0-0.0-0.46","2","3","2","2","2","2","2","1","2","2","2","2","2","3","2","2","2","2","3","2","3","4","4","4","3","3","4","4","4","1","0","1","1","0","0","0","1","0","1","1","0","1","0","1","3","4","4","4","5","1","3","4","4","2","2","732625560492314625","杨","169","","","","nonmatch","","","","","","","","","","","","","","key","f","16.68399999999965","960","536","f","true","nonmatch","img/diamond.png","圆形","菱形","ALT1_1","prac_ALT1_1","","","","","","","","","","","",""
"null","<span style='color:GreenYellow; font-size: 70px;'>正确! </span>","null","html-keyboard-response","102","284446","0.0-7.0-0.0-1.0-0.0-1.46","2","3","2","2","2","2","2","1","2","2","2","2","2","3","2","2","2","2","3","2","3","4","4","4","3","3","4","4","4","1","0","1","1","0","0","0","1","0","1","1","0","1","0","1","3","4","4","4","5","1","3","4","4","2","2","732625560492314625","杨","169","","","","","","","","","","","","","","","","","","","","","","","","","","","","","","feedback_test","","","","","","","","","","","",""
"692","","j","psychophysics","103","286141","0.0-7.0-0.0-1.0-0.0-0.47","2","3","2","2","2","2","2","1","2","2","2","2","2","3","2","2","2","2","3","2","3","4","4","4","3","3","4","4","4","1","0","1","1","0","0","0","1","0","1","1","0","1","0","1","3","4","4","4","5","1","3","4","4","2","2","732625560492314625","杨","169","","","","match","","","","","","","","","","","","","","key","j","16.682000000000116","960","536","j","true","match","img/hexagon.png","六边","六边","ALT1_1","prac_ALT1_1","","","","","","","","","","","",""
"null","<span style='color:GreenYellow; font-size: 70px;'>正确! </span>","null","html-keyboard-response","104","286642","0.0-7.0-0.0-1.0-0.0-1.47","2","3","2","2","2","2","2","1","2","2","2","2","2","3","2","2","2","2","3","2","3","4","4","4","3","3","4","4","4","1","0","1","1","0","0","0","1","0","1","1","0","1","0","1","3","4","4","4","5","1","3","4","4","2","2","732625560492314625","杨","169","","","","","","","","","","","","","","","","","","","","","","","","","","","","","","feedback_test","","","","","","","","","","","",""
"8122","<style>.context{color:white; font-size: 35px; line-height:40px}</style>                            <div><p class='context'>您正确回答了85% 的试次。</p><p class='context'>您的平均反应时为771毫秒。</p><p class='context'>恭喜您完成练习。按空格键进入正式实验。</p><p class='footer' style='font-size: 35px; line-height:40px;'>请在进入正式实验之前将您的<span style='color: lightgreen;'>食指</span>放在电脑键盘的相应键位上进行按键。</p>","j","html-keyboard-response","105","294765","0.0-7.0-0.0-2.0","2","3","2","2","2","2","2","1","2","2","2","2","2","3","2","2","2","2","3","2","3","4","4","4","3","3","4","4","4","1","0","1","1","0","0","0","1","0","1","1","0","1","0","1","3","4","4","4","5","1","3","4","4","2","2","732625560492314625","杨","169","","","","","","","","","","","","","","","","","","","","","","","","","","","","","","","","","","","","","","","","","",""
"2143","
    <p style='color: white; font-size: 22px'>请您将手指放在按键上，准备进入正式的匹配任务。</p>
    <p> <div style = ""color: green""><按空格键进入下一阶段的匹配任务></div></p>
    "," ","html-keyboard-response","106","296909","0.0-7.0-0.0-3.0","2","3","2","2","2","2","2","1","2","2","2","2","2","3","2","2","2","2","3","2","3","4","4","4","3","3","4","4","4","1","0","1","1","0","0","0","1","0","1","1","0","1","0","1","3","4","4","4","5","1","3","4","4","2","2","732625560492314625","杨","169","","","","","","","","","","","","","","","","","","","","","","","","","","","","","","","","","","","","","","","","","",""
"831","","f","psychophysics","107","298741","0.0-7.0-0.0-4.0-0.0-0.0","2","3","2","2","2","2","2","1","2","2","2","2","2","3","2","2","2","2","3","2","3","4","4","4","3","3","4","4","4","1","0","1","1","0","0","0","1","0","1","1","0","1","0","1","3","4","4","4","5","1","3","4","4","2","2","732625560492314625","杨","169","","","","nonmatch","","","","","","","","","","","","","","key","f","16.68348623853211","960","536","f","true","nonmatch","img/diamond.png","六边","菱形","ALT1","formal_ALT1_1","","","","","","","","","","","",""
"null","<span style='color:GreenYellow; font-size: 70px;'>正确! </span>","null","html-keyboard-response","108","299243","0.0-7.0-0.0-4.0-0.0-1.0","2","3","2","2","2","2","2","1","2","2","2","2","2","3","2","2","2","2","3","2","3","4","4","4","3","3","4","4","4","1","0","1","1","0","0","0","1","0","1","1","0","1","0","1","3","4","4","4","5","1","3","4","4","2","2","732625560492314625","杨","169","","","","","","","","","","","","","","","","","","","","","","","","","","","","","","feedback_test","","","","","","","","","","","",""
"657","","j","psychophysics","109","300900","0.0-7.0-0.0-4.0-0.0-0.1","2","3","2","2","2","2","2","1","2","2","2","2","2","3","2","2","2","2","3","2","3","4","4","4","3","3","4","4","4","1","0","1","1","0","0","0","1","0","1","1","0","1","0","1","3","4","4","4","5","1","3","4","4","2","2","732625560492314625","杨","169","","","","match","","","","","","","","","","","","","","key","j","16.683673469387756","960","536","j","true","match","img/diamond.png","菱形","菱形","ALT1","formal_ALT1_1","","","","","","","","","","","",""
"null","<span style='color:GreenYellow; font-size: 70px;'>正确! </span>","null","html-keyboard-response","110","301401","0.0-7.0-0.0-4.0-0.0-1.1","2","3","2","2","2","2","2","1","2","2","2","2","2","3","2","2","2","2","3","2","3","4","4","4","3","3","4","4","4","1","0","1","1","0","0","0","1","0","1","1","0","1","0","1","3","4","4","4","5","1","3","4","4","2","2","732625560492314625","杨","169","","","","","","","","","","","","","","","","","","","","","","","","","","","","","","feedback_test","","","","","","","","","","","",""
"681","","f","psychophysics","111","303085","0.0-7.0-0.0-4.0-0.0-0.2","2","3","2","2","2","2","2","1","2","2","2","2","2","3","2","2","2","2","3","2","3","4","4","4","3","3","4","4","4","1","0","1","1","0","0","0","1","0","1","1","0","1","0","1","3","4","4","4","5","1","3","4","4","2","2","732625560492314625","杨","169","","","","nonmatch","","","","","","","","","","","","","","key","f","16.684000000000232","960","536","f","true","nonmatch","img/circle.png","六边","圆形","ALT1","formal_ALT1_1","","","","","","","","","","","",""
"null","<span style='color:GreenYellow; font-size: 70px;'>正确! </span>","null","html-keyboard-response","112","303587","0.0-7.0-0.0-4.0-0.0-1.2","2","3","2","2","2","2","2","1","2","2","2","2","2","3","2","2","2","2","3","2","3","4","4","4","3","3","4","4","4","1","0","1","1","0","0","0","1","0","1","1","0","1","0","1","3","4","4","4","5","1","3","4","4","2","2","732625560492314625","杨","169","","","","","","","","","","","","","","","","","","","","","","","","","","","","","","feedback_test","","","","","","","","","","","",""
"762","","j","psychophysics","113","305349","0.0-7.0-0.0-4.0-0.0-0.3","2","3","2","2","2","2","2","1","2","2","2","2","2","3","2","2","2","2","3","2","3","4","4","4","3","3","4","4","4","1","0","1","1","0","0","0","1","0","1","1","0","1","0","1","3","4","4","4","5","1","3","4","4","2","2","732625560492314625","杨","169","","","","match","","","","","","","","","","","","","","key","j","16.683809523809412","960","536","j","true","match","img/hexagon.png","六边","六边","ALT1","formal_ALT1_1","","","","","","","","","","","",""
"null","<span style='color:GreenYellow; font-size: 70px;'>正确! </span>","null","html-keyboard-response","114","305850","0.0-7.0-0.0-4.0-0.0-1.3","2","3","2","2","2","2","2","1","2","2","2","2","2","3","2","2","2","2","3","2","3","4","4","4","3","3","4","4","4","1","0","1","1","0","0","0","1","0","1","1","0","1","0","1","3","4","4","4","5","1","3","4","4","2","2","732625560492314625","杨","169","","","","","","","","","","","","","","","","","","","","","","","","","","","","","","feedback_test","","","","","","","","","","","",""
"673","","f","psychophysics","115","307525","0.0-7.0-0.0-4.0-0.0-0.4","2","3","2","2","2","2","2","1","2","2","2","2","2","3","2","2","2","2","3","2","3","4","4","4","3","3","4","4","4","1","0","1","1","0","0","0","1","0","1","1","0","1","0","1","3","4","4","4","5","1","3","4","4","2","2","732625560492314625","杨","169","","","","nonmatch","","","","","","","","","","","","","","key","f","16.682828282828048","960","536","f","true","nonmatch","img/triangle.png","六边","三角","ALT1","formal_ALT1_1","","","","","","","","","","","",""
"null","<span style='color:GreenYellow; font-size: 70px;'>正确! </span>","null","html-keyboard-response","116","308025","0.0-7.0-0.0-4.0-0.0-1.4","2","3","2","2","2","2","2","1","2","2","2","2","2","3","2","2","2","2","3","2","3","4","4","4","3","3","4","4","4","1","0","1","1","0","0","0","1","0","1","1","0","1","0","1","3","4","4","4","5","1","3","4","4","2","2","732625560492314625","杨","169","","","","","","","","","","","","","","","","","","","","","","","","","","","","","","feedback_test","","","","","","","","","","","",""
"659","","j","psychophysics","117","309685","0.0-7.0-0.0-4.0-0.0-0.5","2","3","2","2","2","2","2","1","2","2","2","2","2","3","2","2","2","2","3","2","3","4","4","4","3","3","4","4","4","1","0","1","1","0","0","0","1","0","1","1","0","1","0","1","3","4","4","4","5","1","3","4","4","2","2","732625560492314625","杨","169","","","","match","","","","","","","","","","","","","","key","j","16.683838383838502","960","536","j","true","match","img/hexagon.png","六边","六边","ALT1","formal_ALT1_1","","","","","","","","","","","",""
"null","<span style='color:GreenYellow; font-size: 70px;'>正确! </span>","null","html-keyboard-response","118","310186","0.0-7.0-0.0-4.0-0.0-1.5","2","3","2","2","2","2","2","1","2","2","2","2","2","3","2","2","2","2","3","2","3","4","4","4","3","3","4","4","4","1","0","1","1","0","0","0","1","0","1","1","0","1","0","1","3","4","4","4","5","1","3","4","4","2","2","732625560492314625","杨","169","","","","","","","","","","","","","","","","","","","","","","","","","","","","","","feedback_test","","","","","","","","","","","",""
"698","","j","psychophysics","119","311885","0.0-7.0-0.0-4.0-0.0-0.6","2","3","2","2","2","2","2","1","2","2","2","2","2","3","2","2","2","2","3","2","3","4","4","4","3","3","4","4","4","1","0","1","1","0","0","0","1","0","1","1","0","1","0","1","3","4","4","4","5","1","3","4","4","2","2","732625560492314625","杨","169","","","","match","","","","","","","","","","","","","","key","j","16.683168316831683","960","536","j","true","match","img/triangle.png","三角","三角","ALT1","formal_ALT1_1","","","","","","","","","","","",""
"null","<span style='color:GreenYellow; font-size: 70px;'>正确! </span>","null","html-keyboard-response","120","312386","0.0-7.0-0.0-4.0-0.0-1.6","2","3","2","2","2","2","2","1","2","2","2","2","2","3","2","2","2","2","3","2","3","4","4","4","3","3","4","4","4","1","0","1","1","0","0","0","1","0","1","1","0","1","0","1","3","4","4","4","5","1","3","4","4","2","2","732625560492314625","杨","169","","","","","","","","","","","","","","","","","","","","","","","","","","","","","","feedback_test","","","","","","","","","","","",""
"649","","j","psychophysics","121","314037","0.0-7.0-0.0-4.0-0.0-0.7","2","3","2","2","2","2","2","1","2","2","2","2","2","3","2","2","2","2","3","2","3","4","4","4","3","3","4","4","4","1","0","1","1","0","0","0","1","0","1","1","0","1","0","1","3","4","4","4","5","1","3","4","4","2","2","732625560492314625","杨","169","","","","match","","","","","","","","","","","","","","key","j","16.681632653061104","960","536","j","true","match","img/circle.png","圆形","圆形","ALT1","formal_ALT1_1","","","","","","","","","","","",""
"null","<span style='color:GreenYellow; font-size: 70px;'>正确! </span>","null","html-keyboard-response","122","314539","0.0-7.0-0.0-4.0-0.0-1.7","2","3","2","2","2","2","2","1","2","2","2","2","2","3","2","2","2","2","3","2","3","4","4","4","3","3","4","4","4","1","0","1","1","0","0","0","1","0","1","1","0","1","0","1","3","4","4","4","5","1","3","4","4","2","2","732625560492314625","杨","169","","","","","","","","","","","","","","","","","","","","","","","","","","","","","","feedback_test","","","","","","","","","","","",""
"680","","j","psychophysics","123","316221","0.0-7.0-0.0-4.0-0.0-0.8","2","3","2","2","2","2","2","1","2","2","2","2","2","3","2","2","2","2","3","2","3","4","4","4","3","3","4","4","4","1","0","1","1","0","0","0","1","0","1","1","0","1","0","1","3","4","4","4","5","1","3","4","4","2","2","732625560492314625","杨","169","","","","match","","","","","","","","","","","","","","key","j","16.682828282828048","960","536","j","true","match","img/circle.png","圆形","圆形","ALT1","formal_ALT1_1","","","","","","","","","","","",""
"null","<span style='color:GreenYellow; font-size: 70px;'>正确! </span>","null","html-keyboard-response","124","316721","0.0-7.0-0.0-4.0-0.0-1.8","2","3","2","2","2","2","2","1","2","2","2","2","2","3","2","2","2","2","3","2","3","4","4","4","3","3","4","4","4","1","0","1","1","0","0","0","1","0","1","1","0","1","0","1","3","4","4","4","5","1","3","4","4","2","2","732625560492314625","杨","169","","","","","","","","","","","","","","","","","","","","","","","","","","","","","","feedback_test","","","","","","","","","","","",""
"1059","","j","psychophysics","125","318781","0.0-7.0-0.0-4.0-0.0-0.9","2","3","2","2","2","2","2","1","2","2","2","2","2","3","2","2","2","2","3","2","3","4","4","4","3","3","4","4","4","1","0","1","1","0","0","0","1","0","1","1","0","1","0","1","3","4","4","4","5","1","3","4","4","2","2","732625560492314625","杨","169","","","","match","","","","","","","","","","","","","","key","j","16.67459016393433","960","536","j","true","match","img/diamond.png","菱形","菱形","ALT1","formal_ALT1_1","","","","","","","","","","","",""
"null","<span style='color:GreenYellow; font-size: 70px;'>正确! </span>","null","html-keyboard-response","126","319282","0.0-7.0-0.0-4.0-0.0-1.9","2","3","2","2","2","2","2","1","2","2","2","2","2","3","2","2","2","2","3","2","3","4","4","4","3","3","4","4","4","1","0","1","1","0","0","0","1","0","1","1","0","1","0","1","3","4","4","4","5","1","3","4","4","2","2","732625560492314625","杨","169","","","","","","","","","","","","","","","","","","","","","","","","","","","","","","feedback_test","","","","","","","","","","","",""
"713","","j","psychophysics","127","320997","0.0-7.0-0.0-4.0-0.0-0.10","2","3","2","2","2","2","2","1","2","2","2","2","2","3","2","2","2","2","3","2","3","4","4","4","3","3","4","4","4","1","0","1","1","0","0","0","1","0","1","1","0","1","0","1","3","4","4","4","5","1","3","4","4","2","2","732625560492314625","杨","169","","","","match","","","","","","","","","","","","","","key","j","16.682352941176813","960","536","j","true","match","img/hexagon.png","六边","六边","ALT1","formal_ALT1_1","","","","","","","","","","","",""
"null","<span style='color:GreenYellow; font-size: 70px;'>正确! </span>","null","html-keyboard-response","128","321498","0.0-7.0-0.0-4.0-0.0-1.10","2","3","2","2","2","2","2","1","2","2","2","2","2","3","2","2","2","2","3","2","3","4","4","4","3","3","4","4","4","1","0","1","1","0","0","0","1","0","1","1","0","1","0","1","3","4","4","4","5","1","3","4","4","2","2","732625560492314625","杨","169","","","","","","","","","","","","","","","","","","","","","","","","","","","","","","feedback_test","","","","","","","","","","","",""
"587","","j","psychophysics","129","323085","0.0-7.0-0.0-4.0-0.0-0.11","2","3","2","2","2","2","2","1","2","2","2","2","2","3","2","2","2","2","3","2","3","4","4","4","3","3","4","4","4","1","0","1","1","0","0","0","1","0","1","1","0","1","0","1","3","4","4","4","5","1","3","4","4","2","2","732625560492314625","杨","169","","","","match","","","","","","","","","","","","","","key","j","16.681914893616774","960","536","j","true","match","img/triangle.png","三角","三角","ALT1","formal_ALT1_1","","","","","","","","","","","",""
"null","<span style='color:GreenYellow; font-size: 70px;'>正确! </span>","null","html-keyboard-response","130","323586","0.0-7.0-0.0-4.0-0.0-1.11","2","3","2","2","2","2","2","1","2","2","2","2","2","3","2","2","2","2","3","2","3","4","4","4","3","3","4","4","4","1","0","1","1","0","0","0","1","0","1","1","0","1","0","1","3","4","4","4","5","1","3","4","4","2","2","732625560492314625","杨","169","","","","","","","","","","","","","","","","","","","","","","","","","","","","","","feedback_test","","","","","","","","","","","",""
"1129","","f","psychophysics","131","325716","0.0-7.0-0.0-4.0-0.0-0.12","2","3","2","2","2","2","2","1","2","2","2","2","2","3","2","2","2","2","3","2","3","4","4","4","3","3","4","4","4","1","0","1","1","0","0","0","1","0","1","1","0","1","0","1","3","4","4","4","5","1","3","4","4","2","2","732625560492314625","杨","169","","","","nonmatch","","","","","","","","","","","","","","key","f","16.683464566929043","960","536","f","true","nonmatch","img/triangle.png","菱形","三角","ALT1","formal_ALT1_1","","","","","","","","","","","",""
"null","<span style='color:GreenYellow; font-size: 70px;'>正确! </span>","null","html-keyboard-response","132","326217","0.0-7.0-0.0-4.0-0.0-1.12","2","3","2","2","2","2","2","1","2","2","2","2","2","3","2","2","2","2","3","2","3","4","4","4","3","3","4","4","4","1","0","1","1","0","0","0","1","0","1","1","0","1","0","1","3","4","4","4","5","1","3","4","4","2","2","732625560492314625","杨","169","","","","","","","","","","","","","","","","","","","","","","","","","","","","","","feedback_test","","","","","","","","","","","",""
"682","","j","psychophysics","133","327901","0.0-7.0-0.0-4.0-0.0-0.13","2","3","2","2","2","2","2","1","2","2","2","2","2","3","2","2","2","2","3","2","3","4","4","4","3","3","4","4","4","1","0","1","1","0","0","0","1","0","1","1","0","1","0","1","3","4","4","4","5","1","3","4","4","2","2","732625560492314625","杨","169","","","","match","","","","","","","","","","","","","","key","j","16.682000000000116","960","536","j","true","match","img/triangle.png","三角","三角","ALT1","formal_ALT1_1","","","","","","","","","","","",""
"null","<span style='color:GreenYellow; font-size: 70px;'>正确! </span>","null","html-keyboard-response","134","328402","0.0-7.0-0.0-4.0-0.0-1.13","2","3","2","2","2","2","2","1","2","2","2","2","2","3","2","2","2","2","3","2","3","4","4","4","3","3","4","4","4","1","0","1","1","0","0","0","1","0","1","1","0","1","0","1","3","4","4","4","5","1","3","4","4","2","2","732625560492314625","杨","169","","","","","","","","","","","","","","","","","","","","","","","","","","","","","","feedback_test","","","","","","","","","","","",""
"603","","j","psychophysics","135","330005","0.0-7.0-0.0-4.0-0.0-0.14","2","3","2","2","2","2","2","1","2","2","2","2","2","3","2","2","2","2","3","2","3","4","4","4","3","3","4","4","4","1","0","1","1","0","0","0","1","0","1","1","0","1","0","1","3","4","4","4","5","1","3","4","4","2","2","732625560492314625","杨","169","","","","match","","","","","","","","","","","","","","key","j","16.683157894737086","960","536","j","true","match","img/circle.png","圆形","圆形","ALT1","formal_ALT1_1","","","","","","","","","","","",""
"null","<span style='color:GreenYellow; font-size: 70px;'>正确! </span>","null","html-keyboard-response","136","330506","0.0-7.0-0.0-4.0-0.0-1.14","2","3","2","2","2","2","2","1","2","2","2","2","2","3","2","2","2","2","3","2","3","4","4","4","3","3","4","4","4","1","0","1","1","0","0","0","1","0","1","1","0","1","0","1","3","4","4","4","5","1","3","4","4","2","2","732625560492314625","杨","169","","","","","","","","","","","","","","","","","","","","","","","","","","","","","","feedback_test","","","","","","","","","","","",""
"698","","f","psychophysics","137","332205","0.0-7.0-0.0-4.0-0.0-0.15","2","3","2","2","2","2","2","1","2","2","2","2","2","3","2","2","2","2","3","2","3","4","4","4","3","3","4","4","4","1","0","1","1","0","0","0","1","0","1","1","0","1","0","1","3","4","4","4","5","1","3","4","4","2","2","732625560492314625","杨","169","","","","nonmatch","","","","","","","","","","","","","","key","f","16.683168316831683","960","536","f","true","nonmatch","img/diamond.png","三角","菱形","ALT1","formal_ALT1_1","","","","","","","","","","","",""
"null","<span style='color:GreenYellow; font-size: 70px;'>正确! </span>","null","html-keyboard-response","138","332706","0.0-7.0-0.0-4.0-0.0-1.15","2","3","2","2","2","2","2","1","2","2","2","2","2","3","2","2","2","2","3","2","3","4","4","4","3","3","4","4","4","1","0","1","1","0","0","0","1","0","1","1","0","1","0","1","3","4","4","4","5","1","3","4","4","2","2","732625560492314625","杨","169","","","","","","","","","","","","","","","","","","","","","","","","","","","","","","feedback_test","","","","","","","","","","","",""
"729","","f","psychophysics","139","334438","0.0-7.0-0.0-4.0-0.0-0.16","2","3","2","2","2","2","2","1","2","2","2","2","2","3","2","2","2","2","3","2","3","4","4","4","3","3","4","4","4","1","0","1","1","0","0","0","1","0","1","1","0","1","0","1","3","4","4","4","5","1","3","4","4","2","2","732625560492314625","杨","169","","","","nonmatch","","","","","","","","","","","","","","key","f","16.68235294117624","960","536","f","true","nonmatch","img/triangle.png","圆形","三角","ALT1","formal_ALT1_1","","","","","","","","","","","",""
"null","<span style='color:GreenYellow; font-size: 70px;'>正确! </span>","null","html-keyboard-response","140","334939","0.0-7.0-0.0-4.0-0.0-1.16","2","3","2","2","2","2","2","1","2","2","2","2","2","3","2","2","2","2","3","2","3","4","4","4","3","3","4","4","4","1","0","1","1","0","0","0","1","0","1","1","0","1","0","1","3","4","4","4","5","1","3","4","4","2","2","732625560492314625","杨","169","","","","","","","","","","","","","","","","","","","","","","","","","","","","","","feedback_test","","","","","","","","","","","",""
"641","","f","psychophysics","141","336581","0.0-7.0-0.0-4.0-0.0-0.17","2","3","2","2","2","2","2","1","2","2","2","2","2","3","2","2","2","2","3","2","3","4","4","4","3","3","4","4","4","1","0","1","1","0","0","0","1","0","1","1","0","1","0","1","3","4","4","4","5","1","3","4","4","2","2","732625560492314625","杨","169","","","","nonmatch","","","","","","","","","","","","","","key","f","16.683673469387756","960","536","f","true","nonmatch","img/circle.png","三角","圆形","ALT1","formal_ALT1_1","","","","","","","","","","","",""
"null","<span style='color:GreenYellow; font-size: 70px;'>正确! </span>","null","html-keyboard-response","142","337082","0.0-7.0-0.0-4.0-0.0-1.17","2","3","2","2","2","2","2","1","2","2","2","2","2","3","2","2","2","2","3","2","3","4","4","4","3","3","4","4","4","1","0","1","1","0","0","0","1","0","1","1","0","1","0","1","3","4","4","4","5","1","3","4","4","2","2","732625560492314625","杨","169","","","","","","","","","","","","","","","","","","","","","","","","","","","","","","feedback_test","","","","","","","","","","","",""
"692","","f","psychophysics","143","338775","0.0-7.0-0.0-4.0-0.0-0.18","2","3","2","2","2","2","2","1","2","2","2","2","2","3","2","2","2","2","3","2","3","4","4","4","3","3","4","4","4","1","0","1","1","0","0","0","1","0","1","1","0","1","0","1","3","4","4","4","5","1","3","4","4","2","2","732625560492314625","杨","169","","","","nonmatch","","","","","","","","","","","","","","key","f","16.683000000000465","960","536","f","true","nonmatch","img/circle.png","菱形","圆形","ALT1","formal_ALT1_1","","","","","","","","","","","",""
"null","<span style='color:GreenYellow; font-size: 70px;'>正确! </span>","null","html-keyboard-response","144","339276","0.0-7.0-0.0-4.0-0.0-1.18","2","3","2","2","2","2","2","1","2","2","2","2","2","3","2","2","2","2","3","2","3","4","4","4","3","3","4","4","4","1","0","1","1","0","0","0","1","0","1","1","0","1","0","1","3","4","4","4","5","1","3","4","4","2","2","732625560492314625","杨","169","","","","","","","","","","","","","","","","","","","","","","","","","","","","","","feedback_test","","","","","","","","","","","",""
"639","","j","psychophysics","145","340916","0.0-7.0-0.0-4.0-0.0-0.19","2","3","2","2","2","2","2","1","2","2","2","2","2","3","2","2","2","2","3","2","3","4","4","4","3","3","4","4","4","1","0","1","1","0","0","0","1","0","1","1","0","1","0","1","3","4","4","4","5","1","3","4","4","2","2","732625560492314625","杨","169","","","","match","","","","","","","","","","","","","","key","j","16.683673469387756","960","536","j","true","match","img/diamond.png","菱形","菱形","ALT1","formal_ALT1_1","","","","","","","","","","","",""
"null","<span style='color:GreenYellow; font-size: 70px;'>正确! </span>","null","html-keyboard-response","146","341417","0.0-7.0-0.0-4.0-0.0-1.19","2","3","2","2","2","2","2","1","2","2","2","2","2","3","2","2","2","2","3","2","3","4","4","4","3","3","4","4","4","1","0","1","1","0","0","0","1","0","1","1","0","1","0","1","3","4","4","4","5","1","3","4","4","2","2","732625560492314625","杨","169","","","","","","","","","","","","","","","","","","","","","","","","","","","","","","feedback_test","","","","","","","","","","","",""
"682","","f","psychophysics","147","343101","0.0-7.0-0.0-4.0-0.0-0.20","2","3","2","2","2","2","2","1","2","2","2","2","2","3","2","2","2","2","3","2","3","4","4","4","3","3","4","4","4","1","0","1","1","0","0","0","1","0","1","1","0","1","0","1","3","4","4","4","5","1","3","4","4","2","2","732625560492314625","杨","169","","","","nonmatch","","","","","","","","","","","","","","key","f","16.682999999999883","960","536","f","true","nonmatch","img/diamond.png","圆形","菱形","ALT1","formal_ALT1_1","","","","","","","","","","","",""
"null","<span style='color:GreenYellow; font-size: 70px;'>正确! </span>","null","html-keyboard-response","148","343604","0.0-7.0-0.0-4.0-0.0-1.20","2","3","2","2","2","2","2","1","2","2","2","2","2","3","2","2","2","2","3","2","3","4","4","4","3","3","4","4","4","1","0","1","1","0","0","0","1","0","1","1","0","1","0","1","3","4","4","4","5","1","3","4","4","2","2","732625560492314625","杨","169","","","","","","","","","","","","","","","","","","","","","","","","","","","","","","feedback_test","","","","","","","","","","","",""
"679","","f","psychophysics","149","345285","0.0-7.0-0.0-4.0-0.0-0.21","2","3","2","2","2","2","2","1","2","2","2","2","2","3","2","2","2","2","3","2","3","4","4","4","3","3","4","4","4","1","0","1","1","0","0","0","1","0","1","1","0","1","0","1","3","4","4","4","5","1","3","4","4","2","2","732625560492314625","杨","169","","","","nonmatch","","","","","","","","","","","","","","key","f","16.682999999999883","960","536","f","true","nonmatch","img/hexagon.png","菱形","六边","ALT1","formal_ALT1_1","","","","","","","","","","","",""
"null","<span style='color:GreenYellow; font-size: 70px;'>正确! </span>","null","html-keyboard-response","150","345786","0.0-7.0-0.0-4.0-0.0-1.21","2","3","2","2","2","2","2","1","2","2","2","2","2","3","2","2","2","2","3","2","3","4","4","4","3","3","4","4","4","1","0","1","1","0","0","0","1","0","1","1","0","1","0","1","3","4","4","4","5","1","3","4","4","2","2","732625560492314625","杨","169","","","","","","","","","","","","","","","","","","","","","","","","","","","","","","feedback_test","","","","","","","","","","","",""
"640","","f","psychophysics","151","347428","0.0-7.0-0.0-4.0-0.0-0.22","2","3","2","2","2","2","2","1","2","2","2","2","2","3","2","2","2","2","3","2","3","4","4","4","3","3","4","4","4","1","0","1","1","0","0","0","1","0","1","1","0","1","0","1","3","4","4","4","5","1","3","4","4","2","2","732625560492314625","杨","169","","","","nonmatch","","","","","","","","","","","","","","key","f","16.682474226803645","960","536","f","true","nonmatch","img/hexagon.png","三角","六边","ALT1","formal_ALT1_1","","","","","","","","","","","",""
"null","<span style='color:GreenYellow; font-size: 70px;'>正确! </span>","null","html-keyboard-response","152","347929","0.0-7.0-0.0-4.0-0.0-1.22","2","3","2","2","2","2","2","1","2","2","2","2","2","3","2","2","2","2","3","2","3","4","4","4","3","3","4","4","4","1","0","1","1","0","0","0","1","0","1","1","0","1","0","1","3","4","4","4","5","1","3","4","4","2","2","732625560492314625","杨","169","","","","","","","","","","","","","","","","","","","","","","","","","","","","","","feedback_test","","","","","","","","","","","",""
"586","","f","psychophysics","153","349517","0.0-7.0-0.0-4.0-0.0-0.23","2","3","2","2","2","2","2","1","2","2","2","2","2","3","2","2","2","2","3","2","3","4","4","4","3","3","4","4","4","1","0","1","1","0","0","0","1","0","1","1","0","1","0","1","3","4","4","4","5","1","3","4","4","2","2","732625560492314625","杨","169","","","","nonmatch","","","","","","","","","","","","","","key","f","16.68297872340438","960","536","f","true","nonmatch","img/hexagon.png","圆形","六边","ALT1","formal_ALT1_1","","","","","","","","","","","",""
"null","<span style='color:GreenYellow; font-size: 70px;'>正确! </span>","null","html-keyboard-response","154","350017","0.0-7.0-0.0-4.0-0.0-1.23","2","3","2","2","2","2","2","1","2","2","2","2","2","3","2","2","2","2","3","2","3","4","4","4","3","3","4","4","4","1","0","1","1","0","0","0","1","0","1","1","0","1","0","1","3","4","4","4","5","1","3","4","4","2","2","732625560492314625","杨","169","","","","","","","","","","","","","","","","","","","","","","","","","","","","","","feedback_test","","","","","","","","","","","",""
"507","","j","psychophysics","155","351526","0.0-7.0-0.0-4.0-0.0-0.24","2","3","2","2","2","2","2","1","2","2","2","2","2","3","2","2","2","2","3","2","3","4","4","4","3","3","4","4","4","1","0","1","1","0","0","0","1","0","1","1","0","1","0","1","3","4","4","4","5","1","3","4","4","2","2","732625560492314625","杨","169","","","","match","","","","","","","","","","","","","","key","j","16.684444444444832","960","536","j","true","match","img/circle.png","圆形","圆形","ALT1","formal_ALT1_1","","","","","","","","","","","",""
"null","<span style='color:GreenYellow; font-size: 70px;'>正确! </span>","null","html-keyboard-response","156","352027","0.0-7.0-0.0-4.0-0.0-1.24","2","3","2","2","2","2","2","1","2","2","2","2","2","3","2","2","2","2","3","2","3","4","4","4","3","3","4","4","4","1","0","1","1","0","0","0","1","0","1","1","0","1","0","1","3","4","4","4","5","1","3","4","4","2","2","732625560492314625","杨","169","","","","","","","","","","","","","","","","","","","","","","","","","","","","","","feedback_test","","","","","","","","","","","",""
"624","","j","psychophysics","157","353653","0.0-7.0-0.0-4.0-0.0-0.25","2","3","2","2","2","2","2","1","2","2","2","2","2","3","2","2","2","2","3","2","3","4","4","4","3","3","4","4","4","1","0","1","1","0","0","0","1","0","1","1","0","1","0","1","3","4","4","4","5","1","3","4","4","2","2","732625560492314625","杨","169","","","","match","","","","","","","","","","","","","","key","j","16.683333333333092","960","536","j","true","match","img/hexagon.png","六边","六边","ALT1","formal_ALT1_1","","","","","","","","","","","",""
"null","<span style='color:GreenYellow; font-size: 70px;'>正确! </span>","null","html-keyboard-response","158","354154","0.0-7.0-0.0-4.0-0.0-1.25","2","3","2","2","2","2","2","1","2","2","2","2","2","3","2","2","2","2","3","2","3","4","4","4","3","3","4","4","4","1","0","1","1","0","0","0","1","0","1","1","0","1","0","1","3","4","4","4","5","1","3","4","4","2","2","732625560492314625","杨","169","","","","","","","","","","","","","","","","","","","","","","","","","","","","","","feedback_test","","","","","","","","","","","",""
"609","","f","psychophysics","159","355765","0.0-7.0-0.0-4.0-0.0-0.26","2","3","2","2","2","2","2","1","2","2","2","2","2","3","2","2","2","2","3","2","3","4","4","4","3","3","4","4","4","1","0","1","1","0","0","0","1","0","1","1","0","1","0","1","3","4","4","4","5","1","3","4","4","2","2","732625560492314625","杨","169","","","","nonmatch","","","","","","","","","","","","","","key","f","16.682291666666668","960","536","f","true","nonmatch","img/hexagon.png","菱形","六边","ALT1","formal_ALT1_1","","","","","","","","","","","",""
"null","<span style='color:GreenYellow; font-size: 70px;'>正确! </span>","null","html-keyboard-response","160","356266","0.0-7.0-0.0-4.0-0.0-1.26","2","3","2","2","2","2","2","1","2","2","2","2","2","3","2","2","2","2","3","2","3","4","4","4","3","3","4","4","4","1","0","1","1","0","0","0","1","0","1","1","0","1","0","1","3","4","4","4","5","1","3","4","4","2","2","732625560492314625","杨","169","","","","","","","","","","","","","","","","","","","","","","","","","","","","","","feedback_test","","","","","","","","","","","",""
"610","","j","psychophysics","161","357877","0.0-7.0-0.0-4.0-0.0-0.27","2","3","2","2","2","2","2","1","2","2","2","2","2","3","2","2","2","2","3","2","3","4","4","4","3","3","4","4","4","1","0","1","1","0","0","0","1","0","1","1","0","1","0","1","3","4","4","4","5","1","3","4","4","2","2","732625560492314625","杨","169","","","","match","","","","","","","","","","","","","","key","j","16.68421052631579","960","536","j","true","match","img/hexagon.png","六边","六边","ALT1","formal_ALT1_1","","","","","","","","","","","",""
"null","<span style='color:GreenYellow; font-size: 70px;'>正确! </span>","null","html-keyboard-response","162","358378","0.0-7.0-0.0-4.0-0.0-1.27","2","3","2","2","2","2","2","1","2","2","2","2","2","3","2","2","2","2","3","2","3","4","4","4","3","3","4","4","4","1","0","1","1","0","0","0","1","0","1","1","0","1","0","1","3","4","4","4","5","1","3","4","4","2","2","732625560492314625","杨","169","","","","","","","","","","","","","","","","","","","","","","","","","","","","","","feedback_test","","","","","","","","","","","",""
"824","","f","psychophysics","163","360205","0.0-7.0-0.0-4.0-0.0-0.28","2","3","2","2","2","2","2","1","2","2","2","2","2","3","2","2","2","2","3","2","3","4","4","4","3","3","4","4","4","1","0","1","1","0","0","0","1","0","1","1","0","1","0","1","3","4","4","4","5","1","3","4","4","2","2","732625560492314625","杨","169","","","","nonmatch","","","","","","","","","","","","","","key","f","16.68348623853211","960","536","f","true","nonmatch","img/diamond.png","六边","菱形","ALT1","formal_ALT1_1","","","","","","","","","","","",""
"null","<span style='color:GreenYellow; font-size: 70px;'>正确! </span>","null","html-keyboard-response","164","360706","0.0-7.0-0.0-4.0-0.0-1.28","2","3","2","2","2","2","2","1","2","2","2","2","2","3","2","2","2","2","3","2","3","4","4","4","3","3","4","4","4","1","0","1","1","0","0","0","1","0","1","1","0","1","0","1","3","4","4","4","5","1","3","4","4","2","2","732625560492314625","杨","169","","","","","","","","","","","","","","","","","","","","","","","","","","","","","","feedback_test","","","","","","","","","","","",""
"643","","j","psychophysics","165","362350","0.0-7.0-0.0-4.0-0.0-0.29","2","3","2","2","2","2","2","1","2","2","2","2","2","3","2","2","2","2","3","2","3","4","4","4","3","3","4","4","4","1","0","1","1","0","0","0","1","0","1","1","0","1","0","1","3","4","4","4","5","1","3","4","4","2","2","732625560492314625","杨","169","","","","match","","","","","","","","","","","","","","key","j","16.683505154639054","960","536","j","true","match","img/hexagon.png","六边","六边","ALT1","formal_ALT1_1","","","","","","","","","","","",""
"null","<span style='color:GreenYellow; font-size: 70px;'>正确! </span>","null","html-keyboard-response","166","362850","0.0-7.0-0.0-4.0-0.0-1.29","2","3","2","2","2","2","2","1","2","2","2","2","2","3","2","2","2","2","3","2","3","4","4","4","3","3","4","4","4","1","0","1","1","0","0","0","1","0","1","1","0","1","0","1","3","4","4","4","5","1","3","4","4","2","2","732625560492314625","杨","169","","","","","","","","","","","","","","","","","","","","","","","","","","","","","","feedback_test","","","","","","","","","","","",""
"610","","j","psychophysics","167","364461","0.0-7.0-0.0-4.0-0.0-0.30","2","3","2","2","2","2","2","1","2","2","2","2","2","3","2","2","2","2","3","2","3","4","4","4","3","3","4","4","4","1","0","1","1","0","0","0","1","0","1","1","0","1","0","1","3","4","4","4","5","1","3","4","4","2","2","732625560492314625","杨","169","","","","match","","","","","","","","","","","","","","key","j","16.685416666666544","960","536","j","true","match","img/diamond.png","菱形","菱形","ALT1","formal_ALT1_1","","","","","","","","","","","",""
"null","<span style='color:GreenYellow; font-size: 70px;'>正确! </span>","null","html-keyboard-response","168","364962","0.0-7.0-0.0-4.0-0.0-1.30","2","3","2","2","2","2","2","1","2","2","2","2","2","3","2","2","2","2","3","2","3","4","4","4","3","3","4","4","4","1","0","1","1","0","0","0","1","0","1","1","0","1","0","1","3","4","4","4","5","1","3","4","4","2","2","732625560492314625","杨","169","","","","","","","","","","","","","","","","","","","","","","","","","","","","","","feedback_test","","","","","","","","","","","",""
"602","","f","psychophysics","169","366565","0.0-7.0-0.0-4.0-0.0-0.31","2","3","2","2","2","2","2","1","2","2","2","2","2","3","2","2","2","2","3","2","3","4","4","4","3","3","4","4","4","1","0","1","1","0","0","0","1","0","1","1","0","1","0","1","3","4","4","4","5","1","3","4","4","2","2","732625560492314625","杨","169","","","","nonmatch","","","","","","","","","","","","","","key","f","16.683157894737086","960","536","f","true","nonmatch","img/triangle.png","六边","三角","ALT1","formal_ALT1_1","","","","","","","","","","","",""
"null","<span style='color:GreenYellow; font-size: 70px;'>正确! </span>","null","html-keyboard-response","170","367066","0.0-7.0-0.0-4.0-0.0-1.31","2","3","2","2","2","2","2","1","2","2","2","2","2","3","2","2","2","2","3","2","3","4","4","4","3","3","4","4","4","1","0","1","1","0","0","0","1","0","1","1","0","1","0","1","3","4","4","4","5","1","3","4","4","2","2","732625560492314625","杨","169","","","","","","","","","","","","","","","","","","","","","","","","","","","","","","feedback_test","","","","","","","","","","","",""
"658","","j","psychophysics","171","368726","0.0-7.0-0.0-4.0-0.0-0.32","2","3","2","2","2","2","2","1","2","2","2","2","2","3","2","2","2","2","3","2","3","4","4","4","3","3","4","4","4","1","0","1","1","0","0","0","1","0","1","1","0","1","0","1","3","4","4","4","5","1","3","4","4","2","2","732625560492314625","杨","169","","","","match","","","","","","","","","","","","","","key","j","16.683838383838502","960","536","j","true","match","img/triangle.png","三角","三角","ALT1","formal_ALT1_1","","","","","","","","","","","",""
"null","<span style='color:GreenYellow; font-size: 70px;'>正确! </span>","null","html-keyboard-response","172","369237","0.0-7.0-0.0-4.0-0.0-1.32","2","3","2","2","2","2","2","1","2","2","2","2","2","3","2","2","2","2","3","2","3","4","4","4","3","3","4","4","4","1","0","1","1","0","0","0","1","0","1","1","0","1","0","1","3","4","4","4","5","1","3","4","4","2","2","732625560492314625","杨","169","","","","","","","","","","","","","","","","","","","","","","","","","","","","","","feedback_test","","","","","","","","","","","",""
"623","","j","psychophysics","173","370861","0.0-7.0-0.0-4.0-0.0-0.33","2","3","2","2","2","2","2","1","2","2","2","2","2","3","2","2","2","2","3","2","3","4","4","4","3","3","4","4","4","1","0","1","1","0","0","0","1","0","1","1","0","1","0","1","3","4","4","4","5","1","3","4","4","2","2","732625560492314625","杨","169","","","","match","","","","","","","","","","","","","","key","j","16.682474226803645","960","536","j","true","match","img/circle.png","圆形","圆形","ALT1","formal_ALT1_1","","","","","","","","","","","",""
"null","<span style='color:GreenYellow; font-size: 70px;'>正确! </span>","null","html-keyboard-response","174","371362","0.0-7.0-0.0-4.0-0.0-1.33","2","3","2","2","2","2","2","1","2","2","2","2","2","3","2","2","2","2","3","2","3","4","4","4","3","3","4","4","4","1","0","1","1","0","0","0","1","0","1","1","0","1","0","1","3","4","4","4","5","1","3","4","4","2","2","732625560492314625","杨","169","","","","","","","","","","","","","","","","","","","","","","","","","","","","","","feedback_test","","","","","","","","","","","",""
"649","","f","psychophysics","175","373013","0.0-7.0-0.0-4.0-0.0-0.34","2","3","2","2","2","2","2","1","2","2","2","2","2","3","2","2","2","2","3","2","3","4","4","4","3","3","4","4","4","1","0","1","1","0","0","0","1","0","1","1","0","1","0","1","3","4","4","4","5","1","3","4","4","2","2","732625560492314625","杨","169","","","","nonmatch","","","","","","","","","","","","","","key","f","16.68469387755138","960","536","f","true","nonmatch","img/triangle.png","圆形","三角","ALT1","formal_ALT1_1","","","","","","","","","","","",""
"null","<span style='color:GreenYellow; font-size: 70px;'>正确! </span>","null","html-keyboard-response","176","373514","0.0-7.0-0.0-4.0-0.0-1.34","2","3","2","2","2","2","2","1","2","2","2","2","2","3","2","2","2","2","3","2","3","4","4","4","3","3","4","4","4","1","0","1","1","0","0","0","1","0","1","1","0","1","0","1","3","4","4","4","5","1","3","4","4","2","2","732625560492314625","杨","169","","","","","","","","","","","","","","","","","","","","","","","","","","","","","","feedback_test","","","","","","","","","","","",""
"818","","f","psychophysics","177","375333","0.0-7.0-0.0-4.0-0.0-0.35","2","3","2","2","2","2","2","1","2","2","2","2","2","3","2","2","2","2","3","2","3","4","4","4","3","3","4","4","4","1","0","1","1","0","0","0","1","0","1","1","0","1","0","1","3","4","4","4","5","1","3","4","4","2","2","732625560492314625","杨","169","","","","nonmatch","","","","","","","","","","","","","","key","f","16.683333333333227","960","536","f","true","nonmatch","img/triangle.png","菱形","三角","ALT1","formal_ALT1_1","","","","","","","","","","","",""
"null","<span style='color:GreenYellow; font-size: 70px;'>正确! </span>","null","html-keyboard-response","178","375834","0.0-7.0-0.0-4.0-0.0-1.35","2","3","2","2","2","2","2","1","2","2","2","2","2","3","2","2","2","2","3","2","3","4","4","4","3","3","4","4","4","1","0","1","1","0","0","0","1","0","1","1","0","1","0","1","3","4","4","4","5","1","3","4","4","2","2","732625560492314625","杨","169","","","","","","","","","","","","","","","","","","","","","","","","","","","","","","feedback_test","","","","","","","","","","","",""
"690","","f","psychophysics","179","377525","0.0-7.0-0.0-4.0-0.0-0.36","2","3","2","2","2","2","2","1","2","2","2","2","2","3","2","2","2","2","3","2","3","4","4","4","3","3","4","4","4","1","0","1","1","0","0","0","1","0","1","1","0","1","0","1","3","4","4","4","5","1","3","4","4","2","2","732625560492314625","杨","169","","","","nonmatch","","","","","","","","","","","","","","key","f","16.683000000000465","960","536","f","true","nonmatch","img/diamond.png","圆形","菱形","ALT1","formal_ALT1_1","","","","","","","","","","","",""
"null","<span style='color:GreenYellow; font-size: 70px;'>正确! </span>","null","html-keyboard-response","180","378026","0.0-7.0-0.0-4.0-0.0-1.36","2","3","2","2","2","2","2","1","2","2","2","2","2","3","2","2","2","2","3","2","3","4","4","4","3","3","4","4","4","1","0","1","1","0","0","0","1","0","1","1","0","1","0","1","3","4","4","4","5","1","3","4","4","2","2","732625560492314625","杨","169","","","","","","","","","","","","","","","","","","","","","","","","","","","","","","feedback_test","","","","","","","","","","","",""
"666","","j","psychophysics","181","379693","0.0-7.0-0.0-4.0-0.0-0.37","2","3","2","2","2","2","2","1","2","2","2","2","2","3","2","2","2","2","3","2","3","4","4","4","3","3","4","4","4","1","0","1","1","0","0","0","1","0","1","1","0","1","0","1","3","4","4","4","5","1","3","4","4","2","2","732625560492314625","杨","169","","","","match","","","","","","","","","","","","","","key","j","16.682828282828634","960","536","j","true","match","img/triangle.png","三角","三角","ALT1","formal_ALT1_1","","","","","","","","","","","",""
