"rt","stimulus","response","trial_type","trial_index","time_elapsed","internal_node_id","ses_1","ses_2","ses_3","ses_4","ses_5","ses_6","ses_7","ses_8","ses_9","ses_10","coreself_1","coreself_2","coreself_3","coreself_4","coreself_5","coreself_6","coreself_7","coreself_8","coreself_9","coreself_10","SGPS_1","SGPS_2","SGPS_3","SGPS_4","SGPS_5","SGPS_6","SGPS_7","SGPS_8","SGPS_9","NPI1","NPI2","NPI3","NPI4","NPI5","NPI6","NPI7","NPI8","NPI9","NPI10","NPI11","NPI12","NPI13","NPI14","NPI15","hsns_1","hsns_2","hsns_3","hsns_4","hsns_5","trap1","hsns_6","hsns_7","hsns_8","hsns_9","hsns_10","subj_idx","friend_name","ParticipantID","value","success","user_agent","responses","item_order","radio_event_ids","radio_event_times","key_event_times","mouse_event_times","straightlining","zigzagging","honeypot","timeout","failed_images","failed_audio","failed_video","view_history","response_type","key_press","avg_frame_time","center_x","center_y","correct_response","correct","identity","Image","word","condition","task_id","screen_id","time_stamp","version_attrib2","version_target2","IAT","RT","varname","summary","version_attrib","version_target","question_order","correct_answer","trap1_item"
"4312","
   <p><div style = ""color: white;font-size:25px;"">您好，欢迎参加本次实验。</div> </p>
   <p><div style = ""color: white;font-size:25px;"">为充分保障您的权利，请确保您已经知晓并同意《参与实验同意书》以及《数据公开知情同意书》。</div></p>
   <p><div style = ""color: white;font-size:25px;"">如果您未见过上述内容，请咨询实验员。</div></p>
   <p><div style = ""color: white;font-size:25px;"">如果您选择继续实验，则表示您已经清楚两份知情同意书的内容并同意。</div></p>
   <p><div style = ""color: pink;font-size:30px;"">请确保您记得day0的实验编号，您将在本次实验输入该编号，若您忘记，请咨询实验员后作答。</div></p>
   <p><div style = ""color: lightblue;font-size:25px;"">请您尽可能认真地作答，我们将依据您在各问卷和按键任务中的作答质量发放报酬。</div></p>
   <p> <div style = ""color: green;font-size:25px;""><按空格键至下页></div> </p>
   "," ","html-keyboard-response","0","4314","0.0-0.0","3","4","4","3","3","3","3","4","4","3","4","3","2","4","4","4","5","3","4","4","2","3","3","2","2","1","2","4","1","0","0","1","1","0","0","0","0","1","1","1","0","1","0","1","4","3","5","4","4","4","2","5","4","3","4","787033502335111170","何","632","","","","","","","","","","","","","","","","","","","","","","","","","","","","","","","","","","","","","","","","","",""
"","","","call-function","1","4315","0.0-1.0-0.0","3","4","4","3","3","3","3","4","4","3","4","3","2","4","4","4","5","3","4","4","2","3","3","2","2","1","2","4","1","0","0","1","1","0","0","0","0","1","1","1","0","1","0","1","4","3","5","4","4","4","2","5","4","3","4","787033502335111170","何","632","","","","","","","","","","","","","","","","","","","","","","","","","","","","","","","","","","","","","","","","","",""
"26540","","{""friend_name"":""何"",""ParticipantID"":""632""}","survey-html-form","2","30855","0.0-1.0-1.0","3","4","4","3","3","3","3","4","4","3","4","3","2","4","4","4","5","3","4","4","2","3","3","2","2","1","2","4","1","0","0","1","1","0","0","0","0","1","1","1","0","1","0","1","4","3","5","4","4","4","2","5","4","3","4","787033502335111170","何","632","","","","","","","","","","","","","","","","","","","","","","","","","","","","","","","","","","","","","","","","","",""
"","","","fullscreen","3","32410","0.0-2.0","3","4","4","3","3","3","3","4","4","3","4","3","2","4","4","4","5","3","4","4","2","3","3","2","2","1","2","4","1","0","0","1","1","0","0","0","0","1","1","1","0","1","0","1","4","3","5","4","4","4","2","5","4","3","4","787033502335111170","何","632","","true","","","","","","","","","","","","","","","","","","","","","","","","","","","","","","","","","","","","","","","",""
"17483","","{""Q01"":""3"",""Q02"":""4"",""Q03"":""4"",""Q04"":""3"",""Q05"":""3"",""Q06"":""3"",""Q07"":""3"",""Q08"":""4"",""Q09"":""4"",""Q10"":""3""}","survey-template","4","49896","0.0-3.0","3","4","4","3","3","3","3","4","4","3","4","3","2","4","4","4","5","3","4","4","2","3","3","2","2","1","2","4","1","0","0","1","1","0","0","0","0","1","1","1","0","1","0","1","4","3","5","4","4","4","2","5","4","3","4","787033502335111170","何","632","","","","{""Q01"":""3"",""Q02"":""4"",""Q03"":""4"",""Q04"":""3"",""Q05"":""3"",""Q06"":""3"",""Q07"":""3"",""Q08"":""4"",""Q09"":""4"",""Q10"":""3""}","[0,1,2,3,4,5,6,7,8,9]","[""Q01"",""Q02"",""Q03"",""Q04"",""Q05"",""Q06"",""Q07"",""Q08"",""Q09"",""Q10""]","[2943,3838,6113,7123,8660,10019,11917,13680,14710,15672]","[]","[2134,2943,3838,6113,7123,8660,10019,11917,13680,14710,15672,17483]","0.4","0.5555555555555556","0","","","","","","","","","","","","","","","","","","","","","","","","","","","","","",""
"23456","","{""Q01"":""4"",""Q02"":""3"",""Q03"":""2"",""Q04"":""4"",""Q05"":""4"",""Q06"":""4"",""Q07"":""5"",""Q08"":""3"",""Q09"":""4"",""Q10"":""4""}","survey-template","5","73356","0.0-4.0","3","4","4","3","3","3","3","4","4","3","4","3","2","4","4","4","5","3","4","4","2","3","3","2","2","1","2","4","1","0","0","1","1","0","0","0","0","1","1","1","0","1","0","1","4","3","5","4","4","4","2","5","4","3","4","787033502335111170","何","632","","","","{""Q01"":""4"",""Q02"":""3"",""Q03"":""2"",""Q04"":""4"",""Q05"":""4"",""Q06"":""4"",""Q07"":""5"",""Q08"":""3"",""Q09"":""4"",""Q10"":""4""}","[0,1,2,3,4,5,6,7,8,9]","[""Q01"",""Q02"",""Q03"",""Q04"",""Q05"",""Q06"",""Q07"",""Q08"",""Q09"",""Q10""]","[2420,5195,7091,8576,10238,12639,13615,15930,18969,21386]","[]","[2420,5195,7091,8576,10238,11433,12639,13615,15930,17751,18969,21386,23456]","0.5","0.3333333333333333","0","","","","","","","","","","","","","","","","","","","","","","","","","","","","","",""
"","","","preload","6","73932","0.0-5.0","3","4","4","3","3","3","3","4","4","3","4","3","2","4","4","4","5","3","4","4","2","3","3","2","2","1","2","4","1","0","0","1","1","0","0","0","0","1","1","1","0","1","0","1","4","3","5","4","4","4","2","5","4","3","4","787033502335111170","何","632","","true","","","","","","","","","","","false","[]","[]","[]","","","","","","","","","","","","","","","","","","","","","","","","","",""
"31305","","","instructions","7","105239","0.0-6.0","3","4","4","3","3","3","3","4","4","3","4","3","2","4","4","4","5","3","4","4","2","3","3","2","2","1","2","4","1","0","0","1","1","0","0","0","0","1","1","1","0","1","0","1","4","3","5","4","4","4","2","5","4","3","4","787033502335111170","何","632","","","","","","","","","","","","","","","","","[{""page_index"":0,""viewing_time"":31305}]","","","","","","","","","","","","","","","","","","","","","","","","",""
"17918","","","instructions","8","123156","0.0-7.0-1.0-0.0","3","4","4","3","3","3","3","4","4","3","4","3","2","4","4","4","5","3","4","4","2","3","3","2","2","1","2","4","1","0","0","1","1","0","0","0","0","1","1","1","0","1","0","1","4","3","5","4","4","4","2","5","4","3","4","787033502335111170","何","632","","","","","","","","","","","","","","","","","[{""page_index"":0,""viewing_time"":13980},{""page_index"":1,""viewing_time"":2128},{""page_index"":2,""viewing_time"":1810}]","","","","","","","","","","","","","","","","","","","","","","","","",""
"824","","j","psychophysics","9","125014","0.0-7.0-1.0-1.0-0.0-0.0","3","4","4","3","3","3","3","4","4","3","4","3","2","4","4","4","5","3","4","4","2","3","3","2","2","1","2","4","1","0","0","1","1","0","0","0","0","1","1","1","0","1","0","1","4","3","5","4","4","4","2","5","4","3","4","787033502335111170","何","632","","","","nonmatch","","","","","","","","","","","","","","key","j","16.969908256880746","640","356","j","true","nonmatch","img/trapezoid.png","方形","梯形","ALT1_2","prac_ALT1_2","","","","","","","","","","","",""
"null","<span style='color:GreenYellow; font-size: 70px;'>正确! </span>","null","html-keyboard-response","10","125529","0.0-7.0-1.0-1.0-0.0-1.0","3","4","4","3","3","3","3","4","4","3","4","3","2","4","4","4","5","3","4","4","2","3","3","2","2","1","2","4","1","0","0","1","1","0","0","0","0","1","1","1","0","1","0","1","4","3","5","4","4","4","2","5","4","3","4","787033502335111170","何","632","","","","","","","","","","","","","","","","","","","","","","","","","","","","","","feedback_test","","","","","","","","","","","",""
"689","","f","psychophysics","11","127220","0.0-7.0-1.0-1.0-0.0-0.1","3","4","4","3","3","3","3","4","4","3","4","3","2","4","4","4","5","3","4","4","2","3","3","2","2","1","2","4","1","0","0","1","1","0","0","0","0","1","1","1","0","1","0","1","4","3","5","4","4","4","2","5","4","3","4","787033502335111170","何","632","","","","match","","","","","","","","","","","","","","key","f","16.662399999999906","640","356","f","true","match","img/circle.png","圆形","圆形","ALT1_2","prac_ALT1_2","","","","","","","","","","","",""
"null","<span style='color:GreenYellow; font-size: 70px;'>正确! </span>","null","html-keyboard-response","12","127733","0.0-7.0-1.0-1.0-0.0-1.1","3","4","4","3","3","3","3","4","4","3","4","3","2","4","4","4","5","3","4","4","2","3","3","2","2","1","2","4","1","0","0","1","1","0","0","0","0","1","1","1","0","1","0","1","4","3","5","4","4","4","2","5","4","3","4","787033502335111170","何","632","","","","","","","","","","","","","","","","","","","","","","","","","","","","","","feedback_test","","","","","","","","","","","",""
"748","","j","psychophysics","13","129495","0.0-7.0-1.0-1.0-0.0-0.2","3","4","4","3","3","3","3","4","4","3","4","3","2","4","4","4","5","3","4","4","2","3","3","2","2","1","2","4","1","0","0","1","1","0","0","0","0","1","1","1","0","1","0","1","4","3","5","4","4","4","2","5","4","3","4","787033502335111170","何","632","","","","nonmatch","","","","","","","","","","","","","","key","j","16.572952380952415","640","356","j","true","nonmatch","img/circle.png","梯形","圆形","ALT1_2","prac_ALT1_2","","","","","","","","","","","",""
"null","<span style='color:GreenYellow; font-size: 70px;'>正确! </span>","null","html-keyboard-response","14","130006","0.0-7.0-1.0-1.0-0.0-1.2","3","4","4","3","3","3","3","4","4","3","4","3","2","4","4","4","5","3","4","4","2","3","3","2","2","1","2","4","1","0","0","1","1","0","0","0","0","1","1","1","0","1","0","1","4","3","5","4","4","4","2","5","4","3","4","787033502335111170","何","632","","","","","","","","","","","","","","","","","","","","","","","","","","","","","","feedback_test","","","","","","","","","","","",""
"701","","j","psychophysics","15","131708","0.0-7.0-1.0-1.0-0.0-0.3","3","4","4","3","3","3","3","4","4","3","4","3","2","4","4","4","5","3","4","4","2","3","3","2","2","1","2","4","1","0","0","1","1","0","0","0","0","1","1","1","0","1","0","1","4","3","5","4","4","4","2","5","4","3","4","787033502335111170","何","632","","","","nonmatch","","","","","","","","","","","","","","key","j","16.519607843137255","640","356","f","false","match","img/pentagon.png","五边","五边","ALT1_2","prac_ALT1_2","","","","","","","","","","","",""
"null","<span style='color:red; font-size: 70px;'>错误! </span>","null","html-keyboard-response","16","132222","0.0-7.0-1.0-1.0-0.0-1.3","3","4","4","3","3","3","3","4","4","3","4","3","2","4","4","4","5","3","4","4","2","3","3","2","2","1","2","4","1","0","0","1","1","0","0","0","0","1","1","1","0","1","0","1","4","3","5","4","4","4","2","5","4","3","4","787033502335111170","何","632","","","","","","","","","","","","","","","","","","","","","","","","","","","","","","feedback_test","","","","","","","","","","","",""
"677","","j","psychophysics","17","133949","0.0-7.0-1.0-1.0-0.0-0.4","3","4","4","3","3","3","3","4","4","3","4","3","2","4","4","4","5","3","4","4","2","3","3","2","2","1","2","4","1","0","0","1","1","0","0","0","0","1","1","1","0","1","0","1","4","3","5","4","4","4","2","5","4","3","4","787033502335111170","何","632","","","","nonmatch","","","","","","","","","","","","","","key","j","16.52673076923076","640","356","j","true","nonmatch","img/circle.png","五边","圆形","ALT1_2","prac_ALT1_2","","","","","","","","","","","",""
"null","<span style='color:GreenYellow; font-size: 70px;'>正确! </span>","null","html-keyboard-response","18","134477","0.0-7.0-1.0-1.0-0.0-1.4","3","4","4","3","3","3","3","4","4","3","4","3","2","4","4","4","5","3","4","4","2","3","3","2","2","1","2","4","1","0","0","1","1","0","0","0","0","1","1","1","0","1","0","1","4","3","5","4","4","4","2","5","4","3","4","787033502335111170","何","632","","","","","","","","","","","","","","","","","","","","","","","","","","","","","","feedback_test","","","","","","","","","","","",""
"631","","j","psychophysics","19","136124","0.0-7.0-1.0-1.0-0.0-0.5","3","4","4","3","3","3","3","4","4","3","4","3","2","4","4","4","5","3","4","4","2","3","3","2","2","1","2","4","1","0","0","1","1","0","0","0","0","1","1","1","0","1","0","1","4","3","5","4","4","4","2","5","4","3","4","787033502335111170","何","632","","","","nonmatch","","","","","","","","","","","","","","key","j","16.663505154639033","640","356","f","false","match","img/trapezoid.png","梯形","梯形","ALT1_2","prac_ALT1_2","","","","","","","","","","","",""
"null","<span style='color:red; font-size: 70px;'>错误! </span>","null","html-keyboard-response","20","136628","0.0-7.0-1.0-1.0-0.0-1.5","3","4","4","3","3","3","3","4","4","3","4","3","2","4","4","4","5","3","4","4","2","3","3","2","2","1","2","4","1","0","0","1","1","0","0","0","0","1","1","1","0","1","0","1","4","3","5","4","4","4","2","5","4","3","4","787033502335111170","何","632","","","","","","","","","","","","","","","","","","","","","","","","","","","","","","feedback_test","","","","","","","","","","","",""
"561","","f","psychophysics","21","138202","0.0-7.0-1.0-1.0-0.0-0.6","3","4","4","3","3","3","3","4","4","3","4","3","2","4","4","4","5","3","4","4","2","3","3","2","2","1","2","4","1","0","0","1","1","0","0","0","0","1","1","1","0","1","0","1","4","3","5","4","4","4","2","5","4","3","4","787033502335111170","何","632","","","","match","","","","","","","","","","","","","","key","f","16.663655913978506","640","356","f","true","match","img/square.png","方形","方形","ALT1_2","prac_ALT1_2","","","","","","","","","","","",""
"null","<span style='color:GreenYellow; font-size: 70px;'>正确! </span>","null","html-keyboard-response","22","138719","0.0-7.0-1.0-1.0-0.0-1.6","3","4","4","3","3","3","3","4","4","3","4","3","2","4","4","4","5","3","4","4","2","3","3","2","2","1","2","4","1","0","0","1","1","0","0","0","0","1","1","1","0","1","0","1","4","3","5","4","4","4","2","5","4","3","4","787033502335111170","何","632","","","","","","","","","","","","","","","","","","","","","","","","","","","","","","feedback_test","","","","","","","","","","","",""
"680","","f","psychophysics","23","140414","0.0-7.0-1.0-1.0-0.0-0.7","3","4","4","3","3","3","3","4","4","3","4","3","2","4","4","4","5","3","4","4","2","3","3","2","2","1","2","4","1","0","0","1","1","0","0","0","0","1","1","1","0","1","0","1","4","3","5","4","4","4","2","5","4","3","4","787033502335111170","何","632","","","","match","","","","","","","","","","","","","","key","f","16.66257425742587","640","356","f","true","match","img/pentagon.png","五边","五边","ALT1_2","prac_ALT1_2","","","","","","","","","","","",""
"null","<span style='color:GreenYellow; font-size: 70px;'>正确! </span>","null","html-keyboard-response","24","140919","0.0-7.0-1.0-1.0-0.0-1.7","3","4","4","3","3","3","3","4","4","3","4","3","2","4","4","4","5","3","4","4","2","3","3","2","2","1","2","4","1","0","0","1","1","0","0","0","0","1","1","1","0","1","0","1","4","3","5","4","4","4","2","5","4","3","4","787033502335111170","何","632","","","","","","","","","","","","","","","","","","","","","","","","","","","","","","feedback_test","","","","","","","","","","","",""
"712","","f","psychophysics","25","142643","0.0-7.0-1.0-1.0-0.0-0.8","3","4","4","3","3","3","3","4","4","3","4","3","2","4","4","4","5","3","4","4","2","3","3","2","2","1","2","4","1","0","0","1","1","0","0","0","0","1","1","1","0","1","0","1","4","3","5","4","4","4","2","5","4","3","4","787033502335111170","何","632","","","","match","","","","","","","","","","","","","","key","f","16.663137254901812","640","356","f","true","match","img/square.png","方形","方形","ALT1_2","prac_ALT1_2","","","","","","","","","","","",""
"null","<span style='color:GreenYellow; font-size: 70px;'>正确! </span>","null","html-keyboard-response","26","143151","0.0-7.0-1.0-1.0-0.0-1.8","3","4","4","3","3","3","3","4","4","3","4","3","2","4","4","4","5","3","4","4","2","3","3","2","2","1","2","4","1","0","0","1","1","0","0","0","0","1","1","1","0","1","0","1","4","3","5","4","4","4","2","5","4","3","4","787033502335111170","何","632","","","","","","","","","","","","","","","","","","","","","","","","","","","","","","feedback_test","","","","","","","","","","","",""
"795","","f","psychophysics","27","144959","0.0-7.0-1.0-1.0-0.0-0.9","3","4","4","3","3","3","3","4","4","3","4","3","2","4","4","4","5","3","4","4","2","3","3","2","2","1","2","4","1","0","0","1","1","0","0","0","0","1","1","1","0","1","0","1","4","3","5","4","4","4","2","5","4","3","4","787033502335111170","何","632","","","","match","","","","","","","","","","","","","","key","f","16.663925233644665","640","356","f","true","match","img/trapezoid.png","梯形","梯形","ALT1_2","prac_ALT1_2","","","","","","","","","","","",""
"null","<span style='color:GreenYellow; font-size: 70px;'>正确! </span>","null","html-keyboard-response","28","145471","0.0-7.0-1.0-1.0-0.0-1.9","3","4","4","3","3","3","3","4","4","3","4","3","2","4","4","4","5","3","4","4","2","3","3","2","2","1","2","4","1","0","0","1","1","0","0","0","0","1","1","1","0","1","0","1","4","3","5","4","4","4","2","5","4","3","4","787033502335111170","何","632","","","","","","","","","","","","","","","","","","","","","","","","","","","","","","feedback_test","","","","","","","","","","","",""
"619","","f","psychophysics","29","147091","0.0-7.0-1.0-1.0-0.0-0.10","3","4","4","3","3","3","3","4","4","3","4","3","2","4","4","4","5","3","4","4","2","3","3","2","2","1","2","4","1","0","0","1","1","0","0","0","0","1","1","1","0","1","0","1","4","3","5","4","4","4","2","5","4","3","4","787033502335111170","何","632","","","","match","","","","","","","","","","","","","","key","f","16.664166666666762","640","356","j","false","nonmatch","img/circle.png","方形","圆形","ALT1_2","prac_ALT1_2","","","","","","","","","","","",""
"null","<span style='color:red; font-size: 70px;'>错误! </span>","null","html-keyboard-response","30","147607","0.0-7.0-1.0-1.0-0.0-1.10","3","4","4","3","3","3","3","4","4","3","4","3","2","4","4","4","5","3","4","4","2","3","3","2","2","1","2","4","1","0","0","1","1","0","0","0","0","1","1","1","0","1","0","1","4","3","5","4","4","4","2","5","4","3","4","787033502335111170","何","632","","","","","","","","","","","","","","","","","","","","","","","","","","","","","","feedback_test","","","","","","","","","","","",""
"589","","f","psychophysics","31","149206","0.0-7.0-1.0-1.0-0.0-0.11","3","4","4","3","3","3","3","4","4","3","4","3","2","4","4","4","5","3","4","4","2","3","3","2","2","1","2","4","1","0","0","1","1","0","0","0","0","1","1","1","0","1","0","1","4","3","5","4","4","4","2","5","4","3","4","787033502335111170","何","632","","","","match","","","","","","","","","","","","","","key","f","16.66382978723429","640","356","f","true","match","img/circle.png","圆形","圆形","ALT1_2","prac_ALT1_2","","","","","","","","","","","",""
"null","<span style='color:GreenYellow; font-size: 70px;'>正确! </span>","null","html-keyboard-response","32","149723","0.0-7.0-1.0-1.0-0.0-1.11","3","4","4","3","3","3","3","4","4","3","4","3","2","4","4","4","5","3","4","4","2","3","3","2","2","1","2","4","1","0","0","1","1","0","0","0","0","1","1","1","0","1","0","1","4","3","5","4","4","4","2","5","4","3","4","787033502335111170","何","632","","","","","","","","","","","","","","","","","","","","","","","","","","","","","","feedback_test","","","","","","","","","","","",""
"558","","j","psychophysics","33","151297","0.0-7.0-1.0-1.0-0.0-0.12","3","4","4","3","3","3","3","4","4","3","4","3","2","4","4","4","5","3","4","4","2","3","3","2","2","1","2","4","1","0","0","1","1","0","0","0","0","1","1","1","0","1","0","1","4","3","5","4","4","4","2","5","4","3","4","787033502335111170","何","632","","","","nonmatch","","","","","","","","","","","","","","key","j","16.66425531914896","640","356","f","false","match","img/trapezoid.png","梯形","梯形","ALT1_2","prac_ALT1_2","","","","","","","","","","","",""
"null","<span style='color:red; font-size: 70px;'>错误! </span>","null","html-keyboard-response","34","151812","0.0-7.0-1.0-1.0-0.0-1.12","3","4","4","3","3","3","3","4","4","3","4","3","2","4","4","4","5","3","4","4","2","3","3","2","2","1","2","4","1","0","0","1","1","0","0","0","0","1","1","1","0","1","0","1","4","3","5","4","4","4","2","5","4","3","4","787033502335111170","何","632","","","","","","","","","","","","","","","","","","","","","","","","","","","","","","feedback_test","","","","","","","","","","","",""
"761","","f","psychophysics","35","153582","0.0-7.0-1.0-1.0-0.0-0.13","3","4","4","3","3","3","3","4","4","3","4","3","2","4","4","4","5","3","4","4","2","3","3","2","2","1","2","4","1","0","0","1","1","0","0","0","0","1","1","1","0","1","0","1","4","3","5","4","4","4","2","5","4","3","4","787033502335111170","何","632","","","","match","","","","","","","","","","","","","","key","f","16.66247619047617","640","356","j","false","nonmatch","img/trapezoid.png","圆形","梯形","ALT1_2","prac_ALT1_2","","","","","","","","","","","",""
"null","<span style='color:red; font-size: 70px;'>错误! </span>","null","html-keyboard-response","36","154088","0.0-7.0-1.0-1.0-0.0-1.13","3","4","4","3","3","3","3","4","4","3","4","3","2","4","4","4","5","3","4","4","2","3","3","2","2","1","2","4","1","0","0","1","1","0","0","0","0","1","1","1","0","1","0","1","4","3","5","4","4","4","2","5","4","3","4","787033502335111170","何","632","","","","","","","","","","","","","","","","","","","","","","","","","","","","","","feedback_test","","","","","","","","","","","",""
"834","","j","psychophysics","37","155934","0.0-7.0-1.0-1.0-0.0-0.14","3","4","4","3","3","3","3","4","4","3","4","3","2","4","4","4","5","3","4","4","2","3","3","2","2","1","2","4","1","0","0","1","1","0","0","0","0","1","1","1","0","1","0","1","4","3","5","4","4","4","2","5","4","3","4","787033502335111170","何","632","","","","nonmatch","","","","","","","","","","","","","","key","j","16.662909090909206","640","356","j","true","nonmatch","img/pentagon.png","圆形","五边","ALT1_2","prac_ALT1_2","","","","","","","","","","","",""
"null","<span style='color:GreenYellow; font-size: 70px;'>正确! </span>","null","html-keyboard-response","38","156445","0.0-7.0-1.0-1.0-0.0-1.14","3","4","4","3","3","3","3","4","4","3","4","3","2","4","4","4","5","3","4","4","2","3","3","2","2","1","2","4","1","0","0","1","1","0","0","0","0","1","1","1","0","1","0","1","4","3","5","4","4","4","2","5","4","3","4","787033502335111170","何","632","","","","","","","","","","","","","","","","","","","","","","","","","","","","","","feedback_test","","","","","","","","","","","",""
"917","","j","psychophysics","39","158375","0.0-7.0-1.0-1.0-0.0-0.15","3","4","4","3","3","3","3","4","4","3","4","3","2","4","4","4","5","3","4","4","2","3","3","2","2","1","2","4","1","0","0","1","1","0","0","0","0","1","1","1","0","1","0","1","4","3","5","4","4","4","2","5","4","3","4","787033502335111170","何","632","","","","nonmatch","","","","","","","","","","","","","","key","j","16.616347826086997","640","356","j","true","nonmatch","img/square.png","五边","方形","ALT1_2","prac_ALT1_2","","","","","","","","","","","",""
"null","<span style='color:GreenYellow; font-size: 70px;'>正确! </span>","null","html-keyboard-response","40","158886","0.0-7.0-1.0-1.0-0.0-1.15","3","4","4","3","3","3","3","4","4","3","4","3","2","4","4","4","5","3","4","4","2","3","3","2","2","1","2","4","1","0","0","1","1","0","0","0","0","1","1","1","0","1","0","1","4","3","5","4","4","4","2","5","4","3","4","787033502335111170","何","632","","","","","","","","","","","","","","","","","","","","","","","","","","","","","","feedback_test","","","","","","","","","","","",""
"715","","j","psychophysics","41","160616","0.0-7.0-1.0-1.0-0.0-0.16","3","4","4","3","3","3","3","4","4","3","4","3","2","4","4","4","5","3","4","4","2","3","3","2","2","1","2","4","1","0","0","1","1","0","0","0","0","1","1","1","0","1","0","1","4","3","5","4","4","4","2","5","4","3","4","787033502335111170","何","632","","","","nonmatch","","","","","","","","","","","","","","key","j","16.664077669902856","640","356","j","true","nonmatch","img/square.png","圆形","方形","ALT1_2","prac_ALT1_2","","","","","","","","","","","",""
"null","<span style='color:GreenYellow; font-size: 70px;'>正确! </span>","null","html-keyboard-response","42","161149","0.0-7.0-1.0-1.0-0.0-1.16","3","4","4","3","3","3","3","4","4","3","4","3","2","4","4","4","5","3","4","4","2","3","3","2","2","1","2","4","1","0","0","1","1","0","0","0","0","1","1","1","0","1","0","1","4","3","5","4","4","4","2","5","4","3","4","787033502335111170","何","632","","","","","","","","","","","","","","","","","","","","","","","","","","","","","","feedback_test","","","","","","","","","","","",""
"722","","f","psychophysics","43","162887","0.0-7.0-1.0-1.0-0.0-0.17","3","4","4","3","3","3","3","4","4","3","4","3","2","4","4","4","5","3","4","4","2","3","3","2","2","1","2","4","1","0","0","1","1","0","0","0","0","1","1","1","0","1","0","1","4","3","5","4","4","4","2","5","4","3","4","787033502335111170","何","632","","","","match","","","","","","","","","","","","","","key","f","16.660388349514744","640","356","j","false","nonmatch","img/pentagon.png","梯形","五边","ALT1_2","prac_ALT1_2","","","","","","","","","","","",""
"null","<span style='color:red; font-size: 70px;'>错误! </span>","null","html-keyboard-response","44","163395","0.0-7.0-1.0-1.0-0.0-1.17","3","4","4","3","3","3","3","4","4","3","4","3","2","4","4","4","5","3","4","4","2","3","3","2","2","1","2","4","1","0","0","1","1","0","0","0","0","1","1","1","0","1","0","1","4","3","5","4","4","4","2","5","4","3","4","787033502335111170","何","632","","","","","","","","","","","","","","","","","","","","","","","","","","","","","","feedback_test","","","","","","","","","","","",""
"777","","j","psychophysics","45","165184","0.0-7.0-1.0-1.0-0.0-0.18","3","4","4","3","3","3","3","4","4","3","4","3","2","4","4","4","5","3","4","4","2","3","3","2","2","1","2","4","1","0","0","1","1","0","0","0","0","1","1","1","0","1","0","1","4","3","5","4","4","4","2","5","4","3","4","787033502335111170","何","632","","","","nonmatch","","","","","","","","","","","","","","key","j","16.6632075471697","640","356","j","true","nonmatch","img/square.png","梯形","方形","ALT1_2","prac_ALT1_2","","","","","","","","","","","",""
"null","<span style='color:GreenYellow; font-size: 70px;'>正确! </span>","null","html-keyboard-response","46","165700","0.0-7.0-1.0-1.0-0.0-1.18","3","4","4","3","3","3","3","4","4","3","4","3","2","4","4","4","5","3","4","4","2","3","3","2","2","1","2","4","1","0","0","1","1","0","0","0","0","1","1","1","0","1","0","1","4","3","5","4","4","4","2","5","4","3","4","787033502335111170","何","632","","","","","","","","","","","","","","","","","","","","","","","","","","","","","","feedback_test","","","","","","","","","","","",""
"823","","f","psychophysics","47","167524","0.0-7.0-1.0-1.0-0.0-0.19","3","4","4","3","3","3","3","4","4","3","4","3","2","4","4","4","5","3","4","4","2","3","3","2","2","1","2","4","1","0","0","1","1","0","0","0","0","1","1","1","0","1","0","1","4","3","5","4","4","4","2","5","4","3","4","787033502335111170","何","632","","","","match","","","","","","","","","","","","","","key","f","16.66166666666659","640","356","j","false","nonmatch","img/trapezoid.png","五边","梯形","ALT1_2","prac_ALT1_2","","","","","","","","","","","",""
"null","<span style='color:red; font-size: 70px;'>错误! </span>","null","html-keyboard-response","48","168031","0.0-7.0-1.0-1.0-0.0-1.19","3","4","4","3","3","3","3","4","4","3","4","3","2","4","4","4","5","3","4","4","2","3","3","2","2","1","2","4","1","0","0","1","1","0","0","0","0","1","1","1","0","1","0","1","4","3","5","4","4","4","2","5","4","3","4","787033502335111170","何","632","","","","","","","","","","","","","","","","","","","","","","","","","","","","","","feedback_test","","","","","","","","","","","",""
"691","","j","psychophysics","49","169738","0.0-7.0-1.0-1.0-0.0-0.20","3","4","4","3","3","3","3","4","4","3","4","3","2","4","4","4","5","3","4","4","2","3","3","2","2","1","2","4","1","0","0","1","1","0","0","0","0","1","1","1","0","1","0","1","4","3","5","4","4","4","2","5","4","3","4","787033502335111170","何","632","","","","nonmatch","","","","","","","","","","","","","","key","j","16.664356435643622","640","356","j","true","nonmatch","img/pentagon.png","方形","五边","ALT1_2","prac_ALT1_2","","","","","","","","","","","",""
"null","<span style='color:GreenYellow; font-size: 70px;'>正确! </span>","null","html-keyboard-response","50","170244","0.0-7.0-1.0-1.0-0.0-1.20","3","4","4","3","3","3","3","4","4","3","4","3","2","4","4","4","5","3","4","4","2","3","3","2","2","1","2","4","1","0","0","1","1","0","0","0","0","1","1","1","0","1","0","1","4","3","5","4","4","4","2","5","4","3","4","787033502335111170","何","632","","","","","","","","","","","","","","","","","","","","","","","","","","","","","","feedback_test","","","","","","","","","","","",""
"585","","f","psychophysics","51","171833","0.0-7.0-1.0-1.0-0.0-0.21","3","4","4","3","3","3","3","4","4","3","4","3","2","4","4","4","5","3","4","4","2","3","3","2","2","1","2","4","1","0","0","1","1","0","0","0","0","1","1","1","0","1","0","1","4","3","5","4","4","4","2","5","4","3","4","787033502335111170","何","632","","","","match","","","","","","","","","","","","","","key","f","16.66340425531931","640","356","f","true","match","img/circle.png","圆形","圆形","ALT1_2","prac_ALT1_2","","","","","","","","","","","",""
"null","<span style='color:GreenYellow; font-size: 70px;'>正确! </span>","null","html-keyboard-response","52","172345","0.0-7.0-1.0-1.0-0.0-1.21","3","4","4","3","3","3","3","4","4","3","4","3","2","4","4","4","5","3","4","4","2","3","3","2","2","1","2","4","1","0","0","1","1","0","0","0","0","1","1","1","0","1","0","1","4","3","5","4","4","4","2","5","4","3","4","787033502335111170","何","632","","","","","","","","","","","","","","","","","","","","","","","","","","","","","","feedback_test","","","","","","","","","","","",""
"662","","f","psychophysics","53","174020","0.0-7.0-1.0-1.0-0.0-0.22","3","4","4","3","3","3","3","4","4","3","4","3","2","4","4","4","5","3","4","4","2","3","3","2","2","1","2","4","1","0","0","1","1","0","0","0","0","1","1","1","0","1","0","1","4","3","5","4","4","4","2","5","4","3","4","787033502335111170","何","632","","","","match","","","","","","","","","","","","","","key","f","16.66404040404031","640","356","f","true","match","img/square.png","方形","方形","ALT1_2","prac_ALT1_2","","","","","","","","","","","",""
"null","<span style='color:GreenYellow; font-size: 70px;'>正确! </span>","null","html-keyboard-response","54","174527","0.0-7.0-1.0-1.0-0.0-1.22","3","4","4","3","3","3","3","4","4","3","4","3","2","4","4","4","5","3","4","4","2","3","3","2","2","1","2","4","1","0","0","1","1","0","0","0","0","1","1","1","0","1","0","1","4","3","5","4","4","4","2","5","4","3","4","787033502335111170","何","632","","","","","","","","","","","","","","","","","","","","","","","","","","","","","","feedback_test","","","","","","","","","","","",""
"606","","f","psychophysics","55","176146","0.0-7.0-1.0-1.0-0.0-0.23","3","4","4","3","3","3","3","4","4","3","4","3","2","4","4","4","5","3","4","4","2","3","3","2","2","1","2","4","1","0","0","1","1","0","0","0","0","1","1","1","0","1","0","1","4","3","5","4","4","4","2","5","4","3","4","787033502335111170","何","632","","","","match","","","","","","","","","","","","","","key","f","16.664166666666762","640","356","f","true","match","img/pentagon.png","五边","五边","ALT1_2","prac_ALT1_2","","","","","","","","","","","",""
"null","<span style='color:GreenYellow; font-size: 70px;'>正确! </span>","null","html-keyboard-response","56","176662","0.0-7.0-1.0-1.0-0.0-1.23","3","4","4","3","3","3","3","4","4","3","4","3","2","4","4","4","5","3","4","4","2","3","3","2","2","1","2","4","1","0","0","1","1","0","0","0","0","1","1","1","0","1","0","1","4","3","5","4","4","4","2","5","4","3","4","787033502335111170","何","632","","","","","","","","","","","","","","","","","","","","","","","","","","","","","","feedback_test","","","","","","","","","","","",""
"685","","j","psychophysics","57","178360","0.0-7.0-1.0-1.0-0.0-0.24","3","4","4","3","3","3","3","4","4","3","4","3","2","4","4","4","5","3","4","4","2","3","3","2","2","1","2","4","1","0","0","1","1","0","0","0","0","1","1","1","0","1","0","1","4","3","5","4","4","4","2","5","4","3","4","787033502335111170","何","632","","","","nonmatch","","","","","","","","","","","","","","key","j","16.571372549019596","640","356","j","true","nonmatch","img/circle.png","五边","圆形","ALT1_2","prac_ALT1_2","","","","","","","","","","","",""
"null","<span style='color:GreenYellow; font-size: 70px;'>正确! </span>","null","html-keyboard-response","58","178877","0.0-7.0-1.0-1.0-0.0-1.24","3","4","4","3","3","3","3","4","4","3","4","3","2","4","4","4","5","3","4","4","2","3","3","2","2","1","2","4","1","0","0","1","1","0","0","0","0","1","1","1","0","1","0","1","4","3","5","4","4","4","2","5","4","3","4","787033502335111170","何","632","","","","","","","","","","","","","","","","","","","","","","","","","","","","","","feedback_test","","","","","","","","","","","",""
"642","","j","psychophysics","59","180533","0.0-7.0-1.0-1.0-0.0-0.25","3","4","4","3","3","3","3","4","4","3","4","3","2","4","4","4","5","3","4","4","2","3","3","2","2","1","2","4","1","0","0","1","1","0","0","0","0","1","1","1","0","1","0","1","4","3","5","4","4","4","2","5","4","3","4","787033502335111170","何","632","","","","nonmatch","","","","","","","","","","","","","","key","j","16.662653061224514","640","356","j","true","nonmatch","img/square.png","五边","方形","ALT1_2","prac_ALT1_2","","","","","","","","","","","",""
"null","<span style='color:GreenYellow; font-size: 70px;'>正确! </span>","null","html-keyboard-response","60","181090","0.0-7.0-1.0-1.0-0.0-1.25","3","4","4","3","3","3","3","4","4","3","4","3","2","4","4","4","5","3","4","4","2","3","3","2","2","1","2","4","1","0","0","1","1","0","0","0","0","1","1","1","0","1","0","1","4","3","5","4","4","4","2","5","4","3","4","787033502335111170","何","632","","","","","","","","","","","","","","","","","","","","","","","","","","","","","","feedback_test","","","","","","","","","","","",""
"438","","f","psychophysics","61","182622","0.0-7.0-1.0-1.0-0.0-0.26","3","4","4","3","3","3","3","4","4","3","4","3","2","4","4","4","5","3","4","4","2","3","3","2","2","1","2","4","1","0","0","1","1","0","0","0","0","1","1","1","0","1","0","1","4","3","5","4","4","4","2","5","4","3","4","787033502335111170","何","632","","","","match","","","","","","","","","","","","","","key","f","16.662222222222287","640","356","f","true","match","img/circle.png","圆形","圆形","ALT1_2","prac_ALT1_2","","","","","","","","","","","",""
"null","<span style='color:GreenYellow; font-size: 70px;'>正确! </span>","null","html-keyboard-response","62","183194","0.0-7.0-1.0-1.0-0.0-1.26","3","4","4","3","3","3","3","4","4","3","4","3","2","4","4","4","5","3","4","4","2","3","3","2","2","1","2","4","1","0","0","1","1","0","0","0","0","1","1","1","0","1","0","1","4","3","5","4","4","4","2","5","4","3","4","787033502335111170","何","632","","","","","","","","","","","","","","","","","","","","","","","","","","","","","","feedback_test","","","","","","","","","","","",""
"502","","f","psychophysics","63","184710","0.0-7.0-1.0-1.0-0.0-0.27","3","4","4","3","3","3","3","4","4","3","4","3","2","4","4","4","5","3","4","4","2","3","3","2","2","1","2","4","1","0","0","1","1","0","0","0","0","1","1","1","0","1","0","1","4","3","5","4","4","4","2","5","4","3","4","787033502335111170","何","632","","","","match","","","","","","","","","","","","","","key","f","16.54857142857125","640","356","j","false","nonmatch","img/pentagon.png","方形","五边","ALT1_2","prac_ALT1_2","","","","","","","","","","","",""
"null","<span style='color:red; font-size: 70px;'>错误! </span>","null","html-keyboard-response","64","185221","0.0-7.0-1.0-1.0-0.0-1.27","3","4","4","3","3","3","3","4","4","3","4","3","2","4","4","4","5","3","4","4","2","3","3","2","2","1","2","4","1","0","0","1","1","0","0","0","0","1","1","1","0","1","0","1","4","3","5","4","4","4","2","5","4","3","4","787033502335111170","何","632","","","","","","","","","","","","","","","","","","","","","","","","","","","","","","feedback_test","","","","","","","","","","","",""
"407","","j","psychophysics","65","186644","0.0-7.0-1.0-1.0-0.0-0.28","3","4","4","3","3","3","3","4","4","3","4","3","2","4","4","4","5","3","4","4","2","3","3","2","2","1","2","4","1","0","0","1","1","0","0","0","0","1","1","1","0","1","0","1","4","3","5","4","4","4","2","5","4","3","4","787033502335111170","何","632","","","","nonmatch","","","","","","","","","","","","","","key","j","16.664285714285576","640","356","j","true","nonmatch","img/trapezoid.png","方形","梯形","ALT1_2","prac_ALT1_2","","","","","","","","","","","",""
"null","<span style='color:GreenYellow; font-size: 70px;'>正确! </span>","null","html-keyboard-response","66","187158","0.0-7.0-1.0-1.0-0.0-1.28","3","4","4","3","3","3","3","4","4","3","4","3","2","4","4","4","5","3","4","4","2","3","3","2","2","1","2","4","1","0","0","1","1","0","0","0","0","1","1","1","0","1","0","1","4","3","5","4","4","4","2","5","4","3","4","787033502335111170","何","632","","","","","","","","","","","","","","","","","","","","","","","","","","","","","","feedback_test","","","","","","","","","","","",""
"453","","j","psychophysics","67","188748","0.0-7.0-1.0-1.0-0.0-0.29","3","4","4","3","3","3","3","4","4","3","4","3","2","4","4","4","5","3","4","4","2","3","3","2","2","1","2","4","1","0","0","1","1","0","0","0","0","1","1","1","0","1","0","1","4","3","5","4","4","4","2","5","4","3","4","787033502335111170","何","632","","","","nonmatch","","","","","","","","","","","","","","key","j","16.66297872340433","640","356","f","false","match","img/trapezoid.png","梯形","梯形","ALT1_2","prac_ALT1_2","","","","","","","","","","","",""
"null","<span style='color:red; font-size: 70px;'>错误! </span>","null","html-keyboard-response","68","189306","0.0-7.0-1.0-1.0-0.0-1.29","3","4","4","3","3","3","3","4","4","3","4","3","2","4","4","4","5","3","4","4","2","3","3","2","2","1","2","4","1","0","0","1","1","0","0","0","0","1","1","1","0","1","0","1","4","3","5","4","4","4","2","5","4","3","4","787033502335111170","何","632","","","","","","","","","","","","","","","","","","","","","","","","","","","","","","feedback_test","","","","","","","","","","","",""
"541","","f","psychophysics","69","190859","0.0-7.0-1.0-1.0-0.0-0.30","3","4","4","3","3","3","3","4","4","3","4","3","2","4","4","4","5","3","4","4","2","3","3","2","2","1","2","4","1","0","0","1","1","0","0","0","0","1","1","1","0","1","0","1","4","3","5","4","4","4","2","5","4","3","4","787033502335111170","何","632","","","","match","","","","","","","","","","","","","","key","f","16.663478260869653","640","356","f","true","match","img/square.png","方形","方形","ALT1_2","prac_ALT1_2","","","","","","","","","","","",""
"null","<span style='color:GreenYellow; font-size: 70px;'>正确! </span>","null","html-keyboard-response","70","191368","0.0-7.0-1.0-1.0-0.0-1.30","3","4","4","3","3","3","3","4","4","3","4","3","2","4","4","4","5","3","4","4","2","3","3","2","2","1","2","4","1","0","0","1","1","0","0","0","0","1","1","1","0","1","0","1","4","3","5","4","4","4","2","5","4","3","4","787033502335111170","何","632","","","","","","","","","","","","","","","","","","","","","","","","","","","","","","feedback_test","","","","","","","","","","","",""
"602","","j","psychophysics","71","192984","0.0-7.0-1.0-1.0-0.0-0.31","3","4","4","3","3","3","3","4","4","3","4","3","2","4","4","4","5","3","4","4","2","3","3","2","2","1","2","4","1","0","0","1","1","0","0","0","0","1","1","1","0","1","0","1","4","3","5","4","4","4","2","5","4","3","4","787033502335111170","何","632","","","","nonmatch","","","","","","","","","","","","","","key","j","16.66375000000001","640","356","j","true","nonmatch","img/square.png","圆形","方形","ALT1_2","prac_ALT1_2","","","","","","","","","","","",""
"null","<span style='color:GreenYellow; font-size: 70px;'>正确! </span>","null","html-keyboard-response","72","193492","0.0-7.0-1.0-1.0-0.0-1.31","3","4","4","3","3","3","3","4","4","3","4","3","2","4","4","4","5","3","4","4","2","3","3","2","2","1","2","4","1","0","0","1","1","0","0","0","0","1","1","1","0","1","0","1","4","3","5","4","4","4","2","5","4","3","4","787033502335111170","何","632","","","","","","","","","","","","","","","","","","","","","","","","","","","","","","feedback_test","","","","","","","","","","","",""
"517","","j","psychophysics","73","195010","0.0-7.0-1.0-1.0-0.0-0.32","3","4","4","3","3","3","3","4","4","3","4","3","2","4","4","4","5","3","4","4","2","3","3","2","2","1","2","4","1","0","0","1","1","0","0","0","0","1","1","1","0","1","0","1","4","3","5","4","4","4","2","5","4","3","4","787033502335111170","何","632","","","","nonmatch","","","","","","","","","","","","","","key","j","16.664000000000105","640","356","f","false","match","img/square.png","方形","方形","ALT1_2","prac_ALT1_2","","","","","","","","","","","",""
"null","<span style='color:red; font-size: 70px;'>错误! </span>","null","html-keyboard-response","74","195513","0.0-7.0-1.0-1.0-0.0-1.32","3","4","4","3","3","3","3","4","4","3","4","3","2","4","4","4","5","3","4","4","2","3","3","2","2","1","2","4","1","0","0","1","1","0","0","0","0","1","1","1","0","1","0","1","4","3","5","4","4","4","2","5","4","3","4","787033502335111170","何","632","","","","","","","","","","","","","","","","","","","","","","","","","","","","","","feedback_test","","","","","","","","","","","",""
"695","","j","psychophysics","75","197301","0.0-7.0-1.0-1.0-0.0-0.33","3","4","4","3","3","3","3","4","4","3","4","3","2","4","4","4","5","3","4","4","2","3","3","2","2","1","2","4","1","0","0","1","1","0","0","0","0","1","1","1","0","1","0","1","4","3","5","4","4","4","2","5","4","3","4","787033502335111170","何","632","","","","nonmatch","","","","","","","","","","","","","","key","j","16.663396226414886","640","356","j","true","nonmatch","img/pentagon.png","梯形","五边","ALT1_2","prac_ALT1_2","","","","","","","","","","","",""
"null","<span style='color:GreenYellow; font-size: 70px;'>正确! </span>","null","html-keyboard-response","76","197805","0.0-7.0-1.0-1.0-0.0-1.33","3","4","4","3","3","3","3","4","4","3","4","3","2","4","4","4","5","3","4","4","2","3","3","2","2","1","2","4","1","0","0","1","1","0","0","0","0","1","1","1","0","1","0","1","4","3","5","4","4","4","2","5","4","3","4","787033502335111170","何","632","","","","","","","","","","","","","","","","","","","","","","","","","","","","","","feedback_test","","","","","","","","","","","",""
"678","","j","psychophysics","77","199497","0.0-7.0-1.0-1.0-0.0-0.34","3","4","4","3","3","3","3","4","4","3","4","3","2","4","4","4","5","3","4","4","2","3","3","2","2","1","2","4","1","0","0","1","1","0","0","0","0","1","1","1","0","1","0","1","4","3","5","4","4","4","2","5","4","3","4","787033502335111170","何","632","","","","nonmatch","","","","","","","","","","","","","","key","j","16.66399999999994","640","356","j","true","nonmatch","img/pentagon.png","圆形","五边","ALT1_2","prac_ALT1_2","","","","","","","","","","","",""
"null","<span style='color:GreenYellow; font-size: 70px;'>正确! </span>","null","html-keyboard-response","78","200007","0.0-7.0-1.0-1.0-0.0-1.34","3","4","4","3","3","3","3","4","4","3","4","3","2","4","4","4","5","3","4","4","2","3","3","2","2","1","2","4","1","0","0","1","1","0","0","0","0","1","1","1","0","1","0","1","4","3","5","4","4","4","2","5","4","3","4","787033502335111170","何","632","","","","","","","","","","","","","","","","","","","","","","","","","","","","","","feedback_test","","","","","","","","","","","",""
"768","","f","psychophysics","79","201790","0.0-7.0-1.0-1.0-0.0-0.35","3","4","4","3","3","3","3","4","4","3","4","3","2","4","4","4","5","3","4","4","2","3","3","2","2","1","2","4","1","0","0","1","1","0","0","0","0","1","1","1","0","1","0","1","4","3","5","4","4","4","2","5","4","3","4","787033502335111170","何","632","","","","match","","","","","","","","","","","","","","key","f","16.66396226415099","640","356","f","true","match","img/trapezoid.png","梯形","梯形","ALT1_2","prac_ALT1_2","","","","","","","","","","","",""
"null","<span style='color:GreenYellow; font-size: 70px;'>正确! </span>","null","html-keyboard-response","80","202300","0.0-7.0-1.0-1.0-0.0-1.35","3","4","4","3","3","3","3","4","4","3","4","3","2","4","4","4","5","3","4","4","2","3","3","2","2","1","2","4","1","0","0","1","1","0","0","0","0","1","1","1","0","1","0","1","4","3","5","4","4","4","2","5","4","3","4","787033502335111170","何","632","","","","","","","","","","","","","","","","","","","","","","","","","","","","","","feedback_test","","","","","","","","","","","",""
"603","","f","psychophysics","81","203917","0.0-7.0-1.0-1.0-0.0-0.36","3","4","4","3","3","3","3","4","4","3","4","3","2","4","4","4","5","3","4","4","2","3","3","2","2","1","2","4","1","0","0","1","1","0","0","0","0","1","1","1","0","1","0","1","4","3","5","4","4","4","2","5","4","3","4","787033502335111170","何","632","","","","match","","","","","","","","","","","","","","key","f","16.663578947368507","640","356","f","true","match","img/circle.png","圆形","圆形","ALT1_2","prac_ALT1_2","","","","","","","","","","","",""
"null","<span style='color:GreenYellow; font-size: 70px;'>正确! </span>","null","html-keyboard-response","82","204425","0.0-7.0-1.0-1.0-0.0-1.36","3","4","4","3","3","3","3","4","4","3","4","3","2","4","4","4","5","3","4","4","2","3","3","2","2","1","2","4","1","0","0","1","1","0","0","0","0","1","1","1","0","1","0","1","4","3","5","4","4","4","2","5","4","3","4","787033502335111170","何","632","","","","","","","","","","","","","","","","","","","","","","","","","","","","","","feedback_test","","","","","","","","","","","",""
"543","","f","psychophysics","83","205980","0.0-7.0-1.0-1.0-0.0-0.37","3","4","4","3","3","3","3","4","4","3","4","3","2","4","4","4","5","3","4","4","2","3","3","2","2","1","2","4","1","0","0","1","1","0","0","0","0","1","1","1","0","1","0","1","4","3","5","4","4","4","2","5","4","3","4","787033502335111170","何","632","","","","match","","","","","","","","","","","","","","key","f","16.66391304347812","640","356","j","false","nonmatch","img/circle.png","梯形","圆形","ALT1_2","prac_ALT1_2","","","","","","","","","","","",""
"null","<span style='color:red; font-size: 70px;'>错误! </span>","null","html-keyboard-response","84","206481","0.0-7.0-1.0-1.0-0.0-1.37","3","4","4","3","3","3","3","4","4","3","4","3","2","4","4","4","5","3","4","4","2","3","3","2","2","1","2","4","1","0","0","1","1","0","0","0","0","1","1","1","0","1","0","1","4","3","5","4","4","4","2","5","4","3","4","787033502335111170","何","632","","","","","","","","","","","","","","","","","","","","","","","","","","","","","","feedback_test","","","","","","","","","","","",""
"536","","f","psychophysics","85","208034","0.0-7.0-1.0-1.0-0.0-0.38","3","4","4","3","3","3","3","4","4","3","4","3","2","4","4","4","5","3","4","4","2","3","3","2","2","1","2","4","1","0","0","1","1","0","0","0","0","1","1","1","0","1","0","1","4","3","5","4","4","4","2","5","4","3","4","787033502335111170","何","632","","","","match","","","","","","","","","","","","","","key","f","16.670434782608936","640","356","j","false","nonmatch","img/circle.png","方形","圆形","ALT1_2","prac_ALT1_2","","","","","","","","","","","",""
"null","<span style='color:red; font-size: 70px;'>错误! </span>","null","html-keyboard-response","86","208558","0.0-7.0-1.0-1.0-0.0-1.38","3","4","4","3","3","3","3","4","4","3","4","3","2","4","4","4","5","3","4","4","2","3","3","2","2","1","2","4","1","0","0","1","1","0","0","0","0","1","1","1","0","1","0","1","4","3","5","4","4","4","2","5","4","3","4","787033502335111170","何","632","","","","","","","","","","","","","","","","","","","","","","","","","","","","","","feedback_test","","","","","","","","","","","",""
"428","","f","psychophysics","87","210003","0.0-7.0-1.0-1.0-0.0-0.39","3","4","4","3","3","3","3","4","4","3","4","3","2","4","4","4","5","3","4","4","2","3","3","2","2","1","2","4","1","0","0","1","1","0","0","0","0","1","1","1","0","1","0","1","4","3","5","4","4","4","2","5","4","3","4","787033502335111170","何","632","","","","match","","","","","","","","","","","","","","key","f","16.662790697674417","640","356","f","true","match","img/circle.png","圆形","圆形","ALT1_2","prac_ALT1_2","","","","","","","","","","","",""
"null","<span style='color:GreenYellow; font-size: 70px;'>正确! </span>","null","html-keyboard-response","88","210572","0.0-7.0-1.0-1.0-0.0-1.39","3","4","4","3","3","3","3","4","4","3","4","3","2","4","4","4","5","3","4","4","2","3","3","2","2","1","2","4","1","0","0","1","1","0","0","0","0","1","1","1","0","1","0","1","4","3","5","4","4","4","2","5","4","3","4","787033502335111170","何","632","","","","","","","","","","","","","","","","","","","","","","","","","","","","","","feedback_test","","","","","","","","","","","",""
"615","","f","psychophysics","89","212201","0.0-7.0-1.0-1.0-0.0-0.40","3","4","4","3","3","3","3","4","4","3","4","3","2","4","4","4","5","3","4","4","2","3","3","2","2","1","2","4","1","0","0","1","1","0","0","0","0","1","1","1","0","1","0","1","4","3","5","4","4","4","2","5","4","3","4","787033502335111170","何","632","","","","match","","","","","","","","","","","","","","key","f","16.664166666666762","640","356","f","true","match","img/pentagon.png","五边","五边","ALT1_2","prac_ALT1_2","","","","","","","","","","","",""
"null","<span style='color:GreenYellow; font-size: 70px;'>正确! </span>","null","html-keyboard-response","90","212770","0.0-7.0-1.0-1.0-0.0-1.40","3","4","4","3","3","3","3","4","4","3","4","3","2","4","4","4","5","3","4","4","2","3","3","2","2","1","2","4","1","0","0","1","1","0","0","0","0","1","1","1","0","1","0","1","4","3","5","4","4","4","2","5","4","3","4","787033502335111170","何","632","","","","","","","","","","","","","","","","","","","","","","","","","","","","","","feedback_test","","","","","","","","","","","",""
"679","","j","psychophysics","91","214468","0.0-7.0-1.0-1.0-0.0-0.41","3","4","4","3","3","3","3","4","4","3","4","3","2","4","4","4","5","3","4","4","2","3","3","2","2","1","2","4","1","0","0","1","1","0","0","0","0","1","1","1","0","1","0","1","4","3","5","4","4","4","2","5","4","3","4","787033502335111170","何","632","","","","nonmatch","","","","","","","","","","","","","","key","j","16.663800000000048","640","356","j","true","nonmatch","img/square.png","梯形","方形","ALT1_2","prac_ALT1_2","","","","","","","","","","","",""
"null","<span style='color:GreenYellow; font-size: 70px;'>正确! </span>","null","html-keyboard-response","92","214974","0.0-7.0-1.0-1.0-0.0-1.41","3","4","4","3","3","3","3","4","4","3","4","3","2","4","4","4","5","3","4","4","2","3","3","2","2","1","2","4","1","0","0","1","1","0","0","0","0","1","1","1","0","1","0","1","4","3","5","4","4","4","2","5","4","3","4","787033502335111170","何","632","","","","","","","","","","","","","","","","","","","","","","","","","","","","","","feedback_test","","","","","","","","","","","",""
"636","","j","psychophysics","93","216613","0.0-7.0-1.0-1.0-0.0-0.42","3","4","4","3","3","3","3","4","4","3","4","3","2","4","4","4","5","3","4","4","2","3","3","2","2","1","2","4","1","0","0","1","1","0","0","0","0","1","1","1","0","1","0","1","4","3","5","4","4","4","2","5","4","3","4","787033502335111170","何","632","","","","nonmatch","","","","","","","","","","","","","","key","j","16.66329896907213","640","356","j","true","nonmatch","img/trapezoid.png","圆形","梯形","ALT1_2","prac_ALT1_2","","","","","","","","","","","",""
"null","<span style='color:GreenYellow; font-size: 70px;'>正确! </span>","null","html-keyboard-response","94","217119","0.0-7.0-1.0-1.0-0.0-1.42","3","4","4","3","3","3","3","4","4","3","4","3","2","4","4","4","5","3","4","4","2","3","3","2","2","1","2","4","1","0","0","1","1","0","0","0","0","1","1","1","0","1","0","1","4","3","5","4","4","4","2","5","4","3","4","787033502335111170","何","632","","","","","","","","","","","","","","","","","","","","","","","","","","","","","","feedback_test","","","","","","","","","","","",""
"586","","f","psychophysics","95","218722","0.0-7.0-1.0-1.0-0.0-0.43","3","4","4","3","3","3","3","4","4","3","4","3","2","4","4","4","5","3","4","4","2","3","3","2","2","1","2","4","1","0","0","1","1","0","0","0","0","1","1","1","0","1","0","1","4","3","5","4","4","4","2","5","4","3","4","787033502335111170","何","632","","","","match","","","","","","","","","","","","","","key","f","16.661894736842154","640","356","f","true","match","img/pentagon.png","五边","五边","ALT1_2","prac_ALT1_2","","","","","","","","","","","",""
"null","<span style='color:GreenYellow; font-size: 70px;'>正确! </span>","null","html-keyboard-response","96","219238","0.0-7.0-1.0-1.0-0.0-1.43","3","4","4","3","3","3","3","4","4","3","4","3","2","4","4","4","5","3","4","4","2","3","3","2","2","1","2","4","1","0","0","1","1","0","0","0","0","1","1","1","0","1","0","1","4","3","5","4","4","4","2","5","4","3","4","787033502335111170","何","632","","","","","","","","","","","","","","","","","","","","","","","","","","","","","","feedback_test","","","","","","","","","","","",""
"571","","f","psychophysics","97","220826","0.0-7.0-1.0-1.0-0.0-0.44","3","4","4","3","3","3","3","4","4","3","4","3","2","4","4","4","5","3","4","4","2","3","3","2","2","1","2","4","1","0","0","1","1","0","0","0","0","1","1","1","0","1","0","1","4","3","5","4","4","4","2","5","4","3","4","787033502335111170","何","632","","","","match","","","","","","","","","","","","","","key","f","16.520421052631605","640","356","f","true","match","img/pentagon.png","五边","五边","ALT1_2","prac_ALT1_2","","","","","","","","","","","",""
"null","<span style='color:GreenYellow; font-size: 70px;'>正确! </span>","null","html-keyboard-response","98","221332","0.0-7.0-1.0-1.0-0.0-1.44","3","4","4","3","3","3","3","4","4","3","4","3","2","4","4","4","5","3","4","4","2","3","3","2","2","1","2","4","1","0","0","1","1","0","0","0","0","1","1","1","0","1","0","1","4","3","5","4","4","4","2","5","4","3","4","787033502335111170","何","632","","","","","","","","","","","","","","","","","","","","","","","","","","","","","","feedback_test","","","","","","","","","","","",""
"628","","f","psychophysics","99","222965","0.0-7.0-1.0-1.0-0.0-0.45","3","4","4","3","3","3","3","4","4","3","4","3","2","4","4","4","5","3","4","4","2","3","3","2","2","1","2","4","1","0","0","1","1","0","0","0","0","1","1","1","0","1","0","1","4","3","5","4","4","4","2","5","4","3","4","787033502335111170","何","632","","","","match","","","","","","","","","","","","","","key","f","16.66333333333326","640","356","f","true","match","img/trapezoid.png","梯形","梯形","ALT1_2","prac_ALT1_2","","","","","","","","","","","",""
"null","<span style='color:GreenYellow; font-size: 70px;'>正确! </span>","null","html-keyboard-response","100","223476","0.0-7.0-1.0-1.0-0.0-1.45","3","4","4","3","3","3","3","4","4","3","4","3","2","4","4","4","5","3","4","4","2","3","3","2","2","1","2","4","1","0","0","1","1","0","0","0","0","1","1","1","0","1","0","1","4","3","5","4","4","4","2","5","4","3","4","787033502335111170","何","632","","","","","","","","","","","","","","","","","","","","","","","","","","","","","","feedback_test","","","","","","","","","","","",""
"553","","j","psychophysics","101","225045","0.0-7.0-1.0-1.0-0.0-0.46","3","4","4","3","3","3","3","4","4","3","4","3","2","4","4","4","5","3","4","4","2","3","3","2","2","1","2","4","1","0","0","1","1","0","0","0","0","1","1","1","0","1","0","1","4","3","5","4","4","4","2","5","4","3","4","787033502335111170","何","632","","","","nonmatch","","","","","","","","","","","","","","key","j","16.51872340425511","640","356","j","true","nonmatch","img/trapezoid.png","五边","梯形","ALT1_2","prac_ALT1_2","","","","","","","","","","","",""
"null","<span style='color:GreenYellow; font-size: 70px;'>正确! </span>","null","html-keyboard-response","102","225551","0.0-7.0-1.0-1.0-0.0-1.46","3","4","4","3","3","3","3","4","4","3","4","3","2","4","4","4","5","3","4","4","2","3","3","2","2","1","2","4","1","0","0","1","1","0","0","0","0","1","1","1","0","1","0","1","4","3","5","4","4","4","2","5","4","3","4","787033502335111170","何","632","","","","","","","","","","","","","","","","","","","","","","","","","","","","","","feedback_test","","","","","","","","","","","",""
"578","","f","psychophysics","103","227142","0.0-7.0-1.0-1.0-0.0-0.47","3","4","4","3","3","3","3","4","4","3","4","3","2","4","4","4","5","3","4","4","2","3","3","2","2","1","2","4","1","0","0","1","1","0","0","0","0","1","1","1","0","1","0","1","4","3","5","4","4","4","2","5","4","3","4","787033502335111170","何","632","","","","match","","","","","","","","","","","","","","key","f","16.662765957446993","640","356","f","true","match","img/square.png","方形","方形","ALT1_2","prac_ALT1_2","","","","","","","","","","","",""
"null","<span style='color:GreenYellow; font-size: 70px;'>正确! </span>","null","html-keyboard-response","104","227658","0.0-7.0-1.0-1.0-0.0-1.47","3","4","4","3","3","3","3","4","4","3","4","3","2","4","4","4","5","3","4","4","2","3","3","2","2","1","2","4","1","0","0","1","1","0","0","0","0","1","1","1","0","1","0","1","4","3","5","4","4","4","2","5","4","3","4","787033502335111170","何","632","","","","","","","","","","","","","","","","","","","","","","","","","","","","","","feedback_test","","","","","","","","","","","",""
"5748","<style>.context{color:white; font-size: 35px; line-height:40px}</style>                          <div><p class='context'>您正确回答了75% 的试次。</p><p class='context'>您的平均反应时为650毫秒。</p><p class='context'>恭喜您完成练习。按空格键进入正式实验。</p><p class='footer' style='font-size: 35px; line-height:40px;'>请在进入正式实验实验之前将您的<span style='color: lightgreen;'>食指</span>放在电脑键盘的相应键位上进行按键。</p>"," ","html-keyboard-response","105","233407","0.0-7.0-1.0-2.0","3","4","4","3","3","3","3","4","4","3","4","3","2","4","4","4","5","3","4","4","2","3","3","2","2","1","2","4","1","0","0","1","1","0","0","0","0","1","1","1","0","1","0","1","4","3","5","4","4","4","2","5","4","3","4","787033502335111170","何","632","","","","","","","","","","","","","","","","","","","","","","","","","","","","","","","","","","","","","","","","","",""
"1716","
  <p style='color: white; font-size: 22px'>请您将手指放在按键上，准备进入正式的匹配任务。</p>
  <p> <div style = ""color: green""><按空格键进入下一阶段的匹配任务></div></p>
  "," ","html-keyboard-response","106","235126","0.0-7.0-1.0-3.0","3","4","4","3","3","3","3","4","4","3","4","3","2","4","4","4","5","3","4","4","2","3","3","2","2","1","2","4","1","0","0","1","1","0","0","0","0","1","1","1","0","1","0","1","4","3","5","4","4","4","2","5","4","3","4","787033502335111170","何","632","","","","","","","","","","","","","","","","","","","","","","","","","","","","","","","","","","","","","","","","","",""
"538","","f","psychophysics","107","236674","0.0-7.0-1.0-4.0-0.0-0.0","3","4","4","3","3","3","3","4","4","3","4","3","2","4","4","4","5","3","4","4","2","3","3","2","2","1","2","4","1","0","0","1","1","0","0","0","0","1","1","1","0","1","0","1","4","3","5","4","4","4","2","5","4","3","4","787033502335111170","何","632","","","","match","","","","","","","","","","","","","","key","f","16.66413043478267","640","356","f","true","match","img/circle.png","圆形","圆形","ALT1","formal_ALT1_2","","","","","","","","","","","",""
"null","<span style='color:GreenYellow; font-size: 70px;'>正确! </span>","null","html-keyboard-response","108","237178","0.0-7.0-1.0-4.0-0.0-1.0","3","4","4","3","3","3","3","4","4","3","4","3","2","4","4","4","5","3","4","4","2","3","3","2","2","1","2","4","1","0","0","1","1","0","0","0","0","1","1","1","0","1","0","1","4","3","5","4","4","4","2","5","4","3","4","787033502335111170","何","632","","","","","","","","","","","","","","","","","","","","","","","","","","","","","","feedback_test","","","","","","","","","","","",""
"610","","f","psychophysics","109","238803","0.0-7.0-1.0-4.0-0.0-0.1","3","4","4","3","3","3","3","4","4","3","4","3","2","4","4","4","5","3","4","4","2","3","3","2","2","1","2","4","1","0","0","1","1","0","0","0","0","1","1","1","0","1","0","1","4","3","5","4","4","4","2","5","4","3","4","787033502335111170","何","632","","","","match","","","","","","","","","","","","","","key","f","16.66395833333354","640","356","j","false","nonmatch","img/circle.png","梯形","圆形","ALT1","formal_ALT1_2","","","","","","","","","","","",""
"null","<span style='color:red; font-size: 70px;'>错误! </span>","null","html-keyboard-response","110","239304","0.0-7.0-1.0-4.0-0.0-1.1","3","4","4","3","3","3","3","4","4","3","4","3","2","4","4","4","5","3","4","4","2","3","3","2","2","1","2","4","1","0","0","1","1","0","0","0","0","1","1","1","0","1","0","1","4","3","5","4","4","4","2","5","4","3","4","787033502335111170","何","632","","","","","","","","","","","","","","","","","","","","","","","","","","","","","","feedback_test","","","","","","","","","","","",""
"696","","f","psychophysics","111","241012","0.0-7.0-1.0-4.0-0.0-0.2","3","4","4","3","3","3","3","4","4","3","4","3","2","4","4","4","5","3","4","4","2","3","3","2","2","1","2","4","1","0","0","1","1","0","0","0","0","1","1","1","0","1","0","1","4","3","5","4","4","4","2","5","4","3","4","787033502335111170","何","632","","","","match","","","","","","","","","","","","","","key","f","16.66356435643554","640","356","f","true","match","img/pentagon.png","五边","五边","ALT1","formal_ALT1_2","","","","","","","","","","","",""
"null","<span style='color:GreenYellow; font-size: 70px;'>正确! </span>","null","html-keyboard-response","112","241520","0.0-7.0-1.0-4.0-0.0-1.2","3","4","4","3","3","3","3","4","4","3","4","3","2","4","4","4","5","3","4","4","2","3","3","2","2","1","2","4","1","0","0","1","1","0","0","0","0","1","1","1","0","1","0","1","4","3","5","4","4","4","2","5","4","3","4","787033502335111170","何","632","","","","","","","","","","","","","","","","","","","","","","","","","","","","","","feedback_test","","","","","","","","","","","",""
"641","","f","psychophysics","113","243178","0.0-7.0-1.0-4.0-0.0-0.3","3","4","4","3","3","3","3","4","4","3","4","3","2","4","4","4","5","3","4","4","2","3","3","2","2","1","2","4","1","0","0","1","1","0","0","0","0","1","1","1","0","1","0","1","4","3","5","4","4","4","2","5","4","3","4","787033502335111170","何","632","","","","match","","","","","","","","","","","","","","key","f","16.66408163265293","640","356","f","true","match","img/square.png","方形","方形","ALT1","formal_ALT1_2","","","","","","","","","","","",""
"null","<span style='color:GreenYellow; font-size: 70px;'>正确! </span>","null","html-keyboard-response","114","243683","0.0-7.0-1.0-4.0-0.0-1.3","3","4","4","3","3","3","3","4","4","3","4","3","2","4","4","4","5","3","4","4","2","3","3","2","2","1","2","4","1","0","0","1","1","0","0","0","0","1","1","1","0","1","0","1","4","3","5","4","4","4","2","5","4","3","4","787033502335111170","何","632","","","","","","","","","","","","","","","","","","","","","","","","","","","","","","feedback_test","","","","","","","","","","","",""
"624","","j","psychophysics","115","245310","0.0-7.0-1.0-4.0-0.0-0.4","3","4","4","3","3","3","3","4","4","3","4","3","2","4","4","4","5","3","4","4","2","3","3","2","2","1","2","4","1","0","0","1","1","0","0","0","0","1","1","1","0","1","0","1","4","3","5","4","4","4","2","5","4","3","4","787033502335111170","何","632","","","","nonmatch","","","","","","","","","","","","","","key","j","16.60886597938142","640","356","j","true","nonmatch","img/square.png","圆形","方形","ALT1","formal_ALT1_2","","","","","","","","","","","",""
"null","<span style='color:GreenYellow; font-size: 70px;'>正确! </span>","null","html-keyboard-response","116","245817","0.0-7.0-1.0-4.0-0.0-1.4","3","4","4","3","3","3","3","4","4","3","4","3","2","4","4","4","5","3","4","4","2","3","3","2","2","1","2","4","1","0","0","1","1","0","0","0","0","1","1","1","0","1","0","1","4","3","5","4","4","4","2","5","4","3","4","787033502335111170","何","632","","","","","","","","","","","","","","","","","","","","","","","","","","","","","","feedback_test","","","","","","","","","","","",""
"836","","j","psychophysics","117","247665","0.0-7.0-1.0-4.0-0.0-0.5","3","4","4","3","3","3","3","4","4","3","4","3","2","4","4","4","5","3","4","4","2","3","3","2","2","1","2","4","1","0","0","1","1","0","0","0","0","1","1","1","0","1","0","1","4","3","5","4","4","4","2","5","4","3","4","787033502335111170","何","632","","","","nonmatch","","","","","","","","","","","","","","key","j","16.66254545454523","640","356","j","true","nonmatch","img/trapezoid.png","五边","梯形","ALT1","formal_ALT1_2","","","","","","","","","","","",""
"null","<span style='color:GreenYellow; font-size: 70px;'>正确! </span>","null","html-keyboard-response","118","248177","0.0-7.0-1.0-4.0-0.0-1.5","3","4","4","3","3","3","3","4","4","3","4","3","2","4","4","4","5","3","4","4","2","3","3","2","2","1","2","4","1","0","0","1","1","0","0","0","0","1","1","1","0","1","0","1","4","3","5","4","4","4","2","5","4","3","4","787033502335111170","何","632","","","","","","","","","","","","","","","","","","","","","","","","","","","","","","feedback_test","","","","","","","","","","","",""
"631","","f","psychophysics","119","249823","0.0-7.0-1.0-4.0-0.0-0.6","3","4","4","3","3","3","3","4","4","3","4","3","2","4","4","4","5","3","4","4","2","3","3","2","2","1","2","4","1","0","0","1","1","0","0","0","0","1","1","1","0","1","0","1","4","3","5","4","4","4","2","5","4","3","4","787033502335111170","何","632","","","","match","","","","","","","","","","","","","","key","f","16.664285714285775","640","356","f","true","match","img/square.png","方形","方形","ALT1","formal_ALT1_2","","","","","","","","","","","",""
"null","<span style='color:GreenYellow; font-size: 70px;'>正确! </span>","null","html-keyboard-response","120","250379","0.0-7.0-1.0-4.0-0.0-1.6","3","4","4","3","3","3","3","4","4","3","4","3","2","4","4","4","5","3","4","4","2","3","3","2","2","1","2","4","1","0","0","1","1","0","0","0","0","1","1","1","0","1","0","1","4","3","5","4","4","4","2","5","4","3","4","787033502335111170","何","632","","","","","","","","","","","","","","","","","","","","","","","","","","","","","","feedback_test","","","","","","","","","","","",""
"633","","f","psychophysics","121","252031","0.0-7.0-1.0-4.0-0.0-0.7","3","4","4","3","3","3","3","4","4","3","4","3","2","4","4","4","5","3","4","4","2","3","3","2","2","1","2","4","1","0","0","1","1","0","0","0","0","1","1","1","0","1","0","1","4","3","5","4","4","4","2","5","4","3","4","787033502335111170","何","632","","","","match","","","","","","","","","","","","","","key","f","16.651836734693926","640","356","f","true","match","img/pentagon.png","五边","五边","ALT1","formal_ALT1_2","","","","","","","","","","","",""
"null","<span style='color:GreenYellow; font-size: 70px;'>正确! </span>","null","html-keyboard-response","122","252534","0.0-7.0-1.0-4.0-0.0-1.7","3","4","4","3","3","3","3","4","4","3","4","3","2","4","4","4","5","3","4","4","2","3","3","2","2","1","2","4","1","0","0","1","1","0","0","0","0","1","1","1","0","1","0","1","4","3","5","4","4","4","2","5","4","3","4","787033502335111170","何","632","","","","","","","","","","","","","","","","","","","","","","","","","","","","","","feedback_test","","","","","","","","","","","",""
"565","","j","psychophysics","123","254112","0.0-7.0-1.0-4.0-0.0-0.8","3","4","4","3","3","3","3","4","4","3","4","3","2","4","4","4","5","3","4","4","2","3","3","2","2","1","2","4","1","0","0","1","1","0","0","0","0","1","1","1","0","1","0","1","4","3","5","4","4","4","2","5","4","3","4","787033502335111170","何","632","","","","nonmatch","","","","","","","","","","","","","","key","j","16.664301075268806","640","356","j","true","nonmatch","img/trapezoid.png","圆形","梯形","ALT1","formal_ALT1_2","","","","","","","","","","","",""
"null","<span style='color:GreenYellow; font-size: 70px;'>正确! </span>","null","html-keyboard-response","124","254613","0.0-7.0-1.0-4.0-0.0-1.8","3","4","4","3","3","3","3","4","4","3","4","3","2","4","4","4","5","3","4","4","2","3","3","2","2","1","2","4","1","0","0","1","1","0","0","0","0","1","1","1","0","1","0","1","4","3","5","4","4","4","2","5","4","3","4","787033502335111170","何","632","","","","","","","","","","","","","","","","","","","","","","","","","","","","","","feedback_test","","","","","","","","","","","",""
"814","","f","psychophysics","125","256431","0.0-7.0-1.0-4.0-0.0-0.9","3","4","4","3","3","3","3","4","4","3","4","3","2","4","4","4","5","3","4","4","2","3","3","2","2","1","2","4","1","0","0","1","1","0","0","0","0","1","1","1","0","1","0","1","4","3","5","4","4","4","2","5","4","3","4","787033502335111170","何","632","","","","match","","","","","","","","","","","","","","key","f","16.626788990825485","640","356","f","true","match","img/trapezoid.png","梯形","梯形","ALT1","formal_ALT1_2","","","","","","","","","","","",""
"null","<span style='color:GreenYellow; font-size: 70px;'>正确! </span>","null","html-keyboard-response","126","256944","0.0-7.0-1.0-4.0-0.0-1.9","3","4","4","3","3","3","3","4","4","3","4","3","2","4","4","4","5","3","4","4","2","3","3","2","2","1","2","4","1","0","0","1","1","0","0","0","0","1","1","1","0","1","0","1","4","3","5","4","4","4","2","5","4","3","4","787033502335111170","何","632","","","","","","","","","","","","","","","","","","","","","","","","","","","","","","feedback_test","","","","","","","","","","","",""
"822","","j","psychophysics","127","258769","0.0-7.0-1.0-4.0-0.0-0.10","3","4","4","3","3","3","3","4","4","3","4","3","2","4","4","4","5","3","4","4","2","3","3","2","2","1","2","4","1","0","0","1","1","0","0","0","0","1","1","1","0","1","0","1","4","3","5","4","4","4","2","5","4","3","4","787033502335111170","何","632","","","","nonmatch","","","","","","","","","","","","","","key","j","16.6444444444445","640","356","j","true","nonmatch","img/pentagon.png","梯形","五边","ALT1","formal_ALT1_2","","","","","","","","","","","",""
"null","<span style='color:GreenYellow; font-size: 70px;'>正确! </span>","null","html-keyboard-response","128","259280","0.0-7.0-1.0-4.0-0.0-1.10","3","4","4","3","3","3","3","4","4","3","4","3","2","4","4","4","5","3","4","4","2","3","3","2","2","1","2","4","1","0","0","1","1","0","0","0","0","1","1","1","0","1","0","1","4","3","5","4","4","4","2","5","4","3","4","787033502335111170","何","632","","","","","","","","","","","","","","","","","","","","","","","","","","","","","","feedback_test","","","","","","","","","","","",""
"621","","j","psychophysics","129","260903","0.0-7.0-1.0-4.0-0.0-0.11","3","4","4","3","3","3","3","4","4","3","4","3","2","4","4","4","5","3","4","4","2","3","3","2","2","1","2","4","1","0","0","1","1","0","0","0","0","1","1","1","0","1","0","1","4","3","5","4","4","4","2","5","4","3","4","787033502335111170","何","632","","","","nonmatch","","","","","","","","","","","","","","key","j","16.616701030927906","640","356","j","true","nonmatch","img/square.png","五边","方形","ALT1","formal_ALT1_2","","","","","","","","","","","",""
"null","<span style='color:GreenYellow; font-size: 70px;'>正确! </span>","null","html-keyboard-response","130","261415","0.0-7.0-1.0-4.0-0.0-1.11","3","4","4","3","3","3","3","4","4","3","4","3","2","4","4","4","5","3","4","4","2","3","3","2","2","1","2","4","1","0","0","1","1","0","0","0","0","1","1","1","0","1","0","1","4","3","5","4","4","4","2","5","4","3","4","787033502335111170","何","632","","","","","","","","","","","","","","","","","","","","","","","","","","","","","","feedback_test","","","","","","","","","","","",""
"413","","f","psychophysics","131","262843","0.0-7.0-1.0-4.0-0.0-0.12","3","4","4","3","3","3","3","4","4","3","4","3","2","4","4","4","5","3","4","4","2","3","3","2","2","1","2","4","1","0","0","1","1","0","0","0","0","1","1","1","0","1","0","1","4","3","5","4","4","4","2","5","4","3","4","787033502335111170","何","632","","","","match","","","","","","","","","","","","","","key","f","16.664285714285576","640","356","f","true","match","img/circle.png","圆形","圆形","ALT1","formal_ALT1_2","","","","","","","","","","","",""
"null","<span style='color:GreenYellow; font-size: 70px;'>正确! </span>","null","html-keyboard-response","132","263351","0.0-7.0-1.0-4.0-0.0-1.12","3","4","4","3","3","3","3","4","4","3","4","3","2","4","4","4","5","3","4","4","2","3","3","2","2","1","2","4","1","0","0","1","1","0","0","0","0","1","1","1","0","1","0","1","4","3","5","4","4","4","2","5","4","3","4","787033502335111170","何","632","","","","","","","","","","","","","","","","","","","","","","","","","","","","","","feedback_test","","","","","","","","","","","",""
"572","","j","psychophysics","133","264925","0.0-7.0-1.0-4.0-0.0-0.13","3","4","4","3","3","3","3","4","4","3","4","3","2","4","4","4","5","3","4","4","2","3","3","2","2","1","2","4","1","0","0","1","1","0","0","0","0","1","1","1","0","1","0","1","4","3","5","4","4","4","2","5","4","3","4","787033502335111170","何","632","","","","nonmatch","","","","","","","","","","","","","","key","j","16.56255319148941","640","356","j","true","nonmatch","img/square.png","梯形","方形","ALT1","formal_ALT1_2","","","","","","","","","","","",""
"null","<span style='color:GreenYellow; font-size: 70px;'>正确! </span>","null","html-keyboard-response","134","265441","0.0-7.0-1.0-4.0-0.0-1.13","3","4","4","3","3","3","3","4","4","3","4","3","2","4","4","4","5","3","4","4","2","3","3","2","2","1","2","4","1","0","0","1","1","0","0","0","0","1","1","1","0","1","0","1","4","3","5","4","4","4","2","5","4","3","4","787033502335111170","何","632","","","","","","","","","","","","","","","","","","","","","","","","","","","","","","feedback_test","","","","","","","","","","","",""
"506","","j","psychophysics","135","266964","0.0-7.0-1.0-4.0-0.0-0.14","3","4","4","3","3","3","3","4","4","3","4","3","2","4","4","4","5","3","4","4","2","3","3","2","2","1","2","4","1","0","0","1","1","0","0","0","0","1","1","1","0","1","0","1","4","3","5","4","4","4","2","5","4","3","4","787033502335111170","何","632","","","","nonmatch","","","","","","","","","","","","","","key","j","16.664222222222534","640","356","j","true","nonmatch","img/trapezoid.png","方形","梯形","ALT1","formal_ALT1_2","","","","","","","","","","","",""
"null","<span style='color:GreenYellow; font-size: 70px;'>正确! </span>","null","html-keyboard-response","136","267477","0.0-7.0-1.0-4.0-0.0-1.14","3","4","4","3","3","3","3","4","4","3","4","3","2","4","4","4","5","3","4","4","2","3","3","2","2","1","2","4","1","0","0","1","1","0","0","0","0","1","1","1","0","1","0","1","4","3","5","4","4","4","2","5","4","3","4","787033502335111170","何","632","","","","","","","","","","","","","","","","","","","","","","","","","","","","","","feedback_test","","","","","","","","","","","",""
"627","","j","psychophysics","137","269119","0.0-7.0-1.0-4.0-0.0-0.15","3","4","4","3","3","3","3","4","4","3","4","3","2","4","4","4","5","3","4","4","2","3","3","2","2","1","2","4","1","0","0","1","1","0","0","0","0","1","1","1","0","1","0","1","4","3","5","4","4","4","2","5","4","3","4","787033502335111170","何","632","","","","nonmatch","","","","","","","","","","","","","","key","j","16.663917525772835","640","356","j","true","nonmatch","img/circle.png","五边","圆形","ALT1","formal_ALT1_2","","","","","","","","","","","",""
"null","<span style='color:GreenYellow; font-size: 70px;'>正确! </span>","null","html-keyboard-response","138","269620","0.0-7.0-1.0-4.0-0.0-1.15","3","4","4","3","3","3","3","4","4","3","4","3","2","4","4","4","5","3","4","4","2","3","3","2","2","1","2","4","1","0","0","1","1","0","0","0","0","1","1","1","0","1","0","1","4","3","5","4","4","4","2","5","4","3","4","787033502335111170","何","632","","","","","","","","","","","","","","","","","","","","","","","","","","","","","","feedback_test","","","","","","","","","","","",""
"677","","f","psychophysics","139","271404","0.0-7.0-1.0-4.0-0.0-0.16","3","4","4","3","3","3","3","4","4","3","4","3","2","4","4","4","5","3","4","4","2","3","3","2","2","1","2","4","1","0","0","1","1","0","0","0","0","1","1","1","0","1","0","1","4","3","5","4","4","4","2","5","4","3","4","787033502335111170","何","632","","","","match","","","","","","","","","","","","","","key","f","16.664150943396447","640","356","j","false","nonmatch","img/pentagon.png","方形","五边","ALT1","formal_ALT1_2","","","","","","","","","","","",""
"null","<span style='color:red; font-size: 70px;'>错误! </span>","null","html-keyboard-response","140","271914","0.0-7.0-1.0-4.0-0.0-1.16","3","4","4","3","3","3","3","4","4","3","4","3","2","4","4","4","5","3","4","4","2","3","3","2","2","1","2","4","1","0","0","1","1","0","0","0","0","1","1","1","0","1","0","1","4","3","5","4","4","4","2","5","4","3","4","787033502335111170","何","632","","","","","","","","","","","","","","","","","","","","","","","","","","","","","","feedback_test","","","","","","","","","","","",""
"757","","j","psychophysics","141","273684","0.0-7.0-1.0-4.0-0.0-0.17","3","4","4","3","3","3","3","4","4","3","4","3","2","4","4","4","5","3","4","4","2","3","3","2","2","1","2","4","1","0","0","1","1","0","0","0","0","1","1","1","0","1","0","1","4","3","5","4","4","4","2","5","4","3","4","787033502335111170","何","632","","","","nonmatch","","","","","","","","","","","","","","key","j","16.663999999999735","640","356","j","true","nonmatch","img/circle.png","方形","圆形","ALT1","formal_ALT1_2","","","","","","","","","","","",""
"null","<span style='color:GreenYellow; font-size: 70px;'>正确! </span>","null","html-keyboard-response","142","274196","0.0-7.0-1.0-4.0-0.0-1.17","3","4","4","3","3","3","3","4","4","3","4","3","2","4","4","4","5","3","4","4","2","3","3","2","2","1","2","4","1","0","0","1","1","0","0","0","0","1","1","1","0","1","0","1","4","3","5","4","4","4","2","5","4","3","4","787033502335111170","何","632","","","","","","","","","","","","","","","","","","","","","","","","","","","","","","feedback_test","","","","","","","","","","","",""
"608","","j","psychophysics","143","275807","0.0-7.0-1.0-4.0-0.0-0.18","3","4","4","3","3","3","3","4","4","3","4","3","2","4","4","4","5","3","4","4","2","3","3","2","2","1","2","4","1","0","0","1","1","0","0","0","0","1","1","1","0","1","0","1","4","3","5","4","4","4","2","5","4","3","4","787033502335111170","何","632","","","","nonmatch","","","","","","","","","","","","","","key","j","16.6625263157895","640","356","j","true","nonmatch","img/pentagon.png","圆形","五边","ALT1","formal_ALT1_2","","","","","","","","","","","",""
"null","<span style='color:GreenYellow; font-size: 70px;'>正确! </span>","null","html-keyboard-response","144","276319","0.0-7.0-1.0-4.0-0.0-1.18","3","4","4","3","3","3","3","4","4","3","4","3","2","4","4","4","5","3","4","4","2","3","3","2","2","1","2","4","1","0","0","1","1","0","0","0","0","1","1","1","0","1","0","1","4","3","5","4","4","4","2","5","4","3","4","787033502335111170","何","632","","","","","","","","","","","","","","","","","","","","","","","","","","","","","","feedback_test","","","","","","","","","","","",""
"709","","f","psychophysics","145","278042","0.0-7.0-1.0-4.0-0.0-0.19","3","4","4","3","3","3","3","4","4","3","4","3","2","4","4","4","5","3","4","4","2","3","3","2","2","1","2","4","1","0","0","1","1","0","0","0","0","1","1","1","0","1","0","1","4","3","5","4","4","4","2","5","4","3","4","787033502335111170","何","632","","","","match","","","","","","","","","","","","","","key","f","16.539029126213773","640","356","f","true","match","img/square.png","方形","方形","ALT1","formal_ALT1_2","","","","","","","","","","","",""
"null","<span style='color:GreenYellow; font-size: 70px;'>正确! </span>","null","html-keyboard-response","146","278581","0.0-7.0-1.0-4.0-0.0-1.19","3","4","4","3","3","3","3","4","4","3","4","3","2","4","4","4","5","3","4","4","2","3","3","2","2","1","2","4","1","0","0","1","1","0","0","0","0","1","1","1","0","1","0","1","4","3","5","4","4","4","2","5","4","3","4","787033502335111170","何","632","","","","","","","","","","","","","","","","","","","","","","","","","","","","","","feedback_test","","","","","","","","","","","",""
"588","","f","psychophysics","147","280184","0.0-7.0-1.0-4.0-0.0-0.20","3","4","4","3","3","3","3","4","4","3","4","3","2","4","4","4","5","3","4","4","2","3","3","2","2","1","2","4","1","0","0","1","1","0","0","0","0","1","1","1","0","1","0","1","4","3","5","4","4","4","2","5","4","3","4","787033502335111170","何","632","","","","match","","","","","","","","","","","","","","key","f","16.664000000000172","640","356","f","true","match","img/circle.png","圆形","圆形","ALT1","formal_ALT1_2","","","","","","","","","","","",""
"null","<span style='color:GreenYellow; font-size: 70px;'>正确! </span>","null","html-keyboard-response","148","280693","0.0-7.0-1.0-4.0-0.0-1.20","3","4","4","3","3","3","3","4","4","3","4","3","2","4","4","4","5","3","4","4","2","3","3","2","2","1","2","4","1","0","0","1","1","0","0","0","0","1","1","1","0","1","0","1","4","3","5","4","4","4","2","5","4","3","4","787033502335111170","何","632","","","","","","","","","","","","","","","","","","","","","","","","","","","","","","feedback_test","","","","","","","","","","","",""
"798","","f","psychophysics","149","282495","0.0-7.0-1.0-4.0-0.0-0.21","3","4","4","3","3","3","3","4","4","3","4","3","2","4","4","4","5","3","4","4","2","3","3","2","2","1","2","4","1","0","0","1","1","0","0","0","0","1","1","1","0","1","0","1","4","3","5","4","4","4","2","5","4","3","4","787033502335111170","何","632","","","","match","","","","","","","","","","","","","","key","f","16.66355140186916","640","356","f","true","match","img/trapezoid.png","梯形","梯形","ALT1","formal_ALT1_2","","","","","","","","","","","",""
"null","<span style='color:GreenYellow; font-size: 70px;'>正确! </span>","null","html-keyboard-response","150","283006","0.0-7.0-1.0-4.0-0.0-1.21","3","4","4","3","3","3","3","4","4","3","4","3","2","4","4","4","5","3","4","4","2","3","3","2","2","1","2","4","1","0","0","1","1","0","0","0","0","1","1","1","0","1","0","1","4","3","5","4","4","4","2","5","4","3","4","787033502335111170","何","632","","","","","","","","","","","","","","","","","","","","","","","","","","","","","","feedback_test","","","","","","","","","","","",""
"744","","f","psychophysics","151","284762","0.0-7.0-1.0-4.0-0.0-0.22","3","4","4","3","3","3","3","4","4","3","4","3","2","4","4","4","5","3","4","4","2","3","3","2","2","1","2","4","1","0","0","1","1","0","0","0","0","1","1","1","0","1","0","1","4","3","5","4","4","4","2","5","4","3","4","787033502335111170","何","632","","","","match","","","","","","","","","","","","","","key","f","16.663809523809636","640","356","f","true","match","img/pentagon.png","五边","五边","ALT1","formal_ALT1_2","","","","","","","","","","","",""
"null","<span style='color:GreenYellow; font-size: 70px;'>正确! </span>","null","html-keyboard-response","152","285270","0.0-7.0-1.0-4.0-0.0-1.22","3","4","4","3","3","3","3","4","4","3","4","3","2","4","4","4","5","3","4","4","2","3","3","2","2","1","2","4","1","0","0","1","1","0","0","0","0","1","1","1","0","1","0","1","4","3","5","4","4","4","2","5","4","3","4","787033502335111170","何","632","","","","","","","","","","","","","","","","","","","","","","","","","","","","","","feedback_test","","","","","","","","","","","",""
"502","","j","psychophysics","153","286786","0.0-7.0-1.0-4.0-0.0-0.23","3","4","4","3","3","3","3","4","4","3","4","3","2","4","4","4","5","3","4","4","2","3","3","2","2","1","2","4","1","0","0","1","1","0","0","0","0","1","1","1","0","1","0","1","4","3","5","4","4","4","2","5","4","3","4","787033502335111170","何","632","","","","nonmatch","","","","","","","","","","","","","","key","j","16.663333333333462","640","356","f","false","match","img/trapezoid.png","梯形","梯形","ALT1","formal_ALT1_2","","","","","","","","","","","",""
"null","<span style='color:red; font-size: 70px;'>错误! </span>","null","html-keyboard-response","154","287298","0.0-7.0-1.0-4.0-0.0-1.23","3","4","4","3","3","3","3","4","4","3","4","3","2","4","4","4","5","3","4","4","2","3","3","2","2","1","2","4","1","0","0","1","1","0","0","0","0","1","1","1","0","1","0","1","4","3","5","4","4","4","2","5","4","3","4","787033502335111170","何","632","","","","","","","","","","","","","","","","","","","","","","","","","","","","","","feedback_test","","","","","","","","","","","",""
"618","","j","psychophysics","155","288931","0.0-7.0-1.0-4.0-0.0-0.24","3","4","4","3","3","3","3","4","4","3","4","3","2","4","4","4","5","3","4","4","2","3","3","2","2","1","2","4","1","0","0","1","1","0","0","0","0","1","1","1","0","1","0","1","4","3","5","4","4","4","2","5","4","3","4","787033502335111170","何","632","","","","nonmatch","","","","","","","","","","","","","","key","j","16.66432989690724","640","356","j","true","nonmatch","img/trapezoid.png","五边","梯形","ALT1","formal_ALT1_2","","","","","","","","","","","",""
"null","<span style='color:GreenYellow; font-size: 70px;'>正确! </span>","null","html-keyboard-response","156","289440","0.0-7.0-1.0-4.0-0.0-1.24","3","4","4","3","3","3","3","4","4","3","4","3","2","4","4","4","5","3","4","4","2","3","3","2","2","1","2","4","1","0","0","1","1","0","0","0","0","1","1","1","0","1","0","1","4","3","5","4","4","4","2","5","4","3","4","787033502335111170","何","632","","","","","","","","","","","","","","","","","","","","","","","","","","","","","","feedback_test","","","","","","","","","","","",""
"846","","j","psychophysics","157","291300","0.0-7.0-1.0-4.0-0.0-0.25","3","4","4","3","3","3","3","4","4","3","4","3","2","4","4","4","5","3","4","4","2","3","3","2","2","1","2","4","1","0","0","1","1","0","0","0","0","1","1","1","0","1","0","1","4","3","5","4","4","4","2","5","4","3","4","787033502335111170","何","632","","","","nonmatch","","","","","","","","","","","","","","key","j","16.66381818181782","640","356","j","true","nonmatch","img/circle.png","方形","圆形","ALT1","formal_ALT1_2","","","","","","","","","","","",""
"null","<span style='color:GreenYellow; font-size: 70px;'>正确! </span>","null","html-keyboard-response","158","291812","0.0-7.0-1.0-4.0-0.0-1.25","3","4","4","3","3","3","3","4","4","3","4","3","2","4","4","4","5","3","4","4","2","3","3","2","2","1","2","4","1","0","0","1","1","0","0","0","0","1","1","1","0","1","0","1","4","3","5","4","4","4","2","5","4","3","4","787033502335111170","何","632","","","","","","","","","","","","","","","","","","","","","","","","","","","","","","feedback_test","","","","","","","","","","","",""
"591","","f","psychophysics","159","293527","0.0-7.0-1.0-4.0-0.0-0.26","3","4","4","3","3","3","3","4","4","3","4","3","2","4","4","4","5","3","4","4","2","3","3","2","2","1","2","4","1","0","0","1","1","0","0","0","0","1","1","1","0","1","0","1","4","3","5","4","4","4","2","5","4","3","4","787033502335111170","何","632","","","","match","","","","","","","","","","","","","","key","f","16.66333333333308","640","356","f","true","match","img/pentagon.png","五边","五边","ALT1","formal_ALT1_2","","","","","","","","","","","",""
"null","<span style='color:GreenYellow; font-size: 70px;'>正确! </span>","null","html-keyboard-response","160","294040","0.0-7.0-1.0-4.0-0.0-1.26","3","4","4","3","3","3","3","4","4","3","4","3","2","4","4","4","5","3","4","4","2","3","3","2","2","1","2","4","1","0","0","1","1","0","0","0","0","1","1","1","0","1","0","1","4","3","5","4","4","4","2","5","4","3","4","787033502335111170","何","632","","","","","","","","","","","","","","","","","","","","","","","","","","","","","","feedback_test","","","","","","","","","","","",""
"665","","j","psychophysics","161","295707","0.0-7.0-1.0-4.0-0.0-0.27","3","4","4","3","3","3","3","4","4","3","4","3","2","4","4","4","5","3","4","4","2","3","3","2","2","1","2","4","1","0","0","1","1","0","0","0","0","1","1","1","0","1","0","1","4","3","5","4","4","4","2","5","4","3","4","787033502335111170","何","632","","","","nonmatch","","","","","","","","","","","","","","key","j","16.6630612244902","640","356","j","true","nonmatch","img/circle.png","梯形","圆形","ALT1","formal_ALT1_2","","","","","","","","","","","",""
"null","<span style='color:GreenYellow; font-size: 70px;'>正确! </span>","null","html-keyboard-response","162","296213","0.0-7.0-1.0-4.0-0.0-1.27","3","4","4","3","3","3","3","4","4","3","4","3","2","4","4","4","5","3","4","4","2","3","3","2","2","1","2","4","1","0","0","1","1","0","0","0","0","1","1","1","0","1","0","1","4","3","5","4","4","4","2","5","4","3","4","787033502335111170","何","632","","","","","","","","","","","","","","","","","","","","","","","","","","","","","","feedback_test","","","","","","","","","","","",""
"792","","f","psychophysics","163","298018","0.0-7.0-1.0-4.0-0.0-0.28","3","4","4","3","3","3","3","4","4","3","4","3","2","4","4","4","5","3","4","4","2","3","3","2","2","1","2","4","1","0","0","1","1","0","0","0","0","1","1","1","0","1","0","1","4","3","5","4","4","4","2","5","4","3","4","787033502335111170","何","632","","","","match","","","","","","","","","","","","","","key","f","16.66411214953323","640","356","f","true","match","img/trapezoid.png","梯形","梯形","ALT1","formal_ALT1_2","","","","","","","","","","","",""
"null","<span style='color:GreenYellow; font-size: 70px;'>正确! </span>","null","html-keyboard-response","164","298523","0.0-7.0-1.0-4.0-0.0-1.28","3","4","4","3","3","3","3","4","4","3","4","3","2","4","4","4","5","3","4","4","2","3","3","2","2","1","2","4","1","0","0","1","1","0","0","0","0","1","1","1","0","1","0","1","4","3","5","4","4","4","2","5","4","3","4","787033502335111170","何","632","","","","","","","","","","","","","","","","","","","","","","","","","","","","","","feedback_test","","","","","","","","","","","",""
"561","","j","psychophysics","165","300113","0.0-7.0-1.0-4.0-0.0-0.29","3","4","4","3","3","3","3","4","4","3","4","3","2","4","4","4","5","3","4","4","2","3","3","2","2","1","2","4","1","0","0","1","1","0","0","0","0","1","1","1","0","1","0","1","4","3","5","4","4","4","2","5","4","3","4","787033502335111170","何","632","","","","nonmatch","","","","","","","","","","","","","","key","j","16.664042553191315","640","356","j","true","nonmatch","img/trapezoid.png","圆形","梯形","ALT1","formal_ALT1_2","","","","","","","","","","","",""
"null","<span style='color:GreenYellow; font-size: 70px;'>正确! </span>","null","html-keyboard-response","166","300620","0.0-7.0-1.0-4.0-0.0-1.29","3","4","4","3","3","3","3","4","4","3","4","3","2","4","4","4","5","3","4","4","2","3","3","2","2","1","2","4","1","0","0","1","1","0","0","0","0","1","1","1","0","1","0","1","4","3","5","4","4","4","2","5","4","3","4","787033502335111170","何","632","","","","","","","","","","","","","","","","","","","","","","","","","","","","","","feedback_test","","","","","","","","","","","",""
"767","","f","psychophysics","167","302396","0.0-7.0-1.0-4.0-0.0-0.30","3","4","4","3","3","3","3","4","4","3","4","3","2","4","4","4","5","3","4","4","2","3","3","2","2","1","2","4","1","0","0","1","1","0","0","0","0","1","1","1","0","1","0","1","4","3","5","4","4","4","2","5","4","3","4","787033502335111170","何","632","","","","match","","","","","","","","","","","","","","key","f","16.664190476190388","640","356","f","true","match","img/trapezoid.png","梯形","梯形","ALT1","formal_ALT1_2","","","","","","","","","","","",""
"null","<span style='color:GreenYellow; font-size: 70px;'>正确! </span>","null","html-keyboard-response","168","302907","0.0-7.0-1.0-4.0-0.0-1.30","3","4","4","3","3","3","3","4","4","3","4","3","2","4","4","4","5","3","4","4","2","3","3","2","2","1","2","4","1","0","0","1","1","0","0","0","0","1","1","1","0","1","0","1","4","3","5","4","4","4","2","5","4","3","4","787033502335111170","何","632","","","","","","","","","","","","","","","","","","","","","","","","","","","","","","feedback_test","","","","","","","","","","","",""
"657","","f","psychophysics","169","304575","0.0-7.0-1.0-4.0-0.0-0.31","3","4","4","3","3","3","3","4","4","3","4","3","2","4","4","4","5","3","4","4","2","3","3","2","2","1","2","4","1","0","0","1","1","0","0","0","0","1","1","1","0","1","0","1","4","3","5","4","4","4","2","5","4","3","4","787033502335111170","何","632","","","","match","","","","","","","","","","","","","","key","f","16.656767676767863","640","356","f","true","match","img/square.png","方形","方形","ALT1","formal_ALT1_2","","","","","","","","","","","",""
"null","<span style='color:GreenYellow; font-size: 70px;'>正确! </span>","null","html-keyboard-response","170","305091","0.0-7.0-1.0-4.0-0.0-1.31","3","4","4","3","3","3","3","4","4","3","4","3","2","4","4","4","5","3","4","4","2","3","3","2","2","1","2","4","1","0","0","1","1","0","0","0","0","1","1","1","0","1","0","1","4","3","5","4","4","4","2","5","4","3","4","787033502335111170","何","632","","","","","","","","","","","","","","","","","","","","","","","","","","","","","","feedback_test","","","","","","","","","","","",""
"632","","j","psychophysics","171","306799","0.0-7.0-1.0-4.0-0.0-0.32","3","4","4","3","3","3","3","4","4","3","4","3","2","4","4","4","5","3","4","4","2","3","3","2","2","1","2","4","1","0","0","1","1","0","0","0","0","1","1","1","0","1","0","1","4","3","5","4","4","4","2","5","4","3","4","787033502335111170","何","632","","","","nonmatch","","","","","","","","","","","","","","key","j","16.662970297029336","640","356","j","true","nonmatch","img/pentagon.png","方形","五边","ALT1","formal_ALT1_2","","","","","","","","","","","",""
"null","<span style='color:GreenYellow; font-size: 70px;'>正确! </span>","null","html-keyboard-response","172","307307","0.0-7.0-1.0-4.0-0.0-1.32","3","4","4","3","3","3","3","4","4","3","4","3","2","4","4","4","5","3","4","4","2","3","3","2","2","1","2","4","1","0","0","1","1","0","0","0","0","1","1","1","0","1","0","1","4","3","5","4","4","4","2","5","4","3","4","787033502335111170","何","632","","","","","","","","","","","","","","","","","","","","","","","","","","","","","","feedback_test","","","","","","","","","","","",""
"485","","j","psychophysics","173","308810","0.0-7.0-1.0-4.0-0.0-0.33","3","4","4","3","3","3","3","4","4","3","4","3","2","4","4","4","5","3","4","4","2","3","3","2","2","1","2","4","1","0","0","1","1","0","0","0","0","1","1","1","0","1","0","1","4","3","5","4","4","4","2","5","4","3","4","787033502335111170","何","632","","","","nonmatch","","","","","","","","","","","","","","key","j","16.663820224719284","640","356","j","true","nonmatch","img/square.png","圆形","方形","ALT1","formal_ALT1_2","","","","","","","","","","","",""
"null","<span style='color:GreenYellow; font-size: 70px;'>正确! </span>","null","html-keyboard-response","174","309324","0.0-7.0-1.0-4.0-0.0-1.33","3","4","4","3","3","3","3","4","4","3","4","3","2","4","4","4","5","3","4","4","2","3","3","2","2","1","2","4","1","0","0","1","1","0","0","0","0","1","1","1","0","1","0","1","4","3","5","4","4","4","2","5","4","3","4","787033502335111170","何","632","","","","","","","","","","","","","","","","","","","","","","","","","","","","","","feedback_test","","","","","","","","","","","",""
"610","","f","psychophysics","175","310947","0.0-7.0-1.0-4.0-0.0-0.34","3","4","4","3","3","3","3","4","4","3","4","3","2","4","4","4","5","3","4","4","2","3","3","2","2","1","2","4","1","0","0","1","1","0","0","0","0","1","1","1","0","1","0","1","4","3","5","4","4","4","2","5","4","3","4","787033502335111170","何","632","","","","match","","","","","","","","","","","","","","key","f","16.661249999999807","640","356","f","true","match","img/circle.png","圆形","圆形","ALT1","formal_ALT1_2","","","","","","","","","","","",""
"null","<span style='color:GreenYellow; font-size: 70px;'>正确! </span>","null","html-keyboard-response","176","311460","0.0-7.0-1.0-4.0-0.0-1.34","3","4","4","3","3","3","3","4","4","3","4","3","2","4","4","4","5","3","4","4","2","3","3","2","2","1","2","4","1","0","0","1","1","0","0","0","0","1","1","1","0","1","0","1","4","3","5","4","4","4","2","5","4","3","4","787033502335111170","何","632","","","","","","","","","","","","","","","","","","","","","","","","","","","","","","feedback_test","","","","","","","","","","","",""
"720","","j","psychophysics","177","313194","0.0-7.0-1.0-4.0-0.0-0.35","3","4","4","3","3","3","3","4","4","3","4","3","2","4","4","4","5","3","4","4","2","3","3","2","2","1","2","4","1","0","0","1","1","0","0","0","0","1","1","1","0","1","0","1","4","3","5","4","4","4","2","5","4","3","4","787033502335111170","何","632","","","","nonmatch","","","","","","","","","","","","","","key","j","16.663689320388215","640","356","j","true","nonmatch","img/pentagon.png","梯形","五边","ALT1","formal_ALT1_2","","","","","","","","","","","",""
"null","<span style='color:GreenYellow; font-size: 70px;'>正确! </span>","null","html-keyboard-response","178","313701","0.0-7.0-1.0-4.0-0.0-1.35","3","4","4","3","3","3","3","4","4","3","4","3","2","4","4","4","5","3","4","4","2","3","3","2","2","1","2","4","1","0","0","1","1","0","0","0","0","1","1","1","0","1","0","1","4","3","5","4","4","4","2","5","4","3","4","787033502335111170","何","632","","","","","","","","","","","","","","","","","","","","","","","","","","","","","","feedback_test","","","","","","","","","","","",""
"848","","f","psychophysics","179","315553","0.0-7.0-1.0-4.0-0.0-0.36","3","4","4","3","3","3","3","4","4","3","4","3","2","4","4","4","5","3","4","4","2","3","3","2","2","1","2","4","1","0","0","1","1","0","0","0","0","1","1","1","0","1","0","1","4","3","5","4","4","4","2","5","4","3","4","787033502335111170","何","632","","","","match","","","","","","","","","","","","","","key","f","16.663454545454375","640","356","f","true","match","img/pentagon.png","五边","五边","ALT1","formal_ALT1_2","","","","","","","","","","","",""
"null","<span style='color:GreenYellow; font-size: 70px;'>正确! </span>","null","html-keyboard-response","180","316058","0.0-7.0-1.0-4.0-0.0-1.36","3","4","4","3","3","3","3","4","4","3","4","3","2","4","4","4","5","3","4","4","2","3","3","2","2","1","2","4","1","0","0","1","1","0","0","0","0","1","1","1","0","1","0","1","4","3","5","4","4","4","2","5","4","3","4","787033502335111170","何","632","","","","","","","","","","","","","","","","","","","","","","","","","","","","","","feedback_test","","","","","","","","","","","",""
"610","","j","psychophysics","181","317685","0.0-7.0-1.0-4.0-0.0-0.37","3","4","4","3","3","3","3","4","4","3","4","3","2","4","4","4","5","3","4","4","2","3","3","2","2","1","2","4","1","0","0","1","1","0","0","0","0","1","1","1","0","1","0","1","4","3","5","4","4","4","2","5","4","3","4","787033502335111170","何","632","","","","nonmatch","","","","","","","","","","","","","","key","j","16.662500000000364","640","356","f","false","match","img/square.png","方形","方形","ALT1","formal_ALT1_2","","","","","","","","","","","",""
"null","<span style='color:red; font-size: 70px;'>错误! </span>","null","html-keyboard-response","182","318197","0.0-7.0-1.0-4.0-0.0-1.37","3","4","4","3","3","3","3","4","4","3","4","3","2","4","4","4","5","3","4","4","2","3","3","2","2","1","2","4","1","0","0","1","1","0","0","0","0","1","1","1","0","1","0","1","4","3","5","4","4","4","2","5","4","3","4","787033502335111170","何","632","","","","","","","","","","","","","","","","","","","","","","","","","","","","","","feedback_test","","","","","","","","","","","",""
