"rt","stimulus","response","trial_type","trial_index","time_elapsed","internal_node_id","ses_1","ses_2","ses_3","ses_4","ses_5","ses_6","ses_7","ses_8","ses_9","ses_10","coreself_1","coreself_2","coreself_3","coreself_4","coreself_5","coreself_6","coreself_7","coreself_8","coreself_9","coreself_10","SGPS_1","SGPS_2","SGPS_3","SGPS_4","SGPS_5","SGPS_6","SGPS_7","SGPS_8","SGPS_9","NPI1","NPI2","NPI3","NPI4","NPI5","NPI6","NPI7","NPI8","NPI9","NPI10","NPI11","NPI12","NPI13","NPI14","NPI15","hsns_1","hsns_2","hsns_3","hsns_4","hsns_5","trap1","hsns_6","hsns_7","hsns_8","hsns_9","hsns_10","subj_idx","friend_name","ParticipantID","value","success","user_agent","responses","item_order","radio_event_ids","radio_event_times","key_event_times","mouse_event_times","straightlining","zigzagging","honeypot","timeout","failed_images","failed_audio","failed_video","view_history","response_type","key_press","avg_frame_time","center_x","center_y","correct_response","correct","identity","Image","word","condition","task_id","screen_id","time_stamp","version_attrib2","version_target2","IAT","RT","varname","summary","version_attrib","version_target","question_order","correct_answer","trap1_item"
"3954","
   <p><div style = ""color: white;font-size:25px;"">您好，欢迎参加本次实验。</div> </p>
   <p><div style = ""color: white;font-size:25px;"">为充分保障您的权利，请确保您已经知晓并同意《参与实验同意书》以及《数据公开知情同意书》。</div></p>
   <p><div style = ""color: white;font-size:25px;"">如果您未见过上述内容，请咨询实验员。</div></p>
   <p><div style = ""color: white;font-size:25px;"">如果您选择继续实验，则表示您已经清楚两份知情同意书的内容并同意。</div></p>
   <p><div style = ""color: pink;font-size:30px;"">请确保您记得day0的实验编号，您将在本次实验输入该编号，若您忘记，请咨询实验员后作答。</div></p>
   <p><div style = ""color: lightblue;font-size:25px;"">请您尽可能认真地作答，我们将依据您在各问卷和按键任务中的作答质量发放报酬。</div></p>
   <p> <div style = ""color: green;font-size:25px;""><按空格键至下页></div> </p>
   "," ","html-keyboard-response","0","3964","0.0-0.0","3","3","3","4","3","3","3","3","3","4","4","4","2","4","4","4","4","4","4","4","2","2","2","2","2","2","1","2","2","1","0","1","1","0","0","0","1","0","1","1","0","0","0","1","5","4","4","2","4","","2","1","4","3","2","767404514553892865","肖","87","","","","","","","","","","","","","","","","","","","","","","","","","","","","","","","","","","","","","","","","","",""
"","","","call-function","1","3970","0.0-1.0-0.0","3","3","3","4","3","3","3","3","3","4","4","4","2","4","4","4","4","4","4","4","2","2","2","2","2","2","1","2","2","1","0","1","1","0","0","0","1","0","1","1","0","0","0","1","5","4","4","2","4","","2","1","4","3","2","767404514553892865","肖","87","","","","","","","","","","","","","","","","","","","","","","","","","","","","","","","","","","","","","","","","","",""
"37541","","{""friend_name"":""肖"",""ParticipantID"":""87""}","survey-html-form","2","41515","0.0-1.0-1.0","3","3","3","4","3","3","3","3","3","4","4","4","2","4","4","4","4","4","4","4","2","2","2","2","2","2","1","2","2","1","0","1","1","0","0","0","1","0","1","1","0","0","0","1","5","4","4","2","4","","2","1","4","3","2","767404514553892865","肖","87","","","","","","","","","","","","","","","","","","","","","","","","","","","","","","","","","","","","","","","","","",""
"","","","fullscreen","3","47886","0.0-2.0","3","3","3","4","3","3","3","3","3","4","4","4","2","4","4","4","4","4","4","4","2","2","2","2","2","2","1","2","2","1","0","1","1","0","0","0","1","0","1","1","0","0","0","1","5","4","4","2","4","","2","1","4","3","2","767404514553892865","肖","87","","true","{}","","","","","","","","","","","","","","","","","","","","","","","","","","","","","","","","","","","","","","",""
"25566.5","","{""Q01"":""3"",""Q02"":""3"",""Q03"":""3"",""Q04"":""4"",""Q05"":""3"",""Q06"":""3"",""Q07"":""3"",""Q08"":""3"",""Q09"":""3"",""Q10"":""4""}","survey-template","4","73464","0.0-3.0","3","3","3","4","3","3","3","3","3","4","4","4","2","4","4","4","4","4","4","4","2","2","2","2","2","2","1","2","2","1","0","1","1","0","0","0","1","0","1","1","0","0","0","1","5","4","4","2","4","","2","1","4","3","2","767404514553892865","肖","87","","","","{""Q01"":""3"",""Q02"":""3"",""Q03"":""3"",""Q04"":""4"",""Q05"":""3"",""Q06"":""3"",""Q07"":""3"",""Q08"":""3"",""Q09"":""3"",""Q10"":""4""}","[0,1,2,3,4,5,6,7,8,9]","[""Q01"",""Q02"",""Q03"",""Q04"",""Q05"",""Q06"",""Q07"",""Q08"",""Q09"",""Q10""]","[4337,7881.900000000023,9958.79999999993,14175.199999999953,16325.400000000023,17437.199999999953,18784.5,20353.099999999977,22212.199999999953,24478.5]","[]","[4337,7881.900000000023,9958.79999999993,14175.199999999953,16325.400000000023,17437.199999999953,18784.5,20353.099999999977,22212.199999999953,24478.5,25562.699999999953]","0.4","0.4444444444444444","0","","","","","","","","","","","","","","","","","","","","","","","","","","","","","",""
"37499","","{""Q01"":""4"",""Q02"":""4"",""Q03"":""2"",""Q04"":""4"",""Q05"":""4"",""Q06"":""4"",""Q07"":""4"",""Q08"":""4"",""Q09"":""4"",""Q10"":""4""}","survey-template","5","110989","0.0-4.0","3","3","3","4","3","3","3","3","3","4","4","4","2","4","4","4","4","4","4","4","2","2","2","2","2","2","1","2","2","1","0","1","1","0","0","0","1","0","1","1","0","0","0","1","5","4","4","2","4","","2","1","4","3","2","767404514553892865","肖","87","","","","{""Q01"":""4"",""Q02"":""4"",""Q03"":""2"",""Q04"":""4"",""Q05"":""4"",""Q06"":""4"",""Q07"":""4"",""Q08"":""4"",""Q09"":""4"",""Q10"":""4""}","[0,1,2,3,4,5,6,7,8,9]","[""Q01"",""Q02"",""Q03"",""Q04"",""Q05"",""Q06"",""Q09"",""Q10"",""Q07"",""Q08""]","[2572,4587.600000000093,6610.5,8421.70000000007,10686.5,12617.70000000007,29264.900000000023,30559.20000000007,34251.80000000005,35331.80000000005]","[]","[2572,4587.600000000093,6610.5,8421.70000000007,10686.5,12617.70000000007,29264.900000000023,30559.20000000007,33187.40000000002,34251.80000000005,35331.80000000005,37492.40000000002]","0.5","0","0","","","","","","","","","","","","","","","","","","","","","","","","","","","","","",""
"","","","preload","6","111753","0.0-5.0","3","3","3","4","3","3","3","3","3","4","4","4","2","4","4","4","4","4","4","4","2","2","2","2","2","2","1","2","2","1","0","1","1","0","0","0","1","0","1","1","0","0","0","1","5","4","4","2","4","","2","1","4","3","2","767404514553892865","肖","87","","true","","","","","","","","","","","false","[]","[]","[]","","","","","","","","","","","","","","","","","","","","","","","","","",""
"8138","","","instructions","7","119894","0.0-6.0","3","3","3","4","3","3","3","3","3","4","4","4","2","4","4","4","4","4","4","4","2","2","2","2","2","2","1","2","2","1","0","1","1","0","0","0","1","0","1","1","0","0","0","1","5","4","4","2","4","","2","1","4","3","2","767404514553892865","肖","87","","","","","","","","","","","","","","","","","[{""page_index"":0,""viewing_time"":8137}]","","","","","","","","","","","","","","","","","","","","","","","","",""
"24284","","","instructions","8","144183","0.0-7.0-0.0-0.0","3","3","3","4","3","3","3","3","3","4","4","4","2","4","4","4","4","4","4","4","2","2","2","2","2","2","1","2","2","1","0","1","1","0","0","0","1","0","1","1","0","0","0","1","5","4","4","2","4","","2","1","4","3","2","767404514553892865","肖","87","","","","","","","","","","","","","","","","","[{""page_index"":0,""viewing_time"":13163},{""page_index"":1,""viewing_time"":8775},{""page_index"":2,""viewing_time"":2345}]","","","","","","","","","","","","","","","","","","","","","","","","",""
"null","","null","psychophysics","9","146484","0.0-7.0-0.0-1.0-0.0-0.0","3","3","3","4","3","3","3","3","3","4","4","4","2","4","4","4","4","4","4","4","2","2","2","2","2","2","1","2","2","1","0","1","1","0","0","0","1","0","1","1","0","0","0","1","5","4","4","2","4","","2","1","4","3","2","767404514553892865","肖","87","","","","null","","","","","","","","","","","","","","key","null","28.20399999999977","683","380","f","false","nonmatch","img/ellipse.png","六边","椭圆","ALT1_1","prac_ALT1_1","","","","","","","","","","","",""
"null","<span class='add_' style='color:yellow; font-size: 70px;'> 太慢! </span>","null","html-keyboard-response","10","146992","0.0-7.0-0.0-1.0-0.0-1.0","3","3","3","4","3","3","3","3","3","4","4","4","2","4","4","4","4","4","4","4","2","2","2","2","2","2","1","2","2","1","0","1","1","0","0","0","1","0","1","1","0","0","0","1","5","4","4","2","4","","2","1","4","3","2","767404514553892865","肖","87","","","","","","","","","","","","","","","","","","","","","","","","","","","","","","feedback_test","","","","","","","","","","","",""
"606","","f","psychophysics","11","148603","0.0-7.0-0.0-1.0-0.0-0.1","3","3","3","4","3","3","3","3","3","4","4","4","2","4","4","4","4","4","4","4","2","2","2","2","2","2","1","2","2","1","0","1","1","0","0","0","1","0","1","1","0","0","0","1","5","4","4","2","4","","2","1","4","3","2","767404514553892865","肖","87","","","","nonmatch","","","","","","","","","","","","","","key","f","30.998759999999894","683","380","j","false","match","img/hexagon.png","六边","六边","ALT1_1","prac_ALT1_1","","","","","","","","","","","",""
"null","<span style='color:red; font-size: 70px;'>错误! </span>","null","html-keyboard-response","12","149112","0.0-7.0-0.0-1.0-0.0-1.1","3","3","3","4","3","3","3","3","3","4","4","4","2","4","4","4","4","4","4","4","2","2","2","2","2","2","1","2","2","1","0","1","1","0","0","0","1","0","1","1","0","0","0","1","5","4","4","2","4","","2","1","4","3","2","767404514553892865","肖","87","","","","","","","","","","","","","","","","","","","","","","","","","","","","","","feedback_test","","","","","","","","","","","",""
"507","","j","psychophysics","13","150624","0.0-7.0-0.0-1.0-0.0-0.2","3","3","3","4","3","3","3","3","3","4","4","4","2","4","4","4","4","4","4","4","2","2","2","2","2","2","1","2","2","1","0","1","1","0","0","0","1","0","1","1","0","0","0","1","5","4","4","2","4","","2","1","4","3","2","767404514553892865","肖","87","","","","match","","","","","","","","","","","","","","key","j","28.757019607843283","683","380","j","true","match","img/triangle.png","三角","三角","ALT1_1","prac_ALT1_1","","","","","","","","","","","",""
"null","<span style='color:GreenYellow; font-size: 70px;'>正确! </span>","null","html-keyboard-response","14","151136","0.0-7.0-0.0-1.0-0.0-1.2","3","3","3","4","3","3","3","3","3","4","4","4","2","4","4","4","4","4","4","4","2","2","2","2","2","2","1","2","2","1","0","1","1","0","0","0","1","0","1","1","0","0","0","1","5","4","4","2","4","","2","1","4","3","2","767404514553892865","肖","87","","","","","","","","","","","","","","","","","","","","","","","","","","","","","","feedback_test","","","","","","","","","","","",""
"690","","j","psychophysics","15","152885","0.0-7.0-0.0-1.0-0.0-0.3","3","3","3","4","3","3","3","3","3","4","4","4","2","4","4","4","4","4","4","4","2","2","2","2","2","2","1","2","2","1","0","1","1","0","0","0","1","0","1","1","0","0","0","1","5","4","4","2","4","","2","1","4","3","2","767404514553892865","肖","87","","","","match","","","","","","","","","","","","","","key","j","26.56143750000001","683","380","j","true","match","img/ellipse.png","椭圆","椭圆","ALT1_1","prac_ALT1_1","","","","","","","","","","","",""
"null","<span style='color:GreenYellow; font-size: 70px;'>正确! </span>","null","html-keyboard-response","16","153392","0.0-7.0-0.0-1.0-0.0-1.3","3","3","3","4","3","3","3","3","3","4","4","4","2","4","4","4","4","4","4","4","2","2","2","2","2","2","1","2","2","1","0","1","1","0","0","0","1","0","1","1","0","0","0","1","5","4","4","2","4","","2","1","4","3","2","767404514553892865","肖","87","","","","","","","","","","","","","","","","","","","","","","","","","","","","","","feedback_test","","","","","","","","","","","",""
"614","","j","psychophysics","17","155016","0.0-7.0-0.0-1.0-0.0-0.4","3","3","3","4","3","3","3","3","3","4","4","4","2","4","4","4","4","4","4","4","2","2","2","2","2","2","1","2","2","1","0","1","1","0","0","0","1","0","1","1","0","0","0","1","5","4","4","2","4","","2","1","4","3","2","767404514553892865","肖","87","","","","match","","","","","","","","","","","","","","key","j","24.357999999999837","683","380","f","false","nonmatch","img/ellipse.png","三角","椭圆","ALT1_1","prac_ALT1_1","","","","","","","","","","","",""
"null","<span style='color:red; font-size: 70px;'>错误! </span>","null","html-keyboard-response","18","155519","0.0-7.0-0.0-1.0-0.0-1.4","3","3","3","4","3","3","3","3","3","4","4","4","2","4","4","4","4","4","4","4","2","2","2","2","2","2","1","2","2","1","0","1","1","0","0","0","1","0","1","1","0","0","0","1","5","4","4","2","4","","2","1","4","3","2","767404514553892865","肖","87","","","","","","","","","","","","","","","","","","","","","","","","","","","","","","feedback_test","","","","","","","","","","","",""
"674","","j","psychophysics","19","157203","0.0-7.0-0.0-1.0-0.0-0.5","3","3","3","4","3","3","3","3","3","4","4","4","2","4","4","4","4","4","4","4","2","2","2","2","2","2","1","2","2","1","0","1","1","0","0","0","1","0","1","1","0","0","0","1","5","4","4","2","4","","2","1","4","3","2","767404514553892865","肖","87","","","","match","","","","","","","","","","","","","","key","j","24.746484848485014","683","380","f","false","nonmatch","img/hexagon.png","方形","六边","ALT1_1","prac_ALT1_1","","","","","","","","","","","",""
"null","<span style='color:red; font-size: 70px;'>错误! </span>","null","html-keyboard-response","20","157711","0.0-7.0-0.0-1.0-0.0-1.5","3","3","3","4","3","3","3","3","3","4","4","4","2","4","4","4","4","4","4","4","2","2","2","2","2","2","1","2","2","1","0","1","1","0","0","0","1","0","1","1","0","0","0","1","5","4","4","2","4","","2","1","4","3","2","767404514553892865","肖","87","","","","","","","","","","","","","","","","","","","","","","","","","","","","","","feedback_test","","","","","","","","","","","",""
"952","","f","psychophysics","21","159674","0.0-7.0-0.0-1.0-0.0-0.6","3","3","3","4","3","3","3","3","3","4","4","4","2","4","4","4","4","4","4","4","2","2","2","2","2","2","1","2","2","1","0","1","1","0","0","0","1","0","1","1","0","0","0","1","5","4","4","2","4","","2","1","4","3","2","767404514553892865","肖","87","","","","nonmatch","","","","","","","","","","","","","","key","f","26.482958904109505","683","380","f","true","nonmatch","img/triangle.png","方形","三角","ALT1_1","prac_ALT1_1","","","","","","","","","","","",""
"null","<span style='color:GreenYellow; font-size: 70px;'>正确! </span>","null","html-keyboard-response","22","160183","0.0-7.0-0.0-1.0-0.0-1.6","3","3","3","4","3","3","3","3","3","4","4","4","2","4","4","4","4","4","4","4","2","2","2","2","2","2","1","2","2","1","0","1","1","0","0","0","1","0","1","1","0","0","0","1","5","4","4","2","4","","2","1","4","3","2","767404514553892865","肖","87","","","","","","","","","","","","","","","","","","","","","","","","","","","","","","feedback_test","","","","","","","","","","","",""
"751","","j","psychophysics","23","161950","0.0-7.0-0.0-1.0-0.0-0.7","3","3","3","4","3","3","3","3","3","4","4","4","2","4","4","4","4","4","4","4","2","2","2","2","2","2","1","2","2","1","0","1","1","0","0","0","1","0","1","1","0","0","0","1","5","4","4","2","4","","2","1","4","3","2","767404514553892865","肖","87","","","","match","","","","","","","","","","","","","","key","j","25.620865671641763","683","380","j","true","match","img/ellipse.png","椭圆","椭圆","ALT1_1","prac_ALT1_1","","","","","","","","","","","",""
"null","<span style='color:GreenYellow; font-size: 70px;'>正确! </span>","null","html-keyboard-response","24","162455","0.0-7.0-0.0-1.0-0.0-1.7","3","3","3","4","3","3","3","3","3","4","4","4","2","4","4","4","4","4","4","4","2","2","2","2","2","2","1","2","2","1","0","1","1","0","0","0","1","0","1","1","0","0","0","1","5","4","4","2","4","","2","1","4","3","2","767404514553892865","肖","87","","","","","","","","","","","","","","","","","","","","","","","","","","","","","","feedback_test","","","","","","","","","","","",""
"667","","f","psychophysics","25","164138","0.0-7.0-0.0-1.0-0.0-0.8","3","3","3","4","3","3","3","3","3","4","4","4","2","4","4","4","4","4","4","4","2","2","2","2","2","2","1","2","2","1","0","1","1","0","0","0","1","0","1","1","0","0","0","1","5","4","4","2","4","","2","1","4","3","2","767404514553892865","肖","87","","","","nonmatch","","","","","","","","","","","","","","key","f","24.746484848484574","683","380","j","false","match","img/square.png","方形","方形","ALT1_1","prac_ALT1_1","","","","","","","","","","","",""
"null","<span style='color:red; font-size: 70px;'>错误! </span>","null","html-keyboard-response","26","164647","0.0-7.0-0.0-1.0-0.0-1.8","3","3","3","4","3","3","3","3","3","4","4","4","2","4","4","4","4","4","4","4","2","2","2","2","2","2","1","2","2","1","0","1","1","0","0","0","1","0","1","1","0","0","0","1","5","4","4","2","4","","2","1","4","3","2","767404514553892865","肖","87","","","","","","","","","","","","","","","","","","","","","","","","","","","","","","feedback_test","","","","","","","","","","","",""
"733","","f","psychophysics","27","166404","0.0-7.0-0.0-1.0-0.0-0.9","3","3","3","4","3","3","3","3","3","4","4","4","2","4","4","4","4","4","4","4","2","2","2","2","2","2","1","2","2","1","0","1","1","0","0","0","1","0","1","1","0","0","0","1","5","4","4","2","4","","2","1","4","3","2","767404514553892865","肖","87","","","","nonmatch","","","","","","","","","","","","","","key","f","26.983047619047632","683","380","f","true","nonmatch","img/triangle.png","六边","三角","ALT1_1","prac_ALT1_1","","","","","","","","","","","",""
"null","<span style='color:GreenYellow; font-size: 70px;'>正确! </span>","null","html-keyboard-response","28","166911","0.0-7.0-0.0-1.0-0.0-1.9","3","3","3","4","3","3","3","3","3","4","4","4","2","4","4","4","4","4","4","4","2","2","2","2","2","2","1","2","2","1","0","1","1","0","0","0","1","0","1","1","0","0","0","1","5","4","4","2","4","","2","1","4","3","2","767404514553892865","肖","87","","","","","","","","","","","","","","","","","","","","","","","","","","","","","","feedback_test","","","","","","","","","","","",""
"828","","j","psychophysics","29","168746","0.0-7.0-0.0-1.0-0.0-0.10","3","3","3","4","3","3","3","3","3","4","4","4","2","4","4","4","4","4","4","4","2","2","2","2","2","2","1","2","2","1","0","1","1","0","0","0","1","0","1","1","0","0","0","1","5","4","4","2","4","","2","1","4","3","2","767404514553892865","肖","87","","","","match","","","","","","","","","","","","","","key","j","24.656547945205677","683","380","j","true","match","img/square.png","方形","方形","ALT1_1","prac_ALT1_1","","","","","","","","","","","",""
"null","<span style='color:GreenYellow; font-size: 70px;'>正确! </span>","null","html-keyboard-response","30","169256","0.0-7.0-0.0-1.0-0.0-1.10","3","3","3","4","3","3","3","3","3","4","4","4","2","4","4","4","4","4","4","4","2","2","2","2","2","2","1","2","2","1","0","1","1","0","0","0","1","0","1","1","0","0","0","1","5","4","4","2","4","","2","1","4","3","2","767404514553892865","肖","87","","","","","","","","","","","","","","","","","","","","","","","","","","","","","","feedback_test","","","","","","","","","","","",""
"522","","j","psychophysics","31","170787","0.0-7.0-0.0-1.0-0.0-0.11","3","3","3","4","3","3","3","3","3","4","4","4","2","4","4","4","4","4","4","4","2","2","2","2","2","2","1","2","2","1","0","1","1","0","0","0","1","0","1","1","0","0","0","1","5","4","4","2","4","","2","1","4","3","2","767404514553892865","肖","87","","","","match","","","","","","","","","","","","","","key","j","24.999000000000038","683","380","f","false","nonmatch","img/square.png","六边","方形","ALT1_1","prac_ALT1_1","","","","","","","","","","","",""
"null","<span style='color:red; font-size: 70px;'>错误! </span>","null","html-keyboard-response","32","171296","0.0-7.0-0.0-1.0-0.0-1.11","3","3","3","4","3","3","3","3","3","4","4","4","2","4","4","4","4","4","4","4","2","2","2","2","2","2","1","2","2","1","0","1","1","0","0","0","1","0","1","1","0","0","0","1","5","4","4","2","4","","2","1","4","3","2","767404514553892865","肖","87","","","","","","","","","","","","","","","","","","","","","","","","","","","","","","feedback_test","","","","","","","","","","","",""
"630","","j","psychophysics","33","172969","0.0-7.0-0.0-1.0-0.0-0.12","3","3","3","4","3","3","3","3","3","4","4","4","2","4","4","4","4","4","4","4","2","2","2","2","2","2","1","2","2","1","0","1","1","0","0","0","1","0","1","1","0","0","0","1","5","4","4","2","4","","2","1","4","3","2","767404514553892865","肖","87","","","","match","","","","","","","","","","","","","","key","j","25.92488888888906","683","380","f","false","nonmatch","img/ellipse.png","方形","椭圆","ALT1_1","prac_ALT1_1","","","","","","","","","","","",""
"null","<span style='color:red; font-size: 70px;'>错误! </span>","null","html-keyboard-response","34","173472","0.0-7.0-0.0-1.0-0.0-1.12","3","3","3","4","3","3","3","3","3","4","4","4","2","4","4","4","4","4","4","4","2","2","2","2","2","2","1","2","2","1","0","1","1","0","0","0","1","0","1","1","0","0","0","1","5","4","4","2","4","","2","1","4","3","2","767404514553892865","肖","87","","","","","","","","","","","","","","","","","","","","","","","","","","","","","","feedback_test","","","","","","","","","","","",""
"620","","f","psychophysics","35","175121","0.0-7.0-0.0-1.0-0.0-0.13","3","3","3","4","3","3","3","3","3","4","4","4","2","4","4","4","4","4","4","4","2","2","2","2","2","2","1","2","2","1","0","1","1","0","0","0","1","0","1","1","0","0","0","1","5","4","4","2","4","","2","1","4","3","2","767404514553892865","肖","87","","","","nonmatch","","","","","","","","","","","","","","key","f","25.395809523809316","683","380","f","true","nonmatch","img/square.png","三角","方形","ALT1_1","prac_ALT1_1","","","","","","","","","","","",""
"null","<span style='color:GreenYellow; font-size: 70px;'>正确! </span>","null","html-keyboard-response","36","175632","0.0-7.0-0.0-1.0-0.0-1.13","3","3","3","4","3","3","3","3","3","4","4","4","2","4","4","4","4","4","4","4","2","2","2","2","2","2","1","2","2","1","0","1","1","0","0","0","1","0","1","1","0","0","0","1","5","4","4","2","4","","2","1","4","3","2","767404514553892865","肖","87","","","","","","","","","","","","","","","","","","","","","","","","","","","","","","feedback_test","","","","","","","","","","","",""
"629","","j","psychophysics","37","177289","0.0-7.0-0.0-1.0-0.0-0.14","3","3","3","4","3","3","3","3","3","4","4","4","2","4","4","4","4","4","4","4","2","2","2","2","2","2","1","2","2","1","0","1","1","0","0","0","1","0","1","1","0","0","0","1","5","4","4","2","4","","2","1","4","3","2","767404514553892865","肖","87","","","","match","","","","","","","","","","","","","","key","j","26.07422580645183","683","380","j","true","match","img/square.png","方形","方形","ALT1_1","prac_ALT1_1","","","","","","","","","","","",""
"null","<span style='color:GreenYellow; font-size: 70px;'>正确! </span>","null","html-keyboard-response","38","177799","0.0-7.0-0.0-1.0-0.0-1.14","3","3","3","4","3","3","3","3","3","4","4","4","2","4","4","4","4","4","4","4","2","2","2","2","2","2","1","2","2","1","0","1","1","0","0","0","1","0","1","1","0","0","0","1","5","4","4","2","4","","2","1","4","3","2","767404514553892865","肖","87","","","","","","","","","","","","","","","","","","","","","","","","","","","","","","feedback_test","","","","","","","","","","","",""
"741","","f","psychophysics","39","179556","0.0-7.0-0.0-1.0-0.0-0.15","3","3","3","4","3","3","3","3","3","4","4","4","2","4","4","4","4","4","4","4","2","2","2","2","2","2","1","2","2","1","0","1","1","0","0","0","1","0","1","1","0","0","0","1","5","4","4","2","4","","2","1","4","3","2","767404514553892865","肖","87","","","","nonmatch","","","","","","","","","","","","","","key","f","25.123373134328407","683","380","f","true","nonmatch","img/hexagon.png","椭圆","六边","ALT1_1","prac_ALT1_1","","","","","","","","","","","",""
"null","<span style='color:GreenYellow; font-size: 70px;'>正确! </span>","null","html-keyboard-response","40","180063","0.0-7.0-0.0-1.0-0.0-1.15","3","3","3","4","3","3","3","3","3","4","4","4","2","4","4","4","4","4","4","4","2","2","2","2","2","2","1","2","2","1","0","1","1","0","0","0","1","0","1","1","0","0","0","1","5","4","4","2","4","","2","1","4","3","2","767404514553892865","肖","87","","","","","","","","","","","","","","","","","","","","","","","","","","","","","","feedback_test","","","","","","","","","","","",""
"668","","j","psychophysics","41","181741","0.0-7.0-0.0-1.0-0.0-0.16","3","3","3","4","3","3","3","3","3","4","4","4","2","4","4","4","4","4","4","4","2","2","2","2","2","2","1","2","2","1","0","1","1","0","0","0","1","0","1","1","0","0","0","1","5","4","4","2","4","","2","1","4","3","2","767404514553892865","肖","87","","","","match","","","","","","","","","","","","","","key","j","24.746484848484574","683","380","j","true","match","img/hexagon.png","六边","六边","ALT1_1","prac_ALT1_1","","","","","","","","","","","",""
"null","<span style='color:GreenYellow; font-size: 70px;'>正确! </span>","null","html-keyboard-response","42","182255","0.0-7.0-0.0-1.0-0.0-1.16","3","3","3","4","3","3","3","3","3","4","4","4","2","4","4","4","4","4","4","4","2","2","2","2","2","2","1","2","2","1","0","1","1","0","0","0","1","0","1","1","0","0","0","1","5","4","4","2","4","","2","1","4","3","2","767404514553892865","肖","87","","","","","","","","","","","","","","","","","","","","","","","","","","","","","","feedback_test","","","","","","","","","","","",""
"588","","f","psychophysics","43","183893","0.0-7.0-0.0-1.0-0.0-0.17","3","3","3","4","3","3","3","3","3","4","4","4","2","4","4","4","4","4","4","4","2","2","2","2","2","2","1","2","2","1","0","1","1","0","0","0","1","0","1","1","0","0","0","1","5","4","4","2","4","","2","1","4","3","2","767404514553892865","肖","87","","","","nonmatch","","","","","","","","","","","","","","key","f","26.552610169491885","683","380","f","true","nonmatch","img/triangle.png","椭圆","三角","ALT1_1","prac_ALT1_1","","","","","","","","","","","",""
"null","<span style='color:GreenYellow; font-size: 70px;'>正确! </span>","null","html-keyboard-response","44","184399","0.0-7.0-0.0-1.0-0.0-1.17","3","3","3","4","3","3","3","3","3","4","4","4","2","4","4","4","4","4","4","4","2","2","2","2","2","2","1","2","2","1","0","1","1","0","0","0","1","0","1","1","0","0","0","1","5","4","4","2","4","","2","1","4","3","2","767404514553892865","肖","87","","","","","","","","","","","","","","","","","","","","","","","","","","","","","","feedback_test","","","","","","","","","","","",""
"751","","j","psychophysics","45","186182","0.0-7.0-0.0-1.0-0.0-0.18","3","3","3","4","3","3","3","3","3","4","4","4","2","4","4","4","4","4","4","4","2","2","2","2","2","2","1","2","2","1","0","1","1","0","0","0","1","0","1","1","0","0","0","1","5","4","4","2","4","","2","1","4","3","2","767404514553892865","肖","87","","","","match","","","","","","","","","","","","","","key","j","27.08224999999993","683","380","j","true","match","img/triangle.png","三角","三角","ALT1_1","prac_ALT1_1","","","","","","","","","","","",""
"null","<span style='color:GreenYellow; font-size: 70px;'>正确! </span>","null","html-keyboard-response","46","186687","0.0-7.0-0.0-1.0-0.0-1.18","3","3","3","4","3","3","3","3","3","4","4","4","2","4","4","4","4","4","4","4","2","2","2","2","2","2","1","2","2","1","0","1","1","0","0","0","1","0","1","1","0","0","0","1","5","4","4","2","4","","2","1","4","3","2","767404514553892865","肖","87","","","","","","","","","","","","","","","","","","","","","","","","","","","","","","feedback_test","","","","","","","","","","","",""
"599","","f","psychophysics","47","188291","0.0-7.0-0.0-1.0-0.0-0.19","3","3","3","4","3","3","3","3","3","4","4","4","2","4","4","4","4","4","4","4","2","2","2","2","2","2","1","2","2","1","0","1","1","0","0","0","1","0","1","1","0","0","0","1","5","4","4","2","4","","2","1","4","3","2","767404514553892865","肖","87","","","","nonmatch","","","","","","","","","","","","","","key","f","25.682032786885117","683","380","j","false","match","img/ellipse.png","椭圆","椭圆","ALT1_1","prac_ALT1_1","","","","","","","","","","","",""
"null","<span style='color:red; font-size: 70px;'>错误! </span>","null","html-keyboard-response","48","188799","0.0-7.0-0.0-1.0-0.0-1.19","3","3","3","4","3","3","3","3","3","4","4","4","2","4","4","4","4","4","4","4","2","2","2","2","2","2","1","2","2","1","0","1","1","0","0","0","1","0","1","1","0","0","0","1","5","4","4","2","4","","2","1","4","3","2","767404514553892865","肖","87","","","","","","","","","","","","","","","","","","","","","","","","","","","","","","feedback_test","","","","","","","","","","","",""
"630","","j","psychophysics","49","190455","0.0-7.0-0.0-1.0-0.0-0.20","3","3","3","4","3","3","3","3","3","4","4","4","2","4","4","4","4","4","4","4","2","2","2","2","2","2","1","2","2","1","0","1","1","0","0","0","1","0","1","1","0","0","0","1","5","4","4","2","4","","2","1","4","3","2","767404514553892865","肖","87","","","","match","","","","","","","","","","","","","","key","j","28.361438596490956","683","380","j","true","match","img/hexagon.png","六边","六边","ALT1_1","prac_ALT1_1","","","","","","","","","","","",""
"null","<span style='color:GreenYellow; font-size: 70px;'>正确! </span>","null","html-keyboard-response","50","190960","0.0-7.0-0.0-1.0-0.0-1.20","3","3","3","4","3","3","3","3","3","4","4","4","2","4","4","4","4","4","4","4","2","2","2","2","2","2","1","2","2","1","0","1","1","0","0","0","1","0","1","1","0","0","0","1","5","4","4","2","4","","2","1","4","3","2","767404514553892865","肖","87","","","","","","","","","","","","","","","","","","","","","","","","","","","","","","feedback_test","","","","","","","","","","","",""
"778","","f","psychophysics","51","192791","0.0-7.0-0.0-1.0-0.0-0.21","3","3","3","4","3","3","3","3","3","4","4","4","2","4","4","4","4","4","4","4","2","2","2","2","2","2","1","2","2","1","0","1","1","0","0","0","1","0","1","1","0","0","0","1","5","4","4","2","4","","2","1","4","3","2","767404514553892865","肖","87","","","","nonmatch","","","","","","","","","","","","","","key","f","26.08591304347847","683","380","f","true","nonmatch","img/hexagon.png","三角","六边","ALT1_1","prac_ALT1_1","","","","","","","","","","","",""
"null","<span style='color:GreenYellow; font-size: 70px;'>正确! </span>","null","html-keyboard-response","52","193296","0.0-7.0-0.0-1.0-0.0-1.21","3","3","3","4","3","3","3","3","3","4","4","4","2","4","4","4","4","4","4","4","2","2","2","2","2","2","1","2","2","1","0","1","1","0","0","0","1","0","1","1","0","0","0","1","5","4","4","2","4","","2","1","4","3","2","767404514553892865","肖","87","","","","","","","","","","","","","","","","","","","","","","","","","","","","","","feedback_test","","","","","","","","","","","",""
"827","","f","psychophysics","53","195178","0.0-7.0-0.0-1.0-0.0-0.22","3","3","3","4","3","3","3","3","3","4","4","4","2","4","4","4","4","4","4","4","2","2","2","2","2","2","1","2","2","1","0","1","1","0","0","0","1","0","1","1","0","0","0","1","5","4","4","2","4","","2","1","4","3","2","767404514553892865","肖","87","","","","nonmatch","","","","","","","","","","","","","","key","f","26.427514285713965","683","380","f","true","nonmatch","img/square.png","椭圆","方形","ALT1_1","prac_ALT1_1","","","","","","","","","","","",""
"null","<span style='color:GreenYellow; font-size: 70px;'>正确! </span>","null","html-keyboard-response","54","195688","0.0-7.0-0.0-1.0-0.0-1.22","3","3","3","4","3","3","3","3","3","4","4","4","2","4","4","4","4","4","4","4","2","2","2","2","2","2","1","2","2","1","0","1","1","0","0","0","1","0","1","1","0","0","0","1","5","4","4","2","4","","2","1","4","3","2","767404514553892865","肖","87","","","","","","","","","","","","","","","","","","","","","","","","","","","","","","feedback_test","","","","","","","","","","","",""
"898","","f","psychophysics","55","197606","0.0-7.0-0.0-1.0-0.0-0.23","3","3","3","4","3","3","3","3","3","4","4","4","2","4","4","4","4","4","4","4","2","2","2","2","2","2","1","2","2","1","0","1","1","0","0","0","1","0","1","1","0","0","0","1","5","4","4","2","4","","2","1","4","3","2","767404514553892865","肖","87","","","","nonmatch","","","","","","","","","","","","","","key","f","27.052057971014552","683","380","j","false","match","img/triangle.png","三角","三角","ALT1_1","prac_ALT1_1","","","","","","","","","","","",""
"null","<span style='color:red; font-size: 70px;'>错误! </span>","null","html-keyboard-response","56","198112","0.0-7.0-0.0-1.0-0.0-1.23","3","3","3","4","3","3","3","3","3","4","4","4","2","4","4","4","4","4","4","4","2","2","2","2","2","2","1","2","2","1","0","1","1","0","0","0","1","0","1","1","0","0","0","1","5","4","4","2","4","","2","1","4","3","2","767404514553892865","肖","87","","","","","","","","","","","","","","","","","","","","","","","","","","","","","","feedback_test","","","","","","","","","","","",""
"583","","j","psychophysics","57","199725","0.0-7.0-0.0-1.0-0.0-0.24","3","3","3","4","3","3","3","3","3","4","4","4","2","4","4","4","4","4","4","4","2","2","2","2","2","2","1","2","2","1","0","1","1","0","0","0","1","0","1","1","0","0","0","1","5","4","4","2","4","","2","1","4","3","2","767404514553892865","肖","87","","","","match","","","","","","","","","","","","","","key","j","25.267806451612774","683","380","j","true","match","img/ellipse.png","椭圆","椭圆","ALT1_1","prac_ALT1_1","","","","","","","","","","","",""
"null","<span style='color:GreenYellow; font-size: 70px;'>正确! </span>","null","html-keyboard-response","58","200231","0.0-7.0-0.0-1.0-0.0-1.24","3","3","3","4","3","3","3","3","3","4","4","4","2","4","4","4","4","4","4","4","2","2","2","2","2","2","1","2","2","1","0","1","1","0","0","0","1","0","1","1","0","0","0","1","5","4","4","2","4","","2","1","4","3","2","767404514553892865","肖","87","","","","","","","","","","","","","","","","","","","","","","","","","","","","","","feedback_test","","","","","","","","","","","",""
"846","","f","psychophysics","59","202088","0.0-7.0-0.0-1.0-0.0-0.25","3","3","3","4","3","3","3","3","3","4","4","4","2","4","4","4","4","4","4","4","2","2","2","2","2","2","1","2","2","1","0","1","1","0","0","0","1","0","1","1","0","0","0","1","5","4","4","2","4","","2","1","4","3","2","767404514553892865","肖","87","","","","nonmatch","","","","","","","","","","","","","","key","f","26.469529411764917","683","380","f","true","nonmatch","img/triangle.png","六边","三角","ALT1_1","prac_ALT1_1","","","","","","","","","","","",""
"null","<span style='color:GreenYellow; font-size: 70px;'>正确! </span>","null","html-keyboard-response","60","202591","0.0-7.0-0.0-1.0-0.0-1.25","3","3","3","4","3","3","3","3","3","4","4","4","2","4","4","4","4","4","4","4","2","2","2","2","2","2","1","2","2","1","0","1","1","0","0","0","1","0","1","1","0","0","0","1","5","4","4","2","4","","2","1","4","3","2","767404514553892865","肖","87","","","","","","","","","","","","","","","","","","","","","","","","","","","","","","feedback_test","","","","","","","","","","","",""
"680","","j","psychophysics","61","204280","0.0-7.0-0.0-1.0-0.0-0.26","3","3","3","4","3","3","3","3","3","4","4","4","2","4","4","4","4","4","4","4","2","2","2","2","2","2","1","2","2","1","0","1","1","0","0","0","1","0","1","1","0","0","0","1","5","4","4","2","4","","2","1","4","3","2","767404514553892865","肖","87","","","","match","","","","","","","","","","","","","","key","j","25.780218749999676","683","380","j","true","match","img/hexagon.png","六边","六边","ALT1_1","prac_ALT1_1","","","","","","","","","","","",""
"null","<span style='color:GreenYellow; font-size: 70px;'>正确! </span>","null","html-keyboard-response","62","204791","0.0-7.0-0.0-1.0-0.0-1.26","3","3","3","4","3","3","3","3","3","4","4","4","2","4","4","4","4","4","4","4","2","2","2","2","2","2","1","2","2","1","0","1","1","0","0","0","1","0","1","1","0","0","0","1","5","4","4","2","4","","2","1","4","3","2","767404514553892865","肖","87","","","","","","","","","","","","","","","","","","","","","","","","","","","","","","feedback_test","","","","","","","","","","","",""
"785","","j","psychophysics","63","206582","0.0-7.0-0.0-1.0-0.0-0.27","3","3","3","4","3","3","3","3","3","4","4","4","2","4","4","4","4","4","4","4","2","2","2","2","2","2","1","2","2","1","0","1","1","0","0","0","1","0","1","1","0","0","0","1","5","4","4","2","4","","2","1","4","3","2","767404514553892865","肖","87","","","","match","","","","","","","","","","","","","","key","j","25.620865671641763","683","380","j","true","match","img/ellipse.png","椭圆","椭圆","ALT1_1","prac_ALT1_1","","","","","","","","","","","",""
"null","<span style='color:GreenYellow; font-size: 70px;'>正确! </span>","null","html-keyboard-response","64","207087","0.0-7.0-0.0-1.0-0.0-1.27","3","3","3","4","3","3","3","3","3","4","4","4","2","4","4","4","4","4","4","4","2","2","2","2","2","2","1","2","2","1","0","1","1","0","0","0","1","0","1","1","0","0","0","1","5","4","4","2","4","","2","1","4","3","2","767404514553892865","肖","87","","","","","","","","","","","","","","","","","","","","","","","","","","","","","","feedback_test","","","","","","","","","","","",""
"760","","f","psychophysics","65","208855","0.0-7.0-0.0-1.0-0.0-0.28","3","3","3","4","3","3","3","3","3","4","4","4","2","4","4","4","4","4","4","4","2","2","2","2","2","2","1","2","2","1","0","1","1","0","0","0","1","0","1","1","0","0","0","1","5","4","4","2","4","","2","1","4","3","2","767404514553892865","肖","87","","","","nonmatch","","","","","","","","","","","","","","key","f","26.82184374999997","683","380","f","true","nonmatch","img/square.png","六边","方形","ALT1_1","prac_ALT1_1","","","","","","","","","","","",""
"null","<span style='color:GreenYellow; font-size: 70px;'>正确! </span>","null","html-keyboard-response","66","209359","0.0-7.0-0.0-1.0-0.0-1.28","3","3","3","4","3","3","3","3","3","4","4","4","2","4","4","4","4","4","4","4","2","2","2","2","2","2","1","2","2","1","0","1","1","0","0","0","1","0","1","1","0","0","0","1","5","4","4","2","4","","2","1","4","3","2","767404514553892865","肖","87","","","","","","","","","","","","","","","","","","","","","","","","","","","","","","feedback_test","","","","","","","","","","","",""
"879","","j","psychophysics","67","211257","0.0-7.0-0.0-1.0-0.0-0.29","3","3","3","4","3","3","3","3","3","4","4","4","2","4","4","4","4","4","4","4","2","2","2","2","2","2","1","2","2","1","0","1","1","0","0","0","1","0","1","1","0","0","0","1","5","4","4","2","4","","2","1","4","3","2","767404514553892865","肖","87","","","","match","","","","","","","","","","","","","","key","j","25.56975342465759","683","380","j","true","match","img/triangle.png","三角","三角","ALT1_1","prac_ALT1_1","","","","","","","","","","","",""
"null","<span style='color:GreenYellow; font-size: 70px;'>正确! </span>","null","html-keyboard-response","68","211767","0.0-7.0-0.0-1.0-0.0-1.29","3","3","3","4","3","3","3","3","3","4","4","4","2","4","4","4","4","4","4","4","2","2","2","2","2","2","1","2","2","1","0","1","1","0","0","0","1","0","1","1","0","0","0","1","5","4","4","2","4","","2","1","4","3","2","767404514553892865","肖","87","","","","","","","","","","","","","","","","","","","","","","","","","","","","","","feedback_test","","","","","","","","","","","",""
"819","","j","psychophysics","69","213598","0.0-7.0-0.0-1.0-0.0-0.30","3","3","3","4","3","3","3","3","3","4","4","4","2","4","4","4","4","4","4","4","2","2","2","2","2","2","1","2","2","1","0","1","1","0","0","0","1","0","1","1","0","0","0","1","5","4","4","2","4","","2","1","4","3","2","767404514553892865","肖","87","","","","match","","","","","","","","","","","","","","key","j","25.119768115941966","683","380","j","true","match","img/triangle.png","三角","三角","ALT1_1","prac_ALT1_1","","","","","","","","","","","",""
"null","<span style='color:GreenYellow; font-size: 70px;'>正确! </span>","null","html-keyboard-response","70","214104","0.0-7.0-0.0-1.0-0.0-1.30","3","3","3","4","3","3","3","3","3","4","4","4","2","4","4","4","4","4","4","4","2","2","2","2","2","2","1","2","2","1","0","1","1","0","0","0","1","0","1","1","0","0","0","1","5","4","4","2","4","","2","1","4","3","2","767404514553892865","肖","87","","","","","","","","","","","","","","","","","","","","","","","","","","","","","","feedback_test","","","","","","","","","","","",""
"802","","f","psychophysics","71","215965","0.0-7.0-0.0-1.0-0.0-0.31","3","3","3","4","3","3","3","3","3","4","4","4","2","4","4","4","4","4","4","4","2","2","2","2","2","2","1","2","2","1","0","1","1","0","0","0","1","0","1","1","0","0","0","1","5","4","4","2","4","","2","1","4","3","2","767404514553892865","肖","87","","","","nonmatch","","","","","","","","","","","","","","key","f","26.08591304347847","683","380","f","true","nonmatch","img/hexagon.png","三角","六边","ALT1_1","prac_ALT1_1","","","","","","","","","","","",""
"null","<span style='color:GreenYellow; font-size: 70px;'>正确! </span>","null","html-keyboard-response","72","216472","0.0-7.0-0.0-1.0-0.0-1.31","3","3","3","4","3","3","3","3","3","4","4","4","2","4","4","4","4","4","4","4","2","2","2","2","2","2","1","2","2","1","0","1","1","0","0","0","1","0","1","1","0","0","0","1","5","4","4","2","4","","2","1","4","3","2","767404514553892865","肖","87","","","","","","","","","","","","","","","","","","","","","","","","","","","","","","feedback_test","","","","","","","","","","","",""
"827","","f","psychophysics","73","218332","0.0-7.0-0.0-1.0-0.0-0.32","3","3","3","4","3","3","3","3","3","4","4","4","2","4","4","4","4","4","4","4","2","2","2","2","2","2","1","2","2","1","0","1","1","0","0","0","1","0","1","1","0","0","0","1","5","4","4","2","4","","2","1","4","3","2","767404514553892865","肖","87","","","","nonmatch","","","","","","","","","","","","","","key","f","25.23047222222239","683","380","f","true","nonmatch","img/triangle.png","椭圆","三角","ALT1_1","prac_ALT1_1","","","","","","","","","","","",""
"null","<span style='color:GreenYellow; font-size: 70px;'>正确! </span>","null","html-keyboard-response","74","218840","0.0-7.0-0.0-1.0-0.0-1.32","3","3","3","4","3","3","3","3","3","4","4","4","2","4","4","4","4","4","4","4","2","2","2","2","2","2","1","2","2","1","0","1","1","0","0","0","1","0","1","1","0","0","0","1","5","4","4","2","4","","2","1","4","3","2","767404514553892865","肖","87","","","","","","","","","","","","","","","","","","","","","","","","","","","","","","feedback_test","","","","","","","","","","","",""
"720","","j","psychophysics","75","220580","0.0-7.0-0.0-1.0-0.0-0.33","3","3","3","4","3","3","3","3","3","4","4","4","2","4","4","4","4","4","4","4","2","2","2","2","2","2","1","2","2","1","0","1","1","0","0","0","1","0","1","1","0","0","0","1","5","4","4","2","4","","2","1","4","3","2","767404514553892865","肖","87","","","","match","","","","","","","","","","","","","","key","j","25.50403030303035","683","380","j","true","match","img/triangle.png","三角","三角","ALT1_1","prac_ALT1_1","","","","","","","","","","","",""
"null","<span style='color:GreenYellow; font-size: 70px;'>正确! </span>","null","html-keyboard-response","76","221087","0.0-7.0-0.0-1.0-0.0-1.33","3","3","3","4","3","3","3","3","3","4","4","4","2","4","4","4","4","4","4","4","2","2","2","2","2","2","1","2","2","1","0","1","1","0","0","0","1","0","1","1","0","0","0","1","5","4","4","2","4","","2","1","4","3","2","767404514553892865","肖","87","","","","","","","","","","","","","","","","","","","","","","","","","","","","","","feedback_test","","","","","","","","","","","",""
"781","","f","psychophysics","77","222898","0.0-7.0-0.0-1.0-0.0-0.34","3","3","3","4","3","3","3","3","3","4","4","4","2","4","4","4","4","4","4","4","2","2","2","2","2","2","1","2","2","1","0","1","1","0","0","0","1","0","1","1","0","0","0","1","5","4","4","2","4","","2","1","4","3","2","767404514553892865","肖","87","","","","nonmatch","","","","","","","","","","","","","","key","f","26.514090909091244","683","380","f","true","nonmatch","img/ellipse.png","方形","椭圆","ALT1_1","prac_ALT1_1","","","","","","","","","","","",""
"null","<span style='color:GreenYellow; font-size: 70px;'>正确! </span>","null","html-keyboard-response","78","223407","0.0-7.0-0.0-1.0-0.0-1.34","3","3","3","4","3","3","3","3","3","4","4","4","2","4","4","4","4","4","4","4","2","2","2","2","2","2","1","2","2","1","0","1","1","0","0","0","1","0","1","1","0","0","0","1","5","4","4","2","4","","2","1","4","3","2","767404514553892865","肖","87","","","","","","","","","","","","","","","","","","","","","","","","","","","","","","feedback_test","","","","","","","","","","","",""
"974","","j","psychophysics","79","225392","0.0-7.0-0.0-1.0-0.0-0.35","3","3","3","4","3","3","3","3","3","4","4","4","2","4","4","4","4","4","4","4","2","2","2","2","2","2","1","2","2","1","0","1","1","0","0","0","1","0","1","1","0","0","0","1","5","4","4","2","4","","2","1","4","3","2","767404514553892865","肖","87","","","","match","","","","","","","","","","","","","","key","j","25.65686842105252","683","380","j","true","match","img/square.png","方形","方形","ALT1_1","prac_ALT1_1","","","","","","","","","","","",""
"null","<span style='color:GreenYellow; font-size: 70px;'>正确! </span>","null","html-keyboard-response","80","225895","0.0-7.0-0.0-1.0-0.0-1.35","3","3","3","4","3","3","3","3","3","4","4","4","2","4","4","4","4","4","4","4","2","2","2","2","2","2","1","2","2","1","0","1","1","0","0","0","1","0","1","1","0","0","0","1","5","4","4","2","4","","2","1","4","3","2","767404514553892865","肖","87","","","","","","","","","","","","","","","","","","","","","","","","","","","","","","feedback_test","","","","","","","","","","","",""
"952","","f","psychophysics","81","227861","0.0-7.0-0.0-1.0-0.0-0.36","3","3","3","4","3","3","3","3","3","4","4","4","2","4","4","4","4","4","4","4","2","2","2","2","2","2","1","2","2","1","0","1","1","0","0","0","1","0","1","1","0","0","0","1","5","4","4","2","4","","2","1","4","3","2","767404514553892865","肖","87","","","","nonmatch","","","","","","","","","","","","","","key","f","26.994225352112625","683","380","f","true","nonmatch","img/hexagon.png","椭圆","六边","ALT1_1","prac_ALT1_1","","","","","","","","","","","",""
"null","<span style='color:GreenYellow; font-size: 70px;'>正确! </span>","null","html-keyboard-response","82","228367","0.0-7.0-0.0-1.0-0.0-1.36","3","3","3","4","3","3","3","3","3","4","4","4","2","4","4","4","4","4","4","4","2","2","2","2","2","2","1","2","2","1","0","1","1","0","0","0","1","0","1","1","0","0","0","1","5","4","4","2","4","","2","1","4","3","2","767404514553892865","肖","87","","","","","","","","","","","","","","","","","","","","","","","","","","","","","","feedback_test","","","","","","","","","","","",""
"771","","f","psychophysics","83","230183","0.0-7.0-0.0-1.0-0.0-0.37","3","3","3","4","3","3","3","3","3","4","4","4","2","4","4","4","4","4","4","4","2","2","2","2","2","2","1","2","2","1","0","1","1","0","0","0","1","0","1","1","0","0","0","1","5","4","4","2","4","","2","1","4","3","2","767404514553892865","肖","87","","","","nonmatch","","","","","","","","","","","","","","key","f","26.367104477611797","683","380","f","true","nonmatch","img/triangle.png","方形","三角","ALT1_1","prac_ALT1_1","","","","","","","","","","","",""
"null","<span style='color:GreenYellow; font-size: 70px;'>正确! </span>","null","html-keyboard-response","84","230696","0.0-7.0-0.0-1.0-0.0-1.37","3","3","3","4","3","3","3","3","3","4","4","4","2","4","4","4","4","4","4","4","2","2","2","2","2","2","1","2","2","1","0","1","1","0","0","0","1","0","1","1","0","0","0","1","5","4","4","2","4","","2","1","4","3","2","767404514553892865","肖","87","","","","","","","","","","","","","","","","","","","","","","","","","","","","","","feedback_test","","","","","","","","","","","",""
"731","","j","psychophysics","85","232434","0.0-7.0-0.0-1.0-0.0-0.38","3","3","3","4","3","3","3","3","3","4","4","4","2","4","4","4","4","4","4","4","2","2","2","2","2","2","1","2","2","1","0","1","1","0","0","0","1","0","1","1","0","0","0","1","5","4","4","2","4","","2","1","4","3","2","767404514553892865","肖","87","","","","match","","","","","","","","","","","","","","key","j","26.718507936507986","683","380","j","true","match","img/square.png","方形","方形","ALT1_1","prac_ALT1_1","","","","","","","","","","","",""
"null","<span style='color:GreenYellow; font-size: 70px;'>正确! </span>","null","html-keyboard-response","86","232943","0.0-7.0-0.0-1.0-0.0-1.38","3","3","3","4","3","3","3","3","3","4","4","4","2","4","4","4","4","4","4","4","2","2","2","2","2","2","1","2","2","1","0","1","1","0","0","0","1","0","1","1","0","0","0","1","5","4","4","2","4","","2","1","4","3","2","767404514553892865","肖","87","","","","","","","","","","","","","","","","","","","","","","","","","","","","","","feedback_test","","","","","","","","","","","",""
"802","","j","psychophysics","87","234751","0.0-7.0-0.0-1.0-0.0-0.39","3","3","3","4","3","3","3","3","3","4","4","4","2","4","4","4","4","4","4","4","2","2","2","2","2","2","1","2","2","1","0","1","1","0","0","0","1","0","1","1","0","0","0","1","5","4","4","2","4","","2","1","4","3","2","767404514553892865","肖","87","","","","match","","","","","","","","","","","","","","key","j","25.602840579710005","683","380","j","true","match","img/ellipse.png","椭圆","椭圆","ALT1_1","prac_ALT1_1","","","","","","","","","","","",""
"null","<span style='color:GreenYellow; font-size: 70px;'>正确! </span>","null","html-keyboard-response","88","235264","0.0-7.0-0.0-1.0-0.0-1.39","3","3","3","4","3","3","3","3","3","4","4","4","2","4","4","4","4","4","4","4","2","2","2","2","2","2","1","2","2","1","0","1","1","0","0","0","1","0","1","1","0","0","0","1","5","4","4","2","4","","2","1","4","3","2","767404514553892865","肖","87","","","","","","","","","","","","","","","","","","","","","","","","","","","","","","feedback_test","","","","","","","","","","","",""
"751","","f","psychophysics","89","237044","0.0-7.0-0.0-1.0-0.0-0.40","3","3","3","4","3","3","3","3","3","4","4","4","2","4","4","4","4","4","4","4","2","2","2","2","2","2","1","2","2","1","0","1","1","0","0","0","1","0","1","1","0","0","0","1","5","4","4","2","4","","2","1","4","3","2","767404514553892865","肖","87","","","","nonmatch","","","","","","","","","","","","","","key","f","27.08224999999993","683","380","f","true","nonmatch","img/square.png","三角","方形","ALT1_1","prac_ALT1_1","","","","","","","","","","","",""
"null","<span style='color:GreenYellow; font-size: 70px;'>正确! </span>","null","html-keyboard-response","90","237552","0.0-7.0-0.0-1.0-0.0-1.40","3","3","3","4","3","3","3","3","3","4","4","4","2","4","4","4","4","4","4","4","2","2","2","2","2","2","1","2","2","1","0","1","1","0","0","0","1","0","1","1","0","0","0","1","5","4","4","2","4","","2","1","4","3","2","767404514553892865","肖","87","","","","","","","","","","","","","","","","","","","","","","","","","","","","","","feedback_test","","","","","","","","","","","",""
"739","","f","psychophysics","91","239301","0.0-7.0-0.0-1.0-0.0-0.41","3","3","3","4","3","3","3","3","3","4","4","4","2","4","4","4","4","4","4","4","2","2","2","2","2","2","1","2","2","1","0","1","1","0","0","0","1","0","1","1","0","0","0","1","5","4","4","2","4","","2","1","4","3","2","767404514553892865","肖","87","","","","nonmatch","","","","","","","","","","","","","","key","f","24.99900000000001","683","380","f","true","nonmatch","img/ellipse.png","三角","椭圆","ALT1_1","prac_ALT1_1","","","","","","","","","","","",""
"null","<span style='color:GreenYellow; font-size: 70px;'>正确! </span>","null","html-keyboard-response","92","239808","0.0-7.0-0.0-1.0-0.0-1.41","3","3","3","4","3","3","3","3","3","4","4","4","2","4","4","4","4","4","4","4","2","2","2","2","2","2","1","2","2","1","0","1","1","0","0","0","1","0","1","1","0","0","0","1","5","4","4","2","4","","2","1","4","3","2","767404514553892865","肖","87","","","","","","","","","","","","","","","","","","","","","","","","","","","","","","feedback_test","","","","","","","","","","","",""
"681","","f","psychophysics","93","241494","0.0-7.0-0.0-1.0-0.0-0.42","3","3","3","4","3","3","3","3","3","4","4","4","2","4","4","4","4","4","4","4","2","2","2","2","2","2","1","2","2","1","0","1","1","0","0","0","1","0","1","1","0","0","0","1","5","4","4","2","4","","2","1","4","3","2","767404514553892865","肖","87","","","","nonmatch","","","","","","","","","","","","","","key","f","26.774885245901817","683","380","f","true","nonmatch","img/square.png","椭圆","方形","ALT1_1","prac_ALT1_1","","","","","","","","","","","",""
"null","<span style='color:GreenYellow; font-size: 70px;'>正确! </span>","null","html-keyboard-response","94","242000","0.0-7.0-0.0-1.0-0.0-1.42","3","3","3","4","3","3","3","3","3","4","4","4","2","4","4","4","4","4","4","4","2","2","2","2","2","2","1","2","2","1","0","1","1","0","0","0","1","0","1","1","0","0","0","1","5","4","4","2","4","","2","1","4","3","2","767404514553892865","肖","87","","","","","","","","","","","","","","","","","","","","","","","","","","","","","","feedback_test","","","","","","","","","","","",""
"927","","f","psychophysics","95","243935","0.0-7.0-0.0-1.0-0.0-0.43","3","3","3","4","3","3","3","3","3","4","4","4","2","4","4","4","4","4","4","4","2","2","2","2","2","2","1","2","2","1","0","1","1","0","0","0","1","0","1","1","0","0","0","1","5","4","4","2","4","","2","1","4","3","2","767404514553892865","肖","87","","","","nonmatch","","","","","","","","","","","","","","key","f","26.759492957746467","683","380","f","true","nonmatch","img/hexagon.png","方形","六边","ALT1_1","prac_ALT1_1","","","","","","","","","","","",""
"null","<span style='color:GreenYellow; font-size: 70px;'>正确! </span>","null","html-keyboard-response","96","244439","0.0-7.0-0.0-1.0-0.0-1.43","3","3","3","4","3","3","3","3","3","4","4","4","2","4","4","4","4","4","4","4","2","2","2","2","2","2","1","2","2","1","0","1","1","0","0","0","1","0","1","1","0","0","0","1","5","4","4","2","4","","2","1","4","3","2","767404514553892865","肖","87","","","","","","","","","","","","","","","","","","","","","","","","","","","","","","feedback_test","","","","","","","","","","","",""
"823","","j","psychophysics","97","246271","0.0-7.0-0.0-1.0-0.0-0.44","3","3","3","4","3","3","3","3","3","4","4","4","2","4","4","4","4","4","4","4","2","2","2","2","2","2","1","2","2","1","0","1","1","0","0","0","1","0","1","1","0","0","0","1","5","4","4","2","4","","2","1","4","3","2","767404514553892865","肖","87","","","","match","","","","","","","","","","","","","","key","j","25.116366197182927","683","380","j","true","match","img/hexagon.png","六边","六边","ALT1_1","prac_ALT1_1","","","","","","","","","","","",""
"null","<span style='color:GreenYellow; font-size: 70px;'>正确! </span>","null","html-keyboard-response","98","246775","0.0-7.0-0.0-1.0-0.0-1.44","3","3","3","4","3","3","3","3","3","4","4","4","2","4","4","4","4","4","4","4","2","2","2","2","2","2","1","2","2","1","0","1","1","0","0","0","1","0","1","1","0","0","0","1","5","4","4","2","4","","2","1","4","3","2","767404514553892865","肖","87","","","","","","","","","","","","","","","","","","","","","","","","","","","","","","feedback_test","","","","","","","","","","","",""
"856","","f","psychophysics","99","248696","0.0-7.0-0.0-1.0-0.0-0.45","3","3","3","4","3","3","3","3","3","4","4","4","2","4","4","4","4","4","4","4","2","2","2","2","2","2","1","2","2","1","0","1","1","0","0","0","1","0","1","1","0","0","0","1","5","4","4","2","4","","2","1","4","3","2","767404514553892865","肖","87","","","","nonmatch","","","","","","","","","","","","","","key","f","25.44943243243206","683","380","f","true","nonmatch","img/ellipse.png","六边","椭圆","ALT1_1","prac_ALT1_1","","","","","","","","","","","",""
"null","<span style='color:GreenYellow; font-size: 70px;'>正确! </span>","null","html-keyboard-response","100","249199","0.0-7.0-0.0-1.0-0.0-1.45","3","3","3","4","3","3","3","3","3","4","4","4","2","4","4","4","4","4","4","4","2","2","2","2","2","2","1","2","2","1","0","1","1","0","0","0","1","0","1","1","0","0","0","1","5","4","4","2","4","","2","1","4","3","2","767404514553892865","肖","87","","","","","","","","","","","","","","","","","","","","","","","","","","","","","","feedback_test","","","","","","","","","","","",""
"905","","j","psychophysics","101","251140","0.0-7.0-0.0-1.0-0.0-0.46","3","3","3","4","3","3","3","3","3","4","4","4","2","4","4","4","4","4","4","4","2","2","2","2","2","2","1","2","2","1","0","1","1","0","0","0","1","0","1","1","0","0","0","1","5","4","4","2","4","","2","1","4","3","2","767404514553892865","肖","87","","","","match","","","","","","","","","","","","","","key","j","26.759492957746467","683","380","j","true","match","img/square.png","方形","方形","ALT1_1","prac_ALT1_1","","","","","","","","","","","",""
"null","<span style='color:GreenYellow; font-size: 70px;'>正确! </span>","null","html-keyboard-response","102","251649","0.0-7.0-0.0-1.0-0.0-1.46","3","3","3","4","3","3","3","3","3","4","4","4","2","4","4","4","4","4","4","4","2","2","2","2","2","2","1","2","2","1","0","1","1","0","0","0","1","0","1","1","0","0","0","1","5","4","4","2","4","","2","1","4","3","2","767404514553892865","肖","87","","","","","","","","","","","","","","","","","","","","","","","","","","","","","","feedback_test","","","","","","","","","","","",""
"742","","j","psychophysics","103","253402","0.0-7.0-0.0-1.0-0.0-0.47","3","3","3","4","3","3","3","3","3","4","4","4","2","4","4","4","4","4","4","4","2","2","2","2","2","2","1","2","2","1","0","1","1","0","0","0","1","0","1","1","0","0","0","1","5","4","4","2","4","","2","1","4","3","2","767404514553892865","肖","87","","","","match","","","","","","","","","","","","","","key","j","24.99900000000044","683","380","j","true","match","img/hexagon.png","六边","六边","ALT1_1","prac_ALT1_1","","","","","","","","","","","",""
"null","<span style='color:GreenYellow; font-size: 70px;'>正确! </span>","null","html-keyboard-response","104","253905","0.0-7.0-0.0-1.0-0.0-1.47","3","3","3","4","3","3","3","3","3","4","4","4","2","4","4","4","4","4","4","4","2","2","2","2","2","2","1","2","2","1","0","1","1","0","0","0","1","0","1","1","0","0","0","1","5","4","4","2","4","","2","1","4","3","2","767404514553892865","肖","87","","","","","","","","","","","","","","","","","","","","","","","","","","","","","","feedback_test","","","","","","","","","","","",""
"6754","<style>.context{color:white; font-size: 35px; line-height:40px}</style>                            <div><p class='context'>您正确回答了81% 的试次。</p><p class='context'>您的平均反应时为765毫秒。</p><p class='context'>恭喜您完成练习。按空格键进入正式实验。</p><p class='footer' style='font-size: 35px; line-height:40px;'>请在进入正式实验之前将您的<span style='color: lightgreen;'>食指</span>放在电脑键盘的相应键位上进行按键。</p>"," ","html-keyboard-response","105","260671","0.0-7.0-0.0-2.0","3","3","3","4","3","3","3","3","3","4","4","4","2","4","4","4","4","4","4","4","2","2","2","2","2","2","1","2","2","1","0","1","1","0","0","0","1","0","1","1","0","0","0","1","5","4","4","2","4","","2","1","4","3","2","767404514553892865","肖","87","","","","","","","","","","","","","","","","","","","","","","","","","","","","","","","","","","","","","","","","","",""
"2343","
    <p style='color: white; font-size: 22px'>请您将手指放在按键上，准备进入正式的匹配任务。</p>
    <p> <div style = ""color: green""><按空格键进入下一阶段的匹配任务></div></p>
    "," ","html-keyboard-response","106","263024","0.0-7.0-0.0-3.0","3","3","3","4","3","3","3","3","3","4","4","4","2","4","4","4","4","4","4","4","2","2","2","2","2","2","1","2","2","1","0","1","1","0","0","0","1","0","1","1","0","0","0","1","5","4","4","2","4","","2","1","4","3","2","767404514553892865","肖","87","","","","","","","","","","","","","","","","","","","","","","","","","","","","","","","","","","","","","","","","","",""
"723","","f","psychophysics","107","264778","0.0-7.0-0.0-4.0-0.0-0.0","3","3","3","4","3","3","3","3","3","4","4","4","2","4","4","4","4","4","4","4","2","2","2","2","2","2","1","2","2","1","0","1","1","0","0","0","1","0","1","1","0","0","0","1","5","4","4","2","4","","2","1","4","3","2","767404514553892865","肖","87","","","","nonmatch","","","","","","","","","","","","","","key","f","27.082250000000386","683","380","f","true","nonmatch","img/hexagon.png","三角","六边","ALT1","formal_ALT1_1","","","","","","","","","","","",""
"null","<span style='color:GreenYellow; font-size: 70px;'>正确! </span>","null","html-keyboard-response","108","265289","0.0-7.0-0.0-4.0-0.0-1.0","3","3","3","4","3","3","3","3","3","4","4","4","2","4","4","4","4","4","4","4","2","2","2","2","2","2","1","2","2","1","0","1","1","0","0","0","1","0","1","1","0","0","0","1","5","4","4","2","4","","2","1","4","3","2","767404514553892865","肖","87","","","","","","","","","","","","","","","","","","","","","","","","","","","","","","feedback_test","","","","","","","","","","","",""
"737","","f","psychophysics","109","267042","0.0-7.0-0.0-4.0-0.0-0.1","3","3","3","4","3","3","3","3","3","4","4","4","2","4","4","4","4","4","4","4","2","2","2","2","2","2","1","2","2","1","0","1","1","0","0","0","1","0","1","1","0","0","0","1","5","4","4","2","4","","2","1","4","3","2","767404514553892865","肖","87","","","","nonmatch","","","","","","","","","","","","","","key","f","26.453968253967883","683","380","f","true","nonmatch","img/ellipse.png","六边","椭圆","ALT1","formal_ALT1_1","","","","","","","","","","","",""
"null","<span style='color:GreenYellow; font-size: 70px;'>正确! </span>","null","html-keyboard-response","110","267552","0.0-7.0-0.0-4.0-0.0-1.1","3","3","3","4","3","3","3","3","3","4","4","4","2","4","4","4","4","4","4","4","2","2","2","2","2","2","1","2","2","1","0","1","1","0","0","0","1","0","1","1","0","0","0","1","5","4","4","2","4","","2","1","4","3","2","767404514553892865","肖","87","","","","","","","","","","","","","","","","","","","","","","","","","","","","","","feedback_test","","","","","","","","","","","",""
"859","","f","psychophysics","111","269420","0.0-7.0-0.0-4.0-0.0-0.2","3","3","3","4","3","3","3","3","3","4","4","4","2","4","4","4","4","4","4","4","2","2","2","2","2","2","1","2","2","1","0","1","1","0","0","0","1","0","1","1","0","0","0","1","5","4","4","2","4","","2","1","4","3","2","767404514553892865","肖","87","","","","nonmatch","","","","","","","","","","","","","","key","f","25.58583098591607","683","380","f","true","nonmatch","img/triangle.png","方形","三角","ALT1","formal_ALT1_1","","","","","","","","","","","",""
"null","<span style='color:GreenYellow; font-size: 70px;'>正确! </span>","null","html-keyboard-response","112","269926","0.0-7.0-0.0-4.0-0.0-1.2","3","3","3","4","3","3","3","3","3","4","4","4","2","4","4","4","4","4","4","4","2","2","2","2","2","2","1","2","2","1","0","1","1","0","0","0","1","0","1","1","0","0","0","1","5","4","4","2","4","","2","1","4","3","2","767404514553892865","肖","87","","","","","","","","","","","","","","","","","","","","","","","","","","","","","","feedback_test","","","","","","","","","","","",""
"571","","j","psychophysics","113","271526","0.0-7.0-0.0-4.0-0.0-0.3","3","3","3","4","3","3","3","3","3","4","4","4","2","4","4","4","4","4","4","4","2","2","2","2","2","2","1","2","2","1","0","1","1","0","0","0","1","0","1","1","0","0","0","1","5","4","4","2","4","","2","1","4","3","2","767404514553892865","肖","87","","","","match","","","","","","","","","","","","","","key","j","28.483709090908945","683","380","j","true","match","img/triangle.png","三角","三角","ALT1","formal_ALT1_1","","","","","","","","","","","",""
"null","<span style='color:GreenYellow; font-size: 70px;'>正确! </span>","null","html-keyboard-response","114","272033","0.0-7.0-0.0-4.0-0.0-1.3","3","3","3","4","3","3","3","3","3","4","4","4","2","4","4","4","4","4","4","4","2","2","2","2","2","2","1","2","2","1","0","1","1","0","0","0","1","0","1","1","0","0","0","1","5","4","4","2","4","","2","1","4","3","2","767404514553892865","肖","87","","","","","","","","","","","","","","","","","","","","","","","","","","","","","","feedback_test","","","","","","","","","","","",""
"696","","j","psychophysics","115","273789","0.0-7.0-0.0-4.0-0.0-0.4","3","3","3","4","3","3","3","3","3","4","4","4","2","4","4","4","4","4","4","4","2","2","2","2","2","2","1","2","2","1","0","1","1","0","0","0","1","0","1","1","0","0","0","1","5","4","4","2","4","","2","1","4","3","2","767404514553892865","肖","87","","","","match","","","","","","","","","","","","","","key","j","26.561437499999556","683","380","j","true","match","img/square.png","方形","方形","ALT1","formal_ALT1_1","","","","","","","","","","","",""
"null","<span style='color:GreenYellow; font-size: 70px;'>正确! </span>","null","html-keyboard-response","116","274297","0.0-7.0-0.0-4.0-0.0-1.4","3","3","3","4","3","3","3","3","3","4","4","4","2","4","4","4","4","4","4","4","2","2","2","2","2","2","1","2","2","1","0","1","1","0","0","0","1","0","1","1","0","0","0","1","5","4","4","2","4","","2","1","4","3","2","767404514553892865","肖","87","","","","","","","","","","","","","","","","","","","","","","","","","","","","","","feedback_test","","","","","","","","","","","",""
"721","","f","psychophysics","117","276026","0.0-7.0-0.0-4.0-0.0-0.5","3","3","3","4","3","3","3","3","3","4","4","4","2","4","4","4","4","4","4","4","2","2","2","2","2","2","1","2","2","1","0","1","1","0","0","0","1","0","1","1","0","0","0","1","5","4","4","2","4","","2","1","4","3","2","767404514553892865","肖","87","","","","nonmatch","","","","","","","","","","","","","","key","f","25.2515151515148","683","380","f","true","nonmatch","img/square.png","三角","方形","ALT1","formal_ALT1_1","","","","","","","","","","","",""
"null","<span style='color:GreenYellow; font-size: 70px;'>正确! </span>","null","html-keyboard-response","118","276529","0.0-7.0-0.0-4.0-0.0-1.5","3","3","3","4","3","3","3","3","3","4","4","4","2","4","4","4","4","4","4","4","2","2","2","2","2","2","1","2","2","1","0","1","1","0","0","0","1","0","1","1","0","0","0","1","5","4","4","2","4","","2","1","4","3","2","767404514553892865","肖","87","","","","","","","","","","","","","","","","","","","","","","","","","","","","","","feedback_test","","","","","","","","","","","",""
"687","","j","psychophysics","119","278249","0.0-7.0-0.0-4.0-0.0-0.6","3","3","3","4","3","3","3","3","3","4","4","4","2","4","4","4","4","4","4","4","2","2","2","2","2","2","1","2","2","1","0","1","1","0","0","0","1","0","1","1","0","0","0","1","5","4","4","2","4","","2","1","4","3","2","767404514553892865","肖","87","","","","match","","","","","","","","","","","","","","key","j","27.321311475409455","683","380","j","true","match","img/ellipse.png","椭圆","椭圆","ALT1","formal_ALT1_1","","","","","","","","","","","",""
"null","<span style='color:GreenYellow; font-size: 70px;'>正确! </span>","null","html-keyboard-response","120","278753","0.0-7.0-0.0-4.0-0.0-1.6","3","3","3","4","3","3","3","3","3","4","4","4","2","4","4","4","4","4","4","4","2","2","2","2","2","2","1","2","2","1","0","1","1","0","0","0","1","0","1","1","0","0","0","1","5","4","4","2","4","","2","1","4","3","2","767404514553892865","肖","87","","","","","","","","","","","","","","","","","","","","","","","","","","","","","","feedback_test","","","","","","","","","","","",""
"675","","j","psychophysics","121","280439","0.0-7.0-0.0-4.0-0.0-0.7","3","3","3","4","3","3","3","3","3","4","4","4","2","4","4","4","4","4","4","4","2","2","2","2","2","2","1","2","2","1","0","1","1","0","0","0","1","0","1","1","0","0","0","1","5","4","4","2","4","","2","1","4","3","2","767404514553892865","肖","87","","","","match","","","","","","","","","","","","","","key","j","25.519812499999716","683","380","j","true","match","img/hexagon.png","六边","六边","ALT1","formal_ALT1_1","","","","","","","","","","","",""
"null","<span style='color:GreenYellow; font-size: 70px;'>正确! </span>","null","html-keyboard-response","122","280945","0.0-7.0-0.0-4.0-0.0-1.7","3","3","3","4","3","3","3","3","3","4","4","4","2","4","4","4","4","4","4","4","2","2","2","2","2","2","1","2","2","1","0","1","1","0","0","0","1","0","1","1","0","0","0","1","5","4","4","2","4","","2","1","4","3","2","767404514553892865","肖","87","","","","","","","","","","","","","","","","","","","","","","","","","","","","","","feedback_test","","","","","","","","","","","",""
"612","","j","psychophysics","123","282578","0.0-7.0-0.0-4.0-0.0-0.8","3","3","3","4","3","3","3","3","3","4","4","4","2","4","4","4","4","4","4","4","2","2","2","2","2","2","1","2","2","1","0","1","1","0","0","0","1","0","1","1","0","0","0","1","5","4","4","2","4","","2","1","4","3","2","767404514553892865","肖","87","","","","match","","","","","","","","","","","","","","key","j","24.998999999999796","683","380","j","true","match","img/hexagon.png","六边","六边","ALT1","formal_ALT1_1","","","","","","","","","","","",""
"null","<span style='color:GreenYellow; font-size: 70px;'>正确! </span>","null","html-keyboard-response","124","283082","0.0-7.0-0.0-4.0-0.0-1.8","3","3","3","4","3","3","3","3","3","4","4","4","2","4","4","4","4","4","4","4","2","2","2","2","2","2","1","2","2","1","0","1","1","0","0","0","1","0","1","1","0","0","0","1","5","4","4","2","4","","2","1","4","3","2","767404514553892865","肖","87","","","","","","","","","","","","","","","","","","","","","","","","","","","","","","feedback_test","","","","","","","","","","","",""
"670","","f","psychophysics","125","284776","0.0-7.0-0.0-4.0-0.0-0.9","3","3","3","4","3","3","3","3","3","4","4","4","2","4","4","4","4","4","4","4","2","2","2","2","2","2","1","2","2","1","0","1","1","0","0","0","1","0","1","1","0","0","0","1","5","4","4","2","4","","2","1","4","3","2","767404514553892865","肖","87","","","","nonmatch","","","","","","","","","","","","","","key","f","26.943366666666893","683","380","f","true","nonmatch","img/square.png","椭圆","方形","ALT1","formal_ALT1_1","","","","","","","","","","","",""
"null","<span style='color:GreenYellow; font-size: 70px;'>正确! </span>","null","html-keyboard-response","126","285281","0.0-7.0-0.0-4.0-0.0-1.9","3","3","3","4","3","3","3","3","3","4","4","4","2","4","4","4","4","4","4","4","2","2","2","2","2","2","1","2","2","1","0","1","1","0","0","0","1","0","1","1","0","0","0","1","5","4","4","2","4","","2","1","4","3","2","767404514553892865","肖","87","","","","","","","","","","","","","","","","","","","","","","","","","","","","","","feedback_test","","","","","","","","","","","",""
"564","","j","psychophysics","127","286885","0.0-7.0-0.0-4.0-0.0-0.10","3","3","3","4","3","3","3","3","3","4","4","4","2","4","4","4","4","4","4","4","2","2","2","2","2","2","1","2","2","1","0","1","1","0","0","0","1","0","1","1","0","0","0","1","5","4","4","2","4","","2","1","4","3","2","767404514553892865","肖","87","","","","match","","","","","","","","","","","","","","key","j","26.72306896551765","683","380","j","true","match","img/square.png","方形","方形","ALT1","formal_ALT1_1","","","","","","","","","","","",""
"null","<span style='color:GreenYellow; font-size: 70px;'>正确! </span>","null","html-keyboard-response","128","287402","0.0-7.0-0.0-4.0-0.0-1.10","3","3","3","4","3","3","3","3","3","4","4","4","2","4","4","4","4","4","4","4","2","2","2","2","2","2","1","2","2","1","0","1","1","0","0","0","1","0","1","1","0","0","0","1","5","4","4","2","4","","2","1","4","3","2","767404514553892865","肖","87","","","","","","","","","","","","","","","","","","","","","","","","","","","","","","feedback_test","","","","","","","","","","","",""
"607","","j","psychophysics","129","289017","0.0-7.0-0.0-4.0-0.0-0.11","3","3","3","4","3","3","3","3","3","4","4","4","2","4","4","4","4","4","4","4","2","2","2","2","2","2","1","2","2","1","0","1","1","0","0","0","1","0","1","1","0","0","0","1","5","4","4","2","4","","2","1","4","3","2","767404514553892865","肖","87","","","","match","","","","","","","","","","","","","","key","j","27.484280701754248","683","380","f","false","nonmatch","img/hexagon.png","方形","六边","ALT1","formal_ALT1_1","","","","","","","","","","","",""
"null","<span style='color:red; font-size: 70px;'>错误! </span>","null","html-keyboard-response","130","289520","0.0-7.0-0.0-4.0-0.0-1.11","3","3","3","4","3","3","3","3","3","4","4","4","2","4","4","4","4","4","4","4","2","2","2","2","2","2","1","2","2","1","0","1","1","0","0","0","1","0","1","1","0","0","0","1","5","4","4","2","4","","2","1","4","3","2","767404514553892865","肖","87","","","","","","","","","","","","","","","","","","","","","","","","","","","","","","feedback_test","","","","","","","","","","","",""
"625","","f","psychophysics","131","291165","0.0-7.0-0.0-4.0-0.0-0.12","3","3","3","4","3","3","3","3","3","4","4","4","2","4","4","4","4","4","4","4","2","2","2","2","2","2","1","2","2","1","0","1","1","0","0","0","1","0","1","1","0","0","0","1","5","4","4","2","4","","2","1","4","3","2","767404514553892865","肖","87","","","","nonmatch","","","","","","","","","","","","","","key","f","25.805419354839437","683","380","f","true","nonmatch","img/ellipse.png","方形","椭圆","ALT1","formal_ALT1_1","","","","","","","","","","","",""
"null","<span style='color:GreenYellow; font-size: 70px;'>正确! </span>","null","html-keyboard-response","132","291673","0.0-7.0-0.0-4.0-0.0-1.12","3","3","3","4","3","3","3","3","3","4","4","4","2","4","4","4","4","4","4","4","2","2","2","2","2","2","1","2","2","1","0","1","1","0","0","0","1","0","1","1","0","0","0","1","5","4","4","2","4","","2","1","4","3","2","767404514553892865","肖","87","","","","","","","","","","","","","","","","","","","","","","","","","","","","","","feedback_test","","","","","","","","","","","",""
"762","","j","psychophysics","133","293439","0.0-7.0-0.0-4.0-0.0-0.13","3","3","3","4","3","3","3","3","3","4","4","4","2","4","4","4","4","4","4","4","2","2","2","2","2","2","1","2","2","1","0","1","1","0","0","0","1","0","1","1","0","0","0","1","5","4","4","2","4","","2","1","4","3","2","767404514553892865","肖","87","","","","match","","","","","","","","","","","","","","key","j","26.409200000000865","683","380","j","true","match","img/triangle.png","三角","三角","ALT1","formal_ALT1_1","","","","","","","","","","","",""
"null","<span style='color:GreenYellow; font-size: 70px;'>正确! </span>","null","html-keyboard-response","134","293945","0.0-7.0-0.0-4.0-0.0-1.13","3","3","3","4","3","3","3","3","3","4","4","4","2","4","4","4","4","4","4","4","2","2","2","2","2","2","1","2","2","1","0","1","1","0","0","0","1","0","1","1","0","0","0","1","5","4","4","2","4","","2","1","4","3","2","767404514553892865","肖","87","","","","","","","","","","","","","","","","","","","","","","","","","","","","","","feedback_test","","","","","","","","","","","",""
"726","","f","psychophysics","135","295748","0.0-7.0-0.0-4.0-0.0-0.14","3","3","3","4","3","3","3","3","3","4","4","4","2","4","4","4","4","4","4","4","2","2","2","2","2","2","1","2","2","1","0","1","1","0","0","0","1","0","1","1","0","0","0","1","5","4","4","2","4","","2","1","4","3","2","767404514553892865","肖","87","","","","nonmatch","","","","","","","","","","","","","","key","f","27.178400000000302","683","380","f","true","nonmatch","img/triangle.png","六边","三角","ALT1","formal_ALT1_1","","","","","","","","","","","",""
"null","<span style='color:GreenYellow; font-size: 70px;'>正确! </span>","null","html-keyboard-response","136","296257","0.0-7.0-0.0-4.0-0.0-1.14","3","3","3","4","3","3","3","3","3","4","4","4","2","4","4","4","4","4","4","4","2","2","2","2","2","2","1","2","2","1","0","1","1","0","0","0","1","0","1","1","0","0","0","1","5","4","4","2","4","","2","1","4","3","2","767404514553892865","肖","87","","","","","","","","","","","","","","","","","","","","","","","","","","","","","","feedback_test","","","","","","","","","","","",""
"739","","j","psychophysics","137","298023","0.0-7.0-0.0-4.0-0.0-0.15","3","3","3","4","3","3","3","3","3","4","4","4","2","4","4","4","4","4","4","4","2","2","2","2","2","2","1","2","2","1","0","1","1","0","0","0","1","0","1","1","0","0","0","1","5","4","4","2","4","","2","1","4","3","2","767404514553892865","肖","87","","","","match","","","","","","","","","","","","","","key","j","25.24408823529409","683","380","j","true","match","img/triangle.png","三角","三角","ALT1","formal_ALT1_1","","","","","","","","","","","",""
"null","<span style='color:GreenYellow; font-size: 70px;'>正确! </span>","null","html-keyboard-response","138","298529","0.0-7.0-0.0-4.0-0.0-1.15","3","3","3","4","3","3","3","3","3","4","4","4","2","4","4","4","4","4","4","4","2","2","2","2","2","2","1","2","2","1","0","1","1","0","0","0","1","0","1","1","0","0","0","1","5","4","4","2","4","","2","1","4","3","2","767404514553892865","肖","87","","","","","","","","","","","","","","","","","","","","","","","","","","","","","","feedback_test","","","","","","","","","","","",""
"720","","f","psychophysics","139","300286","0.0-7.0-0.0-4.0-0.0-0.16","3","3","3","4","3","3","3","3","3","4","4","4","2","4","4","4","4","4","4","4","2","2","2","2","2","2","1","2","2","1","0","1","1","0","0","0","1","0","1","1","0","0","0","1","5","4","4","2","4","","2","1","4","3","2","767404514553892865","肖","87","","","","nonmatch","","","","","","","","","","","","","","key","f","27.247587301587274","683","380","f","true","nonmatch","img/hexagon.png","椭圆","六边","ALT1","formal_ALT1_1","","","","","","","","","","","",""
"null","<span style='color:GreenYellow; font-size: 70px;'>正确! </span>","null","html-keyboard-response","140","300793","0.0-7.0-0.0-4.0-0.0-1.16","3","3","3","4","3","3","3","3","3","4","4","4","2","4","4","4","4","4","4","4","2","2","2","2","2","2","1","2","2","1","0","1","1","0","0","0","1","0","1","1","0","0","0","1","5","4","4","2","4","","2","1","4","3","2","767404514553892865","肖","87","","","","","","","","","","","","","","","","","","","","","","","","","","","","","","feedback_test","","","","","","","","","","","",""
"792","","j","psychophysics","141","302611","0.0-7.0-0.0-4.0-0.0-0.17","3","3","3","4","3","3","3","3","3","4","4","4","2","4","4","4","4","4","4","4","2","2","2","2","2","2","1","2","2","1","0","1","1","0","0","0","1","0","1","1","0","0","0","1","5","4","4","2","4","","2","1","4","3","2","767404514553892865","肖","87","","","","match","","","","","","","","","","","","","","key","j","27.01912121212103","683","380","j","true","match","img/ellipse.png","椭圆","椭圆","ALT1","formal_ALT1_1","","","","","","","","","","","",""
"null","<span style='color:GreenYellow; font-size: 70px;'>正确! </span>","null","html-keyboard-response","142","303121","0.0-7.0-0.0-4.0-0.0-1.17","3","3","3","4","3","3","3","3","3","4","4","4","2","4","4","4","4","4","4","4","2","2","2","2","2","2","1","2","2","1","0","1","1","0","0","0","1","0","1","1","0","0","0","1","5","4","4","2","4","","2","1","4","3","2","767404514553892865","肖","87","","","","","","","","","","","","","","","","","","","","","","","","","","","","","","feedback_test","","","","","","","","","","","",""
"689","","f","psychophysics","143","304853","0.0-7.0-0.0-4.0-0.0-0.18","3","3","3","4","3","3","3","3","3","4","4","4","2","4","4","4","4","4","4","4","2","2","2","2","2","2","1","2","2","1","0","1","1","0","0","0","1","0","1","1","0","0","0","1","5","4","4","2","4","","2","1","4","3","2","767404514553892865","肖","87","","","","nonmatch","","","","","","","","","","","","","","key","f","26.30103125000005","683","380","f","true","nonmatch","img/ellipse.png","三角","椭圆","ALT1","formal_ALT1_1","","","","","","","","","","","",""
"null","<span style='color:GreenYellow; font-size: 70px;'>正确! </span>","null","html-keyboard-response","144","305377","0.0-7.0-0.0-4.0-0.0-1.18","3","3","3","4","3","3","3","3","3","4","4","4","2","4","4","4","4","4","4","4","2","2","2","2","2","2","1","2","2","1","0","1","1","0","0","0","1","0","1","1","0","0","0","1","5","4","4","2","4","","2","1","4","3","2","767404514553892865","肖","87","","","","","","","","","","","","","","","","","","","","","","","","","","","","","","feedback_test","","","","","","","","","","","",""
"635","","j","psychophysics","145","307027","0.0-7.0-0.0-4.0-0.0-0.19","3","3","3","4","3","3","3","3","3","4","4","4","2","4","4","4","4","4","4","4","2","2","2","2","2","2","1","2","2","1","0","1","1","0","0","0","1","0","1","1","0","0","0","1","5","4","4","2","4","","2","1","4","3","2","767404514553892865","肖","87","","","","match","","","","","","","","","","","","","","key","j","26.228459016393227","683","380","f","false","nonmatch","img/triangle.png","椭圆","三角","ALT1","formal_ALT1_1","","","","","","","","","","","",""
"null","<span style='color:red; font-size: 70px;'>错误! </span>","null","html-keyboard-response","146","307529","0.0-7.0-0.0-4.0-0.0-1.19","3","3","3","4","3","3","3","3","3","4","4","4","2","4","4","4","4","4","4","4","2","2","2","2","2","2","1","2","2","1","0","1","1","0","0","0","1","0","1","1","0","0","0","1","5","4","4","2","4","","2","1","4","3","2","767404514553892865","肖","87","","","","","","","","","","","","","","","","","","","","","","","","","","","","","","feedback_test","","","","","","","","","","","",""
"711","","j","psychophysics","147","309249","0.0-7.0-0.0-4.0-0.0-0.20","3","3","3","4","3","3","3","3","3","4","4","4","2","4","4","4","4","4","4","4","2","2","2","2","2","2","1","2","2","1","0","1","1","0","0","0","1","0","1","1","0","0","0","1","5","4","4","2","4","","2","1","4","3","2","767404514553892865","肖","87","","","","match","","","","","","","","","","","","","","key","j","26.453968253968807","683","380","j","true","match","img/ellipse.png","椭圆","椭圆","ALT1","formal_ALT1_1","","","","","","","","","","","",""
"null","<span style='color:GreenYellow; font-size: 70px;'>正确! </span>","null","html-keyboard-response","148","309754","0.0-7.0-0.0-4.0-0.0-1.20","3","3","3","4","3","3","3","3","3","4","4","4","2","4","4","4","4","4","4","4","2","2","2","2","2","2","1","2","2","1","0","1","1","0","0","0","1","0","1","1","0","0","0","1","5","4","4","2","4","","2","1","4","3","2","767404514553892865","肖","87","","","","","","","","","","","","","","","","","","","","","","","","","","","","","","feedback_test","","","","","","","","","","","",""
"null","","null","psychophysics","149","312012","0.0-7.0-0.0-4.0-0.0-0.21","3","3","3","4","3","3","3","3","3","4","4","4","2","4","4","4","4","4","4","4","2","2","2","2","2","2","1","2","2","1","0","1","1","0","0","0","1","0","1","1","0","0","0","1","5","4","4","2","4","","2","1","4","3","2","767404514553892865","肖","87","","","","null","","","","","","","","","","","","","","key","null","29.16549999999973","683","380","f","false","nonmatch","img/square.png","六边","方形","ALT1","formal_ALT1_1","","","","","","","","","","","",""
"null","<span class='add_' style='color:yellow; font-size: 70px;'> 太慢! </span>","null","html-keyboard-response","150","312584","0.0-7.0-0.0-4.0-0.0-1.21","3","3","3","4","3","3","3","3","3","4","4","4","2","4","4","4","4","4","4","4","2","2","2","2","2","2","1","2","2","1","0","1","1","0","0","0","1","0","1","1","0","0","0","1","5","4","4","2","4","","2","1","4","3","2","767404514553892865","肖","87","","","","","","","","","","","","","","","","","","","","","","","","","","","","","","feedback_test","","","","","","","","","","","",""
"690","","f","psychophysics","151","314307","0.0-7.0-0.0-4.0-0.0-0.22","3","3","3","4","3","3","3","3","3","4","4","4","2","4","4","4","4","4","4","4","2","2","2","2","2","2","1","2","2","1","0","1","1","0","0","0","1","0","1","1","0","0","0","1","5","4","4","2","4","","2","1","4","3","2","767404514553892865","肖","87","","","","nonmatch","","","","","","","","","","","","","","key","f","41.66500000000087","683","380","j","false","match","img/square.png","方形","方形","ALT1","formal_ALT1_1","","","","","","","","","","","",""
"null","<span style='color:red; font-size: 70px;'>错误! </span>","null","html-keyboard-response","152","314809","0.0-7.0-0.0-4.0-0.0-1.22","3","3","3","4","3","3","3","3","3","4","4","4","2","4","4","4","4","4","4","4","2","2","2","2","2","2","1","2","2","1","0","1","1","0","0","0","1","0","1","1","0","0","0","1","5","4","4","2","4","","2","1","4","3","2","767404514553892865","肖","87","","","","","","","","","","","","","","","","","","","","","","","","","","","","","","feedback_test","","","","","","","","","","","",""
"587","","j","psychophysics","153","316456","0.0-7.0-0.0-4.0-0.0-0.23","3","3","3","4","3","3","3","3","3","4","4","4","2","4","4","4","4","4","4","4","2","2","2","2","2","2","1","2","2","1","0","1","1","0","0","0","1","0","1","1","0","0","0","1","5","4","4","2","4","","2","1","4","3","2","767404514553892865","肖","87","","","","match","","","","","","","","","","","","","","key","j","36.82023255813997","683","380","j","true","match","img/hexagon.png","六边","六边","ALT1","formal_ALT1_1","","","","","","","","","","","",""
"null","<span style='color:GreenYellow; font-size: 70px;'>正确! </span>","null","html-keyboard-response","154","316961","0.0-7.0-0.0-4.0-0.0-1.23","3","3","3","4","3","3","3","3","3","4","4","4","2","4","4","4","4","4","4","4","2","2","2","2","2","2","1","2","2","1","0","1","1","0","0","0","1","0","1","1","0","0","0","1","5","4","4","2","4","","2","1","4","3","2","767404514553892865","肖","87","","","","","","","","","","","","","","","","","","","","","","","","","","","","","","feedback_test","","","","","","","","","","","",""
"735","","j","psychophysics","155","318720","0.0-7.0-0.0-4.0-0.0-0.24","3","3","3","4","3","3","3","3","3","4","4","4","2","4","4","4","4","4","4","4","2","2","2","2","2","2","1","2","2","1","0","1","1","0","0","0","1","0","1","1","0","0","0","1","5","4","4","2","4","","2","1","4","3","2","767404514553892865","肖","87","","","","match","","","","","","","","","","","","","","key","j","31.171592592592653","683","380","j","true","match","img/square.png","方形","方形","ALT1","formal_ALT1_1","","","","","","","","","","","",""
"null","<span style='color:GreenYellow; font-size: 70px;'>正确! </span>","null","html-keyboard-response","156","319239","0.0-7.0-0.0-4.0-0.0-1.24","3","3","3","4","3","3","3","3","3","4","4","4","2","4","4","4","4","4","4","4","2","2","2","2","2","2","1","2","2","1","0","1","1","0","0","0","1","0","1","1","0","0","0","1","5","4","4","2","4","","2","1","4","3","2","767404514553892865","肖","87","","","","","","","","","","","","","","","","","","","","","","","","","","","","","","feedback_test","","","","","","","","","","","",""
"766","","j","psychophysics","157","321020","0.0-7.0-0.0-4.0-0.0-0.25","3","3","3","4","3","3","3","3","3","4","4","4","2","4","4","4","4","4","4","4","2","2","2","2","2","2","1","2","2","1","0","1","1","0","0","0","1","0","1","1","0","0","0","1","5","4","4","2","4","","2","1","4","3","2","767404514553892865","肖","87","","","","match","","","","","","","","","","","","","","key","j","30.9511428571433","683","380","j","true","match","img/ellipse.png","椭圆","椭圆","ALT1","formal_ALT1_1","","","","","","","","","","","",""
"null","<span style='color:GreenYellow; font-size: 70px;'>正确! </span>","null","html-keyboard-response","158","321529","0.0-7.0-0.0-4.0-0.0-1.25","3","3","3","4","3","3","3","3","3","4","4","4","2","4","4","4","4","4","4","4","2","2","2","2","2","2","1","2","2","1","0","1","1","0","0","0","1","0","1","1","0","0","0","1","5","4","4","2","4","","2","1","4","3","2","767404514553892865","肖","87","","","","","","","","","","","","","","","","","","","","","","","","","","","","","","feedback_test","","","","","","","","","","","",""
"628","","f","psychophysics","159","323189","0.0-7.0-0.0-4.0-0.0-0.26","3","3","3","4","3","3","3","3","3","4","4","4","2","4","4","4","4","4","4","4","2","2","2","2","2","2","1","2","2","1","0","1","1","0","0","0","1","0","1","1","0","0","0","1","5","4","4","2","4","","2","1","4","3","2","767404514553892865","肖","87","","","","nonmatch","","","","","","","","","","","","","","key","f","30.768000000000868","683","380","f","true","nonmatch","img/triangle.png","方形","三角","ALT1","formal_ALT1_1","","","","","","","","","","","",""
"null","<span style='color:GreenYellow; font-size: 70px;'>正确! </span>","null","html-keyboard-response","160","323697","0.0-7.0-0.0-4.0-0.0-1.26","3","3","3","4","3","3","3","3","3","4","4","4","2","4","4","4","4","4","4","4","2","2","2","2","2","2","1","2","2","1","0","1","1","0","0","0","1","0","1","1","0","0","0","1","5","4","4","2","4","","2","1","4","3","2","767404514553892865","肖","87","","","","","","","","","","","","","","","","","","","","","","","","","","","","","","feedback_test","","","","","","","","","","","",""
"726","","f","psychophysics","161","325484","0.0-7.0-0.0-4.0-0.0-0.27","3","3","3","4","3","3","3","3","3","4","4","4","2","4","4","4","4","4","4","4","2","2","2","2","2","2","1","2","2","1","0","1","1","0","0","0","1","0","1","1","0","0","0","1","5","4","4","2","4","","2","1","4","3","2","767404514553892865","肖","87","","","","nonmatch","","","","","","","","","","","","","","key","f","30.65353571428568","683","380","f","true","nonmatch","img/square.png","三角","方形","ALT1","formal_ALT1_1","","","","","","","","","","","",""
"null","<span style='color:GreenYellow; font-size: 70px;'>正确! </span>","null","html-keyboard-response","162","325993","0.0-7.0-0.0-4.0-0.0-1.27","3","3","3","4","3","3","3","3","3","4","4","4","2","4","4","4","4","4","4","4","2","2","2","2","2","2","1","2","2","1","0","1","1","0","0","0","1","0","1","1","0","0","0","1","5","4","4","2","4","","2","1","4","3","2","767404514553892865","肖","87","","","","","","","","","","","","","","","","","","","","","","","","","","","","","","feedback_test","","","","","","","","","","","",""
"655","","j","psychophysics","163","327668","0.0-7.0-0.0-4.0-0.0-0.28","3","3","3","4","3","3","3","3","3","4","4","4","2","4","4","4","4","4","4","4","2","2","2","2","2","2","1","2","2","1","0","1","1","0","0","0","1","0","1","1","0","0","0","1","5","4","4","2","4","","2","1","4","3","2","767404514553892865","肖","87","","","","match","","","","","","","","","","","","","","key","j","31.698078431372814","683","380","j","true","match","img/ellipse.png","椭圆","椭圆","ALT1","formal_ALT1_1","","","","","","","","","","","",""
"null","<span style='color:GreenYellow; font-size: 70px;'>正确! </span>","null","html-keyboard-response","164","328177","0.0-7.0-0.0-4.0-0.0-1.28","3","3","3","4","3","3","3","3","3","4","4","4","2","4","4","4","4","4","4","4","2","2","2","2","2","2","1","2","2","1","0","1","1","0","0","0","1","0","1","1","0","0","0","1","5","4","4","2","4","","2","1","4","3","2","767404514553892865","肖","87","","","","","","","","","","","","","","","","","","","","","","","","","","","","","","feedback_test","","","","","","","","","","","",""
"688","","f","psychophysics","165","329906","0.0-7.0-0.0-4.0-0.0-0.29","3","3","3","4","3","3","3","3","3","4","4","4","2","4","4","4","4","4","4","4","2","2","2","2","2","2","1","2","2","1","0","1","1","0","0","0","1","0","1","1","0","0","0","1","5","4","4","2","4","","2","1","4","3","2","767404514553892865","肖","87","","","","nonmatch","","","","","","","","","","","","","","key","f","31.171592592592653","683","380","f","true","nonmatch","img/triangle.png","六边","三角","ALT1","formal_ALT1_1","","","","","","","","","","","",""
"null","<span style='color:GreenYellow; font-size: 70px;'>正确! </span>","null","html-keyboard-response","166","330410","0.0-7.0-0.0-4.0-0.0-1.29","3","3","3","4","3","3","3","3","3","4","4","4","2","4","4","4","4","4","4","4","2","2","2","2","2","2","1","2","2","1","0","1","1","0","0","0","1","0","1","1","0","0","0","1","5","4","4","2","4","","2","1","4","3","2","767404514553892865","肖","87","","","","","","","","","","","","","","","","","","","","","","","","","","","","","","feedback_test","","","","","","","","","","","",""
"770","","f","psychophysics","167","332205","0.0-7.0-0.0-4.0-0.0-0.30","3","3","3","4","3","3","3","3","3","4","4","4","2","4","4","4","4","4","4","4","2","2","2","2","2","2","1","2","2","1","0","1","1","0","0","0","1","0","1","1","0","0","0","1","5","4","4","2","4","","2","1","4","3","2","767404514553892865","肖","87","","","","nonmatch","","","","","","","","","","","","","","key","f","30.245703703704446","683","380","f","true","nonmatch","img/ellipse.png","三角","椭圆","ALT1","formal_ALT1_1","","","","","","","","","","","",""
"null","<span style='color:GreenYellow; font-size: 70px;'>正确! </span>","null","html-keyboard-response","168","332713","0.0-7.0-0.0-4.0-0.0-1.30","3","3","3","4","3","3","3","3","3","4","4","4","2","4","4","4","4","4","4","4","2","2","2","2","2","2","1","2","2","1","0","1","1","0","0","0","1","0","1","1","0","0","0","1","5","4","4","2","4","","2","1","4","3","2","767404514553892865","肖","87","","","","","","","","","","","","","","","","","","","","","","","","","","","","","","feedback_test","","","","","","","","","","","",""
"716","","j","psychophysics","169","334474","0.0-7.0-0.0-4.0-0.0-0.31","3","3","3","4","3","3","3","3","3","4","4","4","2","4","4","4","4","4","4","4","2","2","2","2","2","2","1","2","2","1","0","1","1","0","0","0","1","0","1","1","0","0","0","1","5","4","4","2","4","","2","1","4","3","2","767404514553892865","肖","87","","","","match","","","","","","","","","","","","","","key","j","30.65353571428568","683","380","j","true","match","img/ellipse.png","椭圆","椭圆","ALT1","formal_ALT1_1","","","","","","","","","","","",""
"null","<span style='color:GreenYellow; font-size: 70px;'>正确! </span>","null","html-keyboard-response","170","334977","0.0-7.0-0.0-4.0-0.0-1.31","3","3","3","4","3","3","3","3","3","4","4","4","2","4","4","4","4","4","4","4","2","2","2","2","2","2","1","2","2","1","0","1","1","0","0","0","1","0","1","1","0","0","0","1","5","4","4","2","4","","2","1","4","3","2","767404514553892865","肖","87","","","","","","","","","","","","","","","","","","","","","","","","","","","","","","feedback_test","","","","","","","","","","","",""
"627","","j","psychophysics","171","336613","0.0-7.0-0.0-4.0-0.0-0.32","3","3","3","4","3","3","3","3","3","4","4","4","2","4","4","4","4","4","4","4","2","2","2","2","2","2","1","2","2","1","0","1","1","0","0","0","1","0","1","1","0","0","0","1","5","4","4","2","4","","2","1","4","3","2","767404514553892865","肖","87","","","","match","","","","","","","","","","","","","","key","j","26.387833333332672","683","380","f","false","nonmatch","img/ellipse.png","六边","椭圆","ALT1","formal_ALT1_1","","","","","","","","","","","",""
"null","<span style='color:red; font-size: 70px;'>错误! </span>","null","html-keyboard-response","172","337121","0.0-7.0-0.0-4.0-0.0-1.32","3","3","3","4","3","3","3","3","3","4","4","4","2","4","4","4","4","4","4","4","2","2","2","2","2","2","1","2","2","1","0","1","1","0","0","0","1","0","1","1","0","0","0","1","5","4","4","2","4","","2","1","4","3","2","767404514553892865","肖","87","","","","","","","","","","","","","","","","","","","","","","","","","","","","","","feedback_test","","","","","","","","","","","",""
"693","","f","psychophysics","173","338847","0.0-7.0-0.0-4.0-0.0-0.33","3","3","3","4","3","3","3","3","3","4","4","4","2","4","4","4","4","4","4","4","2","2","2","2","2","2","1","2","2","1","0","1","1","0","0","0","1","0","1","1","0","0","0","1","5","4","4","2","4","","2","1","4","3","2","767404514553892865","肖","87","","","","nonmatch","","","","","","","","","","","","","","key","f","27.418258064515673","683","380","f","true","nonmatch","img/triangle.png","椭圆","三角","ALT1","formal_ALT1_1","","","","","","","","","","","",""
"null","<span style='color:GreenYellow; font-size: 70px;'>正确! </span>","null","html-keyboard-response","174","339353","0.0-7.0-0.0-4.0-0.0-1.33","3","3","3","4","3","3","3","3","3","4","4","4","2","4","4","4","4","4","4","4","2","2","2","2","2","2","1","2","2","1","0","1","1","0","0","0","1","0","1","1","0","0","0","1","5","4","4","2","4","","2","1","4","3","2","767404514553892865","肖","87","","","","","","","","","","","","","","","","","","","","","","","","","","","","","","feedback_test","","","","","","","","","","","",""
"646","","f","psychophysics","175","341008","0.0-7.0-0.0-4.0-0.0-0.34","3","3","3","4","3","3","3","3","3","4","4","4","2","4","4","4","4","4","4","4","2","2","2","2","2","2","1","2","2","1","0","1","1","0","0","0","1","0","1","1","0","0","0","1","5","4","4","2","4","","2","1","4","3","2","767404514553892865","肖","87","","","","nonmatch","","","","","","","","","","","","","","key","f","27.117559322033678","683","380","f","true","nonmatch","img/hexagon.png","三角","六边","ALT1","formal_ALT1_1","","","","","","","","","","","",""
"null","<span style='color:GreenYellow; font-size: 70px;'>正确! </span>","null","html-keyboard-response","176","341514","0.0-7.0-0.0-4.0-0.0-1.34","3","3","3","4","3","3","3","3","3","4","4","4","2","4","4","4","4","4","4","4","2","2","2","2","2","2","1","2","2","1","0","1","1","0","0","0","1","0","1","1","0","0","0","1","5","4","4","2","4","","2","1","4","3","2","767404514553892865","肖","87","","","","","","","","","","","","","","","","","","","","","","","","","","","","","","feedback_test","","","","","","","","","","","",""
"715","","j","psychophysics","177","343237","0.0-7.0-0.0-4.0-0.0-0.35","3","3","3","4","3","3","3","3","3","4","4","4","2","4","4","4","4","4","4","4","2","2","2","2","2","2","1","2","2","1","0","1","1","0","0","0","1","0","1","1","0","0","0","1","5","4","4","2","4","","2","1","4","3","2","767404514553892865","肖","87","","","","match","","","","","","","","","","","","","","key","j","28.946210526315937","683","380","j","true","match","img/triangle.png","三角","三角","ALT1","formal_ALT1_1","","","","","","","","","","","",""
"null","<span style='color:GreenYellow; font-size: 70px;'>正确! </span>","null","html-keyboard-response","178","343745","0.0-7.0-0.0-4.0-0.0-1.35","3","3","3","4","3","3","3","3","3","4","4","4","2","4","4","4","4","4","4","4","2","2","2","2","2","2","1","2","2","1","0","1","1","0","0","0","1","0","1","1","0","0","0","1","5","4","4","2","4","","2","1","4","3","2","767404514553892865","肖","87","","","","","","","","","","","","","","","","","","","","","","","","","","","","","","feedback_test","","","","","","","","","","","",""
"476","","f","psychophysics","179","345298","0.0-7.0-0.0-4.0-0.0-0.36","3","3","3","4","3","3","3","3","3","4","4","4","2","4","4","4","4","4","4","4","2","2","2","2","2","2","1","2","2","1","0","1","1","0","0","0","1","0","1","1","0","0","0","1","5","4","4","2","4","","2","1","4","3","2","767404514553892865","肖","87","","","","nonmatch","","","","","","","","","","","","","","key","f","27.77666666666671","683","380","j","false","match","img/triangle.png","三角","三角","ALT1","formal_ALT1_1","","","","","","","","","","","",""
"null","<span style='color:red; font-size: 70px;'>错误! </span>","null","html-keyboard-response","180","345801","0.0-7.0-0.0-4.0-0.0-1.36","3","3","3","4","3","3","3","3","3","4","4","4","2","4","4","4","4","4","4","4","2","2","2","2","2","2","1","2","2","1","0","1","1","0","0","0","1","0","1","1","0","0","0","1","5","4","4","2","4","","2","1","4","3","2","767404514553892865","肖","87","","","","","","","","","","","","","","","","","","","","","","","","","","","","","","feedback_test","","","","","","","","","","","",""
"743","","f","psychophysics","181","347548","0.0-7.0-0.0-4.0-0.0-0.37","3","3","3","4","3","3","3","3","3","4","4","4","2","4","4","4","4","4","4","4","2","2","2","2","2","2","1","2","2","1","0","1","1","0","0","0","1","0","1","1","0","0","0","1","5","4","4","2","4","","2","1","4","3","2","767404514553892865","肖","87","","","","nonmatch","","","","","","","","","","","","","","key","f","25.37211940298552","683","380","f","true","nonmatch","img/hexagon.png","椭圆","六边","ALT1","formal_ALT1_1","","","","","","","","","","","",""
"null","<span style='color:GreenYellow; font-size: 70px;'>正确! </span>","null","html-keyboard-response","182","348057","0.0-7.0-0.0-4.0-0.0-1.37","3","3","3","4","3","3","3","3","3","4","4","4","2","4","4","4","4","4","4","4","2","2","2","2","2","2","1","2","2","1","0","1","1","0","0","0","1","0","1","1","0","0","0","1","5","4","4","2","4","","2","1","4","3","2","767404514553892865","肖","87","","","","","","","","","","","","","","","","","","","","","","","","","","","","","","feedback_test","","","","","","","","","","","",""
