"rt","stimulus","response","trial_type","trial_index","time_elapsed","internal_node_id","ses_1","ses_2","ses_3","ses_4","ses_5","ses_6","ses_7","ses_8","ses_9","ses_10","coreself_1","coreself_2","coreself_3","coreself_4","coreself_5","coreself_6","coreself_7","coreself_8","coreself_9","coreself_10","SGPS_1","SGPS_2","SGPS_3","SGPS_4","SGPS_5","SGPS_6","SGPS_7","SGPS_8","SGPS_9","NPI1","NPI2","NPI3","NPI4","NPI5","NPI6","NPI7","NPI8","NPI9","NPI10","NPI11","NPI12","NPI13","NPI14","NPI15","hsns_1","hsns_2","hsns_3","hsns_4","hsns_5","trap1","hsns_6","hsns_7","hsns_8","hsns_9","hsns_10","subj_idx","friend_name","ParticipantID","value","success","user_agent","responses","item_order","radio_event_ids","radio_event_times","key_event_times","mouse_event_times","straightlining","zigzagging","honeypot","timeout","failed_images","failed_audio","failed_video","view_history","response_type","key_press","avg_frame_time","center_x","center_y","correct_response","correct","identity","Image","word","condition","task_id","screen_id","time_stamp","version_attrib","version_target","IAT","RT","varname","summary","version_attrib2","version_target2","question_order","correct_answer","trap1_item"
"9617","
   <p><div style = ""color: white;font-size:25px;"">您好，欢迎参加本次实验。</div> </p>
   <p><div style = ""color: white;font-size:25px;"">为充分保障您的权利，请确保您已经知晓并同意《参与实验同意书》以及《数据公开知情同意书》。</div></p>
   <p><div style = ""color: white;font-size:25px;"">如果您未见过上述内容，请咨询实验员。</div></p>
   <p><div style = ""color: white;font-size:25px;"">如果您选择继续实验，则表示您已经清楚两份知情同意书的内容并同意。</div></p>
   <p><div style = ""color: pink;font-size:30px;"">请确保您记得day0的实验编号，您将在本次实验输入该编号，若您忘记，请咨询实验员后作答。</div></p>
   <p><div style = ""color: lightblue;font-size:25px;"">请您尽可能认真地作答，我们将依据您在各问卷和按键任务中的作答质量发放报酬。</div></p>
   <p> <div style = ""color: green;font-size:25px;""><按空格键至下页></div> </p>
   "," ","html-keyboard-response","0","9620","0.0-0.0","4","3","4","3","4","3","4","3","4","4","4","4","3","4","4","5","4","4","4","4","1","2","2","2","2","2","2","2","2","1","0","1","1","0","0","1","1","0","1","1","0","1","0","1","4","2","2","1","2","1","2","4","2","2","1","756877432623206401","李","586","","","","","","","","","","","","","","","","","","","","","","","","","","","","","","","","","","","","","","","","","",""
"","","","call-function","1","9620","0.0-1.0-0.0","4","3","4","3","4","3","4","3","4","4","4","4","3","4","4","5","4","4","4","4","1","2","2","2","2","2","2","2","2","1","0","1","1","0","0","1","1","0","1","1","0","1","0","1","4","2","2","1","2","1","2","4","2","2","1","756877432623206401","李","586","","","","","","","","","","","","","","","","","","","","","","","","","","","","","","","","","","","","","","","","","",""
"67915","","{""friend_name"":""李"",""ParticipantID"":""586""}","survey-html-form","2","77535","0.0-1.0-1.0","4","3","4","3","4","3","4","3","4","4","4","4","3","4","4","5","4","4","4","4","1","2","2","2","2","2","2","2","2","1","0","1","1","0","0","1","1","0","1","1","0","1","0","1","4","2","2","1","2","1","2","4","2","2","1","756877432623206401","李","586","","","","","","","","","","","","","","","","","","","","","","","","","","","","","","","","","","","","","","","","","",""
"","","","fullscreen","3","110787","0.0-2.0","4","3","4","3","4","3","4","3","4","4","4","4","3","4","4","5","4","4","4","4","1","2","2","2","2","2","2","2","2","1","0","1","1","0","0","1","1","0","1","1","0","1","0","1","4","2","2","1","2","1","2","4","2","2","1","756877432623206401","李","586","","true","","","","","","","","","","","","","","","","","","","","","","","","","","","","","","","","","","","","","","","",""
"21445","","{""Q01"":""4"",""Q02"":""3"",""Q03"":""4"",""Q04"":""3"",""Q05"":""4"",""Q06"":""3"",""Q07"":""4"",""Q08"":""3"",""Q09"":""4"",""Q10"":""4""}","survey-template","4","132234","0.0-3.0","4","3","4","3","4","3","4","3","4","4","4","4","3","4","4","5","4","4","4","4","1","2","2","2","2","2","2","2","2","1","0","1","1","0","0","1","1","0","1","1","0","1","0","1","4","2","2","1","2","1","2","4","2","2","1","756877432623206401","李","586","","","","{""Q01"":""4"",""Q02"":""3"",""Q03"":""4"",""Q04"":""3"",""Q05"":""4"",""Q06"":""3"",""Q07"":""4"",""Q08"":""3"",""Q09"":""4"",""Q10"":""4""}","[0,1,2,3,4,5,6,7,8,9]","[""Q01"",""Q02"",""Q03"",""Q04"",""Q05"",""Q06"",""Q07"",""Q08"",""Q09"",""Q10""]","[4614,5941,7245,8518,10968,12303,14085,15990,18101,19357]","[]","[3094,4614,5941,7245,8518,10968,12303,14085,15990,18101,19357,21445]","0.4","0.3333333333333333","0","","","","","","","","","","","","","","","","","","","","","","","","","","","","","",""
"25582","","{""Q01"":""4"",""Q02"":""4"",""Q03"":""3"",""Q04"":""4"",""Q05"":""4"",""Q06"":""5"",""Q07"":""4"",""Q08"":""4"",""Q09"":""4"",""Q10"":""4""}","survey-template","5","157820","0.0-4.0","4","3","4","3","4","3","4","3","4","4","4","4","3","4","4","5","4","4","4","4","1","2","2","2","2","2","2","2","2","1","0","1","1","0","0","1","1","0","1","1","0","1","0","1","4","2","2","1","2","1","2","4","2","2","1","756877432623206401","李","586","","","","{""Q01"":""4"",""Q02"":""4"",""Q03"":""3"",""Q04"":""4"",""Q05"":""4"",""Q06"":""5"",""Q07"":""4"",""Q08"":""4"",""Q09"":""4"",""Q10"":""4""}","[0,1,2,3,4,5,6,7,8,9]","[""Q01"",""Q02"",""Q02"",""Q03"",""Q04"",""Q05"",""Q06"",""Q07"",""Q07"",""Q08"",""Q09"",""Q10""]","[2893,4413,4773,6549,7813,9341,10878,12861,14141,16037,17582,21445]","[]","[2893,4413,4773,6549,7813,9341,10878,12861,14141,16037,17582,21445,25582]","0.5","0.2222222222222222","0","","","","","","","","","","","","","","","","","","","","","","","","","","","","","",""
"","","","preload","6","158163","0.0-5.0","4","3","4","3","4","3","4","3","4","4","4","4","3","4","4","5","4","4","4","4","1","2","2","2","2","2","2","2","2","1","0","1","1","0","0","1","1","0","1","1","0","1","0","1","4","2","2","1","2","1","2","4","2","2","1","756877432623206401","李","586","","true","","","","","","","","","","","false","[]","[]","[]","","","","","","","","","","","","","","","","","","","","","","","","","",""
"6309","","","instructions","7","164472","0.0-6.0","4","3","4","3","4","3","4","3","4","4","4","4","3","4","4","5","4","4","4","4","1","2","2","2","2","2","2","2","2","1","0","1","1","0","0","1","1","0","1","1","0","1","0","1","4","2","2","1","2","1","2","4","2","2","1","756877432623206401","李","586","","","","","","","","","","","","","","","","","[{""page_index"":0,""viewing_time"":6309}]","","","","","","","","","","","","","","","","","","","","","","","","",""
"15344","","","instructions","8","179817","0.0-7.0-0.0-0.0","4","3","4","3","4","3","4","3","4","4","4","4","3","4","4","5","4","4","4","4","1","2","2","2","2","2","2","2","2","1","0","1","1","0","0","1","1","0","1","1","0","1","0","1","4","2","2","1","2","1","2","4","2","2","1","756877432623206401","李","586","","","","","","","","","","","","","","","","","[{""page_index"":0,""viewing_time"":12017},{""page_index"":1,""viewing_time"":1681},{""page_index"":2,""viewing_time"":1646}]","","","","","","","","","","","","","","","","","","","","","","","","",""
"617","","f","psychophysics","9","181521","0.0-7.0-0.0-1.0-0.0-0.0","4","3","4","3","4","3","4","3","4","4","4","4","3","4","4","5","4","4","4","4","1","2","2","2","2","2","2","2","2","1","0","1","1","0","0","1","1","0","1","1","0","1","0","1","4","2","2","1","2","1","2","4","2","2","1","756877432623206401","李","586","","","","match","","","","","","","","","","","","","","key","f","16.664554455445497","768","428","f","true","match","img/square.png","方形","方形","ALT1_1","prac_ALT1_1","","","","","","","","","","","",""
"null","<span style='color:GreenYellow; font-size: 70px;'>正确! </span>","null","html-keyboard-response","10","182032","0.0-7.0-0.0-1.0-0.0-1.0","4","3","4","3","4","3","4","3","4","4","4","4","3","4","4","5","4","4","4","4","1","2","2","2","2","2","2","2","2","1","0","1","1","0","0","1","1","0","1","1","0","1","0","1","4","2","2","1","2","1","2","4","2","2","1","756877432623206401","李","586","","","","","","","","","","","","","","","","","","","","","","","","","","","","","","feedback_test","","","","","","","","","","","",""
"583","","f","psychophysics","11","183629","0.0-7.0-0.0-1.0-0.0-0.1","4","3","4","3","4","3","4","3","4","4","4","4","3","4","4","5","4","4","4","4","1","2","2","2","2","2","2","2","2","1","0","1","1","0","0","1","1","0","1","1","0","1","0","1","4","2","2","1","2","1","2","4","2","2","1","756877432623206401","李","586","","","","match","","","","","","","","","","","","","","key","f","16.687368421052508","768","428","f","true","match","img/circle.png","圆形","圆形","ALT1_1","prac_ALT1_1","","","","","","","","","","","",""
"null","<span style='color:GreenYellow; font-size: 70px;'>正确! </span>","null","html-keyboard-response","12","184135","0.0-7.0-0.0-1.0-0.0-1.1","4","3","4","3","4","3","4","3","4","4","4","4","3","4","4","5","4","4","4","4","1","2","2","2","2","2","2","2","2","1","0","1","1","0","0","1","1","0","1","1","0","1","0","1","4","2","2","1","2","1","2","4","2","2","1","756877432623206401","李","586","","","","","","","","","","","","","","","","","","","","","","","","","","","","","","feedback_test","","","","","","","","","","","",""
"528","","f","psychophysics","13","185785","0.0-7.0-0.0-1.0-0.0-0.2","4","3","4","3","4","3","4","3","4","4","4","4","3","4","4","5","4","4","4","4","1","2","2","2","2","2","2","2","2","1","0","1","1","0","0","1","1","0","1","1","0","1","0","1","4","2","2","1","2","1","2","4","2","2","1","756877432623206401","李","586","","","","match","","","","","","","","","","","","","","key","f","16.695714285714214","768","428","f","true","match","img/hexagon.png","六边","六边","ALT1_1","prac_ALT1_1","","","","","","","","","","","",""
"null","<span style='color:GreenYellow; font-size: 70px;'>正确! </span>","null","html-keyboard-response","14","186301","0.0-7.0-0.0-1.0-0.0-1.2","4","3","4","3","4","3","4","3","4","4","4","4","3","4","4","5","4","4","4","4","1","2","2","2","2","2","2","2","2","1","0","1","1","0","0","1","1","0","1","1","0","1","0","1","4","2","2","1","2","1","2","4","2","2","1","756877432623206401","李","586","","","","","","","","","","","","","","","","","","","","","","","","","","","","","","feedback_test","","","","","","","","","","","",""
"682","","j","psychophysics","15","187995","0.0-7.0-0.0-1.0-0.0-0.3","4","3","4","3","4","3","4","3","4","4","4","4","3","4","4","5","4","4","4","4","1","2","2","2","2","2","2","2","2","1","0","1","1","0","0","1","1","0","1","1","0","1","0","1","4","2","2","1","2","1","2","4","2","2","1","756877432623206401","李","586","","","","nonmatch","","","","","","","","","","","","","","key","j","16.68752475247527","768","428","j","true","nonmatch","img/square.png","圆形","方形","ALT1_1","prac_ALT1_1","","","","","","","","","","","",""
"null","<span style='color:GreenYellow; font-size: 70px;'>正确! </span>","null","html-keyboard-response","16","188496","0.0-7.0-0.0-1.0-0.0-1.3","4","3","4","3","4","3","4","3","4","4","4","4","3","4","4","5","4","4","4","4","1","2","2","2","2","2","2","2","2","1","0","1","1","0","0","1","1","0","1","1","0","1","0","1","4","2","2","1","2","1","2","4","2","2","1","756877432623206401","李","586","","","","","","","","","","","","","","","","","","","","","","","","","","","","","","feedback_test","","","","","","","","","","","",""
"597","","f","psychophysics","17","190106","0.0-7.0-0.0-1.0-0.0-0.4","4","3","4","3","4","3","4","3","4","4","4","4","3","4","4","5","4","4","4","4","1","2","2","2","2","2","2","2","2","1","0","1","1","0","0","1","1","0","1","1","0","1","0","1","4","2","2","1","2","1","2","4","2","2","1","756877432623206401","李","586","","","","match","","","","","","","","","","","","","","key","f","16.551340206185674","768","428","f","true","match","img/square.png","方形","方形","ALT1_1","prac_ALT1_1","","","","","","","","","","","",""
"null","<span style='color:GreenYellow; font-size: 70px;'>正确! </span>","null","html-keyboard-response","18","190614","0.0-7.0-0.0-1.0-0.0-1.4","4","3","4","3","4","3","4","3","4","4","4","4","3","4","4","5","4","4","4","4","1","2","2","2","2","2","2","2","2","1","0","1","1","0","0","1","1","0","1","1","0","1","0","1","4","2","2","1","2","1","2","4","2","2","1","756877432623206401","李","586","","","","","","","","","","","","","","","","","","","","","","","","","","","","","","feedback_test","","","","","","","","","","","",""
"693","","j","psychophysics","19","192320","0.0-7.0-0.0-1.0-0.0-0.5","4","3","4","3","4","3","4","3","4","4","4","4","3","4","4","5","4","4","4","4","1","2","2","2","2","2","2","2","2","1","0","1","1","0","0","1","1","0","1","1","0","1","0","1","4","2","2","1","2","1","2","4","2","2","1","756877432623206401","李","586","","","","nonmatch","","","","","","","","","","","","","","key","j","16.686336633663437","768","428","j","true","nonmatch","img/circle.png","六边","圆形","ALT1_1","prac_ALT1_1","","","","","","","","","","","",""
"null","<span style='color:GreenYellow; font-size: 70px;'>正确! </span>","null","html-keyboard-response","20","192826","0.0-7.0-0.0-1.0-0.0-1.5","4","3","4","3","4","3","4","3","4","4","4","4","3","4","4","5","4","4","4","4","1","2","2","2","2","2","2","2","2","1","0","1","1","0","0","1","1","0","1","1","0","1","0","1","4","2","2","1","2","1","2","4","2","2","1","756877432623206401","李","586","","","","","","","","","","","","","","","","","","","","","","","","","","","","","","feedback_test","","","","","","","","","","","",""
"674","","j","psychophysics","21","194513","0.0-7.0-0.0-1.0-0.0-0.6","4","3","4","3","4","3","4","3","4","4","4","4","3","4","4","5","4","4","4","4","1","2","2","2","2","2","2","2","2","1","0","1","1","0","0","1","1","0","1","1","0","1","0","1","4","2","2","1","2","1","2","4","2","2","1","756877432623206401","李","586","","","","nonmatch","","","","","","","","","","","","","","key","j","16.69","768","428","j","true","nonmatch","img/hexagon.png","梯形","六边","ALT1_1","prac_ALT1_1","","","","","","","","","","","",""
"null","<span style='color:GreenYellow; font-size: 70px;'>正确! </span>","null","html-keyboard-response","22","195068","0.0-7.0-0.0-1.0-0.0-1.6","4","3","4","3","4","3","4","3","4","4","4","4","3","4","4","5","4","4","4","4","1","2","2","2","2","2","2","2","2","1","0","1","1","0","0","1","1","0","1","1","0","1","0","1","4","2","2","1","2","1","2","4","2","2","1","756877432623206401","李","586","","","","","","","","","","","","","","","","","","","","","","","","","","","","","","feedback_test","","","","","","","","","","","",""
"712","","j","psychophysics","23","196793","0.0-7.0-0.0-1.0-0.0-0.7","4","3","4","3","4","3","4","3","4","4","4","4","3","4","4","5","4","4","4","4","1","2","2","2","2","2","2","2","2","1","0","1","1","0","0","1","1","0","1","1","0","1","0","1","4","2","2","1","2","1","2","4","2","2","1","756877432623206401","李","586","","","","nonmatch","","","","","","","","","","","","","","key","j","16.677281553397865","768","428","j","true","nonmatch","img/circle.png","方形","圆形","ALT1_1","prac_ALT1_1","","","","","","","","","","","",""
"null","<span style='color:GreenYellow; font-size: 70px;'>正确! </span>","null","html-keyboard-response","24","197293","0.0-7.0-0.0-1.0-0.0-1.7","4","3","4","3","4","3","4","3","4","4","4","4","3","4","4","5","4","4","4","4","1","2","2","2","2","2","2","2","2","1","0","1","1","0","0","1","1","0","1","1","0","1","0","1","4","2","2","1","2","1","2","4","2","2","1","756877432623206401","李","586","","","","","","","","","","","","","","","","","","","","","","","","","","","","","","feedback_test","","","","","","","","","","","",""
"704","","j","psychophysics","25","199009","0.0-7.0-0.0-1.0-0.0-0.8","4","3","4","3","4","3","4","3","4","4","4","4","3","4","4","5","4","4","4","4","1","2","2","2","2","2","2","2","2","1","0","1","1","0","0","1","1","0","1","1","0","1","0","1","4","2","2","1","2","1","2","4","2","2","1","756877432623206401","李","586","","","","nonmatch","","","","","","","","","","","","","","key","j","16.663725490195908","768","428","j","true","nonmatch","img/circle.png","梯形","圆形","ALT1_1","prac_ALT1_1","","","","","","","","","","","",""
"null","<span style='color:GreenYellow; font-size: 70px;'>正确! </span>","null","html-keyboard-response","26","199518","0.0-7.0-0.0-1.0-0.0-1.8","4","3","4","3","4","3","4","3","4","4","4","4","3","4","4","5","4","4","4","4","1","2","2","2","2","2","2","2","2","1","0","1","1","0","0","1","1","0","1","1","0","1","0","1","4","2","2","1","2","1","2","4","2","2","1","756877432623206401","李","586","","","","","","","","","","","","","","","","","","","","","","","","","","","","","","feedback_test","","","","","","","","","","","",""
"698","","f","psychophysics","27","201225","0.0-7.0-0.0-1.0-0.0-0.9","4","3","4","3","4","3","4","3","4","4","4","4","3","4","4","5","4","4","4","4","1","2","2","2","2","2","2","2","2","1","0","1","1","0","0","1","1","0","1","1","0","1","0","1","4","2","2","1","2","1","2","4","2","2","1","756877432623206401","李","586","","","","match","","","","","","","","","","","","","","key","f","16.685544554455355","768","428","f","true","match","img/circle.png","圆形","圆形","ALT1_1","prac_ALT1_1","","","","","","","","","","","",""
"null","<span style='color:GreenYellow; font-size: 70px;'>正确! </span>","null","html-keyboard-response","28","201727","0.0-7.0-0.0-1.0-0.0-1.9","4","3","4","3","4","3","4","3","4","4","4","4","3","4","4","5","4","4","4","4","1","2","2","2","2","2","2","2","2","1","0","1","1","0","0","1","1","0","1","1","0","1","0","1","4","2","2","1","2","1","2","4","2","2","1","756877432623206401","李","586","","","","","","","","","","","","","","","","","","","","","","","","","","","","","","feedback_test","","","","","","","","","","","",""
"613","","j","psychophysics","29","203353","0.0-7.0-0.0-1.0-0.0-0.10","4","3","4","3","4","3","4","3","4","4","4","4","3","4","4","5","4","4","4","4","1","2","2","2","2","2","2","2","2","1","0","1","1","0","0","1","1","0","1","1","0","1","0","1","4","2","2","1","2","1","2","4","2","2","1","756877432623206401","李","586","","","","nonmatch","","","","","","","","","","","","","","key","j","16.70082474226815","768","428","j","true","nonmatch","img/trapezoid.png","方形","梯形","ALT1_1","prac_ALT1_1","","","","","","","","","","","",""
"null","<span style='color:GreenYellow; font-size: 70px;'>正确! </span>","null","html-keyboard-response","30","203858","0.0-7.0-0.0-1.0-0.0-1.10","4","3","4","3","4","3","4","3","4","4","4","4","3","4","4","5","4","4","4","4","1","2","2","2","2","2","2","2","2","1","0","1","1","0","0","1","1","0","1","1","0","1","0","1","4","2","2","1","2","1","2","4","2","2","1","756877432623206401","李","586","","","","","","","","","","","","","","","","","","","","","","","","","","","","","","feedback_test","","","","","","","","","","","",""
"712","","j","psychophysics","31","205585","0.0-7.0-0.0-1.0-0.0-0.11","4","3","4","3","4","3","4","3","4","4","4","4","3","4","4","5","4","4","4","4","1","2","2","2","2","2","2","2","2","1","0","1","1","0","0","1","1","0","1","1","0","1","0","1","4","2","2","1","2","1","2","4","2","2","1","756877432623206401","李","586","","","","nonmatch","","","","","","","","","","","","","","key","j","16.687184466019406","768","428","j","true","nonmatch","img/trapezoid.png","六边","梯形","ALT1_1","prac_ALT1_1","","","","","","","","","","","",""
"null","<span style='color:GreenYellow; font-size: 70px;'>正确! </span>","null","html-keyboard-response","32","206098","0.0-7.0-0.0-1.0-0.0-1.11","4","3","4","3","4","3","4","3","4","4","4","4","3","4","4","5","4","4","4","4","1","2","2","2","2","2","2","2","2","1","0","1","1","0","0","1","1","0","1","1","0","1","0","1","4","2","2","1","2","1","2","4","2","2","1","756877432623206401","李","586","","","","","","","","","","","","","","","","","","","","","","","","","","","","","","feedback_test","","","","","","","","","","","",""
"612","","j","psychophysics","33","207817","0.0-7.0-0.0-1.0-0.0-0.12","4","3","4","3","4","3","4","3","4","4","4","4","3","4","4","5","4","4","4","4","1","2","2","2","2","2","2","2","2","1","0","1","1","0","0","1","1","0","1","1","0","1","0","1","4","2","2","1","2","1","2","4","2","2","1","756877432623206401","李","586","","","","nonmatch","","","","","","","","","","","","","","key","j","16.664313725490288","768","428","j","true","nonmatch","img/trapezoid.png","圆形","梯形","ALT1_1","prac_ALT1_1","","","","","","","","","","","",""
"null","<span style='color:GreenYellow; font-size: 70px;'>正确! </span>","null","html-keyboard-response","34","208325","0.0-7.0-0.0-1.0-0.0-1.12","4","3","4","3","4","3","4","3","4","4","4","4","3","4","4","5","4","4","4","4","1","2","2","2","2","2","2","2","2","1","0","1","1","0","0","1","1","0","1","1","0","1","0","1","4","2","2","1","2","1","2","4","2","2","1","756877432623206401","李","586","","","","","","","","","","","","","","","","","","","","","","","","","","","","","","feedback_test","","","","","","","","","","","",""
"615","","f","psychophysics","35","209953","0.0-7.0-0.0-1.0-0.0-0.13","4","3","4","3","4","3","4","3","4","4","4","4","3","4","4","5","4","4","4","4","1","2","2","2","2","2","2","2","2","1","0","1","1","0","0","1","1","0","1","1","0","1","0","1","4","2","2","1","2","1","2","4","2","2","1","756877432623206401","李","586","","","","match","","","","","","","","","","","","","","key","f","16.6964948453608","768","428","f","true","match","img/circle.png","圆形","圆形","ALT1_1","prac_ALT1_1","","","","","","","","","","","",""
"null","<span style='color:GreenYellow; font-size: 70px;'>正确! </span>","null","html-keyboard-response","36","210468","0.0-7.0-0.0-1.0-0.0-1.13","4","3","4","3","4","3","4","3","4","4","4","4","3","4","4","5","4","4","4","4","1","2","2","2","2","2","2","2","2","1","0","1","1","0","0","1","1","0","1","1","0","1","0","1","4","2","2","1","2","1","2","4","2","2","1","756877432623206401","李","586","","","","","","","","","","","","","","","","","","","","","","","","","","","","","","feedback_test","","","","","","","","","","","",""
"878","","f","psychophysics","37","212353","0.0-7.0-0.0-1.0-0.0-0.14","4","3","4","3","4","3","4","3","4","4","4","4","3","4","4","5","4","4","4","4","1","2","2","2","2","2","2","2","2","1","0","1","1","0","0","1","1","0","1","1","0","1","0","1","4","2","2","1","2","1","2","4","2","2","1","756877432623206401","李","586","","","","match","","","","","","","","","","","","","","key","f","16.684464285714316","768","428","f","true","match","img/trapezoid.png","梯形","梯形","ALT1_1","prac_ALT1_1","","","","","","","","","","","",""
"null","<span style='color:GreenYellow; font-size: 70px;'>正确! </span>","null","html-keyboard-response","38","212859","0.0-7.0-0.0-1.0-0.0-1.14","4","3","4","3","4","3","4","3","4","4","4","4","3","4","4","5","4","4","4","4","1","2","2","2","2","2","2","2","2","1","0","1","1","0","0","1","1","0","1","1","0","1","0","1","4","2","2","1","2","1","2","4","2","2","1","756877432623206401","李","586","","","","","","","","","","","","","","","","","","","","","","","","","","","","","","feedback_test","","","","","","","","","","","",""
"923","","f","psychophysics","39","214792","0.0-7.0-0.0-1.0-0.0-0.15","4","3","4","3","4","3","4","3","4","4","4","4","3","4","4","5","4","4","4","4","1","2","2","2","2","2","2","2","2","1","0","1","1","0","0","1","1","0","1","1","0","1","0","1","4","2","2","1","2","1","2","4","2","2","1","756877432623206401","李","586","","","","match","","","","","","","","","","","","","","key","f","16.6852173913045","768","428","f","true","match","img/hexagon.png","六边","六边","ALT1_1","prac_ALT1_1","","","","","","","","","","","",""
"null","<span style='color:GreenYellow; font-size: 70px;'>正确! </span>","null","html-keyboard-response","40","215303","0.0-7.0-0.0-1.0-0.0-1.15","4","3","4","3","4","3","4","3","4","4","4","4","3","4","4","5","4","4","4","4","1","2","2","2","2","2","2","2","2","1","0","1","1","0","0","1","1","0","1","1","0","1","0","1","4","2","2","1","2","1","2","4","2","2","1","756877432623206401","李","586","","","","","","","","","","","","","","","","","","","","","","","","","","","","","","feedback_test","","","","","","","","","","","",""
"727","","j","psychophysics","41","217121","0.0-7.0-0.0-1.0-0.0-0.16","4","3","4","3","4","3","4","3","4","4","4","4","3","4","4","5","4","4","4","4","1","2","2","2","2","2","2","2","2","1","0","1","1","0","0","1","1","0","1","1","0","1","0","1","4","2","2","1","2","1","2","4","2","2","1","756877432623206401","李","586","","","","nonmatch","","","","","","","","","","","","","","key","j","16.695370370370423","768","428","j","true","nonmatch","img/hexagon.png","圆形","六边","ALT1_1","prac_ALT1_1","","","","","","","","","","","",""
"null","<span style='color:GreenYellow; font-size: 70px;'>正确! </span>","null","html-keyboard-response","42","217633","0.0-7.0-0.0-1.0-0.0-1.16","4","3","4","3","4","3","4","3","4","4","4","4","3","4","4","5","4","4","4","4","1","2","2","2","2","2","2","2","2","1","0","1","1","0","0","1","1","0","1","1","0","1","0","1","4","2","2","1","2","1","2","4","2","2","1","756877432623206401","李","586","","","","","","","","","","","","","","","","","","","","","","","","","","","","","","feedback_test","","","","","","","","","","","",""
"592","","j","psychophysics","43","219345","0.0-7.0-0.0-1.0-0.0-0.17","4","3","4","3","4","3","4","3","4","4","4","4","3","4","4","5","4","4","4","4","1","2","2","2","2","2","2","2","2","1","0","1","1","0","0","1","1","0","1","1","0","1","0","1","4","2","2","1","2","1","2","4","2","2","1","756877432623206401","李","586","","","","nonmatch","","","","","","","","","","","","","","key","j","16.684901960784178","768","428","j","true","nonmatch","img/hexagon.png","方形","六边","ALT1_1","prac_ALT1_1","","","","","","","","","","","",""
"null","<span style='color:GreenYellow; font-size: 70px;'>正确! </span>","null","html-keyboard-response","44","219857","0.0-7.0-0.0-1.0-0.0-1.17","4","3","4","3","4","3","4","3","4","4","4","4","3","4","4","5","4","4","4","4","1","2","2","2","2","2","2","2","2","1","0","1","1","0","0","1","1","0","1","1","0","1","0","1","4","2","2","1","2","1","2","4","2","2","1","756877432623206401","李","586","","","","","","","","","","","","","","","","","","","","","","","","","","","","","","feedback_test","","","","","","","","","","","",""
"635","","f","psychophysics","45","221505","0.0-7.0-0.0-1.0-0.0-0.18","4","3","4","3","4","3","4","3","4","4","4","4","3","4","4","5","4","4","4","4","1","2","2","2","2","2","2","2","2","1","0","1","1","0","0","1","1","0","1","1","0","1","0","1","4","2","2","1","2","1","2","4","2","2","1","756877432623206401","李","586","","","","match","","","","","","","","","","","","","","key","f","16.697346938775773","768","428","f","true","match","img/hexagon.png","六边","六边","ALT1_1","prac_ALT1_1","","","","","","","","","","","",""
"null","<span style='color:GreenYellow; font-size: 70px;'>正确! </span>","null","html-keyboard-response","46","222006","0.0-7.0-0.0-1.0-0.0-1.18","4","3","4","3","4","3","4","3","4","4","4","4","3","4","4","5","4","4","4","4","1","2","2","2","2","2","2","2","2","1","0","1","1","0","0","1","1","0","1","1","0","1","0","1","4","2","2","1","2","1","2","4","2","2","1","756877432623206401","李","586","","","","","","","","","","","","","","","","","","","","","","","","","","","","","","feedback_test","","","","","","","","","","","",""
"673","","j","psychophysics","47","223690","0.0-7.0-0.0-1.0-0.0-0.19","4","3","4","3","4","3","4","3","4","4","4","4","3","4","4","5","4","4","4","4","1","2","2","2","2","2","2","2","2","1","0","1","1","0","0","1","1","0","1","1","0","1","0","1","4","2","2","1","2","1","2","4","2","2","1","756877432623206401","李","586","","","","nonmatch","","","","","","","","","","","","","","key","j","16.698000000000174","768","428","j","true","nonmatch","img/square.png","梯形","方形","ALT1_1","prac_ALT1_1","","","","","","","","","","","",""
"null","<span style='color:GreenYellow; font-size: 70px;'>正确! </span>","null","html-keyboard-response","48","224200","0.0-7.0-0.0-1.0-0.0-1.19","4","3","4","3","4","3","4","3","4","4","4","4","3","4","4","5","4","4","4","4","1","2","2","2","2","2","2","2","2","1","0","1","1","0","0","1","1","0","1","1","0","1","0","1","4","2","2","1","2","1","2","4","2","2","1","756877432623206401","李","586","","","","","","","","","","","","","","","","","","","","","","","","","","","","","","feedback_test","","","","","","","","","","","",""
"643","","j","psychophysics","49","225856","0.0-7.0-0.0-1.0-0.0-0.20","4","3","4","3","4","3","4","3","4","4","4","4","3","4","4","5","4","4","4","4","1","2","2","2","2","2","2","2","2","1","0","1","1","0","0","1","1","0","1","1","0","1","0","1","4","2","2","1","2","1","2","4","2","2","1","756877432623206401","李","586","","","","nonmatch","","","","","","","","","","","","","","key","j","16.55333333333332","768","428","j","true","nonmatch","img/square.png","六边","方形","ALT1_1","prac_ALT1_1","","","","","","","","","","","",""
"null","<span style='color:GreenYellow; font-size: 70px;'>正确! </span>","null","html-keyboard-response","50","226364","0.0-7.0-0.0-1.0-0.0-1.20","4","3","4","3","4","3","4","3","4","4","4","4","3","4","4","5","4","4","4","4","1","2","2","2","2","2","2","2","2","1","0","1","1","0","0","1","1","0","1","1","0","1","0","1","4","2","2","1","2","1","2","4","2","2","1","756877432623206401","李","586","","","","","","","","","","","","","","","","","","","","","","","","","","","","","","feedback_test","","","","","","","","","","","",""
"710","","f","psychophysics","51","228090","0.0-7.0-0.0-1.0-0.0-0.21","4","3","4","3","4","3","4","3","4","4","4","4","3","4","4","5","4","4","4","4","1","2","2","2","2","2","2","2","2","1","0","1","1","0","0","1","1","0","1","1","0","1","0","1","4","2","2","1","2","1","2","4","2","2","1","756877432623206401","李","586","","","","match","","","","","","","","","","","","","","key","f","16.699223300971056","768","428","f","true","match","img/trapezoid.png","梯形","梯形","ALT1_1","prac_ALT1_1","","","","","","","","","","","",""
"null","<span style='color:GreenYellow; font-size: 70px;'>正确! </span>","null","html-keyboard-response","52","228591","0.0-7.0-0.0-1.0-0.0-1.21","4","3","4","3","4","3","4","3","4","4","4","4","3","4","4","5","4","4","4","4","1","2","2","2","2","2","2","2","2","1","0","1","1","0","0","1","1","0","1","1","0","1","0","1","4","2","2","1","2","1","2","4","2","2","1","756877432623206401","李","586","","","","","","","","","","","","","","","","","","","","","","","","","","","","","","feedback_test","","","","","","","","","","","",""
"671","","f","psychophysics","53","230273","0.0-7.0-0.0-1.0-0.0-0.22","4","3","4","3","4","3","4","3","4","4","4","4","3","4","4","5","4","4","4","4","1","2","2","2","2","2","2","2","2","1","0","1","1","0","0","1","1","0","1","1","0","1","0","1","4","2","2","1","2","1","2","4","2","2","1","756877432623206401","李","586","","","","match","","","","","","","","","","","","","","key","f","16.68720000000001","768","428","f","true","match","img/square.png","方形","方形","ALT1_1","prac_ALT1_1","","","","","","","","","","","",""
"null","<span style='color:GreenYellow; font-size: 70px;'>正确! </span>","null","html-keyboard-response","54","230784","0.0-7.0-0.0-1.0-0.0-1.22","4","3","4","3","4","3","4","3","4","4","4","4","3","4","4","5","4","4","4","4","1","2","2","2","2","2","2","2","2","1","0","1","1","0","0","1","1","0","1","1","0","1","0","1","4","2","2","1","2","1","2","4","2","2","1","756877432623206401","李","586","","","","","","","","","","","","","","","","","","","","","","","","","","","","","","feedback_test","","","","","","","","","","","",""
"692","","f","psychophysics","55","232489","0.0-7.0-0.0-1.0-0.0-0.23","4","3","4","3","4","3","4","3","4","4","4","4","3","4","4","5","4","4","4","4","1","2","2","2","2","2","2","2","2","1","0","1","1","0","0","1","1","0","1","1","0","1","0","1","4","2","2","1","2","1","2","4","2","2","1","756877432623206401","李","586","","","","match","","","","","","","","","","","","","","key","f","16.690297029702982","768","428","f","true","match","img/trapezoid.png","梯形","梯形","ALT1_1","prac_ALT1_1","","","","","","","","","","","",""
"null","<span style='color:GreenYellow; font-size: 70px;'>正确! </span>","null","html-keyboard-response","56","232995","0.0-7.0-0.0-1.0-0.0-1.23","4","3","4","3","4","3","4","3","4","4","4","4","3","4","4","5","4","4","4","4","1","2","2","2","2","2","2","2","2","1","0","1","1","0","0","1","1","0","1","1","0","1","0","1","4","2","2","1","2","1","2","4","2","2","1","756877432623206401","李","586","","","","","","","","","","","","","","","","","","","","","","","","","","","","","","feedback_test","","","","","","","","","","","",""
"488","","j","psychophysics","57","234618","0.0-7.0-0.0-1.0-0.0-0.24","4","3","4","3","4","3","4","3","4","4","4","4","3","4","4","5","4","4","4","4","1","2","2","2","2","2","2","2","2","1","0","1","1","0","0","1","1","0","1","1","0","1","0","1","4","2","2","1","2","1","2","4","2","2","1","756877432623206401","李","586","","","","nonmatch","","","","","","","","","","","","","","key","j","16.689072164948417","768","428","j","true","nonmatch","img/hexagon.png","圆形","六边","ALT1_1","prac_ALT1_1","","","","","","","","","","","",""
"null","<span style='color:GreenYellow; font-size: 70px;'>正确! </span>","null","html-keyboard-response","58","235144","0.0-7.0-0.0-1.0-0.0-1.24","4","3","4","3","4","3","4","3","4","4","4","4","3","4","4","5","4","4","4","4","1","2","2","2","2","2","2","2","2","1","0","1","1","0","0","1","1","0","1","1","0","1","0","1","4","2","2","1","2","1","2","4","2","2","1","756877432623206401","李","586","","","","","","","","","","","","","","","","","","","","","","","","","","","","","","feedback_test","","","","","","","","","","","",""
"608","","f","psychophysics","59","236769","0.0-7.0-0.0-1.0-0.0-0.25","4","3","4","3","4","3","4","3","4","4","4","4","3","4","4","5","4","4","4","4","1","2","2","2","2","2","2","2","2","1","0","1","1","0","0","1","1","0","1","1","0","1","0","1","4","2","2","1","2","1","2","4","2","2","1","756877432623206401","李","586","","","","match","","","","","","","","","","","","","","key","f","16.664536082474143","768","428","f","true","match","img/square.png","方形","方形","ALT1_1","prac_ALT1_1","","","","","","","","","","","",""
"null","<span style='color:GreenYellow; font-size: 70px;'>正确! </span>","null","html-keyboard-response","60","237283","0.0-7.0-0.0-1.0-0.0-1.25","4","3","4","3","4","3","4","3","4","4","4","4","3","4","4","5","4","4","4","4","1","2","2","2","2","2","2","2","2","1","0","1","1","0","0","1","1","0","1","1","0","1","0","1","4","2","2","1","2","1","2","4","2","2","1","756877432623206401","李","586","","","","","","","","","","","","","","","","","","","","","","","","","","","","","","feedback_test","","","","","","","","","","","",""
"672","","j","psychophysics","61","238969","0.0-7.0-0.0-1.0-0.0-0.26","4","3","4","3","4","3","4","3","4","4","4","4","3","4","4","5","4","4","4","4","1","2","2","2","2","2","2","2","2","1","0","1","1","0","0","1","1","0","1","1","0","1","0","1","4","2","2","1","2","1","2","4","2","2","1","756877432623206401","李","586","","","","nonmatch","","","","","","","","","","","","","","key","j","16.68359999999986","768","428","j","true","nonmatch","img/hexagon.png","方形","六边","ALT1_1","prac_ALT1_1","","","","","","","","","","","",""
"null","<span style='color:GreenYellow; font-size: 70px;'>正确! </span>","null","html-keyboard-response","62","239472","0.0-7.0-0.0-1.0-0.0-1.26","4","3","4","3","4","3","4","3","4","4","4","4","3","4","4","5","4","4","4","4","1","2","2","2","2","2","2","2","2","1","0","1","1","0","0","1","1","0","1","1","0","1","0","1","4","2","2","1","2","1","2","4","2","2","1","756877432623206401","李","586","","","","","","","","","","","","","","","","","","","","","","","","","","","","","","feedback_test","","","","","","","","","","","",""
"623","","j","psychophysics","63","241097","0.0-7.0-0.0-1.0-0.0-0.27","4","3","4","3","4","3","4","3","4","4","4","4","3","4","4","5","4","4","4","4","1","2","2","2","2","2","2","2","2","1","0","1","1","0","0","1","1","0","1","1","0","1","0","1","4","2","2","1","2","1","2","4","2","2","1","756877432623206401","李","586","","","","nonmatch","","","","","","","","","","","","","","key","j","16.69030927835043","768","428","j","true","nonmatch","img/square.png","六边","方形","ALT1_1","prac_ALT1_1","","","","","","","","","","","",""
"null","<span style='color:GreenYellow; font-size: 70px;'>正确! </span>","null","html-keyboard-response","64","241598","0.0-7.0-0.0-1.0-0.0-1.27","4","3","4","3","4","3","4","3","4","4","4","4","3","4","4","5","4","4","4","4","1","2","2","2","2","2","2","2","2","1","0","1","1","0","0","1","1","0","1","1","0","1","0","1","4","2","2","1","2","1","2","4","2","2","1","756877432623206401","李","586","","","","","","","","","","","","","","","","","","","","","","","","","","","","","","feedback_test","","","","","","","","","","","",""
"616","","j","psychophysics","65","243293","0.0-7.0-0.0-1.0-0.0-0.28","4","3","4","3","4","3","4","3","4","4","4","4","3","4","4","5","4","4","4","4","1","2","2","2","2","2","2","2","2","1","0","1","1","0","0","1","1","0","1","1","0","1","0","1","4","2","2","1","2","1","2","4","2","2","1","756877432623206401","李","586","","","","nonmatch","","","","","","","","","","","","","","key","j","16.664356435643622","768","428","j","true","nonmatch","img/hexagon.png","梯形","六边","ALT1_1","prac_ALT1_1","","","","","","","","","","","",""
"null","<span style='color:GreenYellow; font-size: 70px;'>正确! </span>","null","html-keyboard-response","66","243797","0.0-7.0-0.0-1.0-0.0-1.28","4","3","4","3","4","3","4","3","4","4","4","4","3","4","4","5","4","4","4","4","1","2","2","2","2","2","2","2","2","1","0","1","1","0","0","1","1","0","1","1","0","1","0","1","4","2","2","1","2","1","2","4","2","2","1","756877432623206401","李","586","","","","","","","","","","","","","","","","","","","","","","","","","","","","","","feedback_test","","","","","","","","","","","",""
"583","","f","psychophysics","67","245393","0.0-7.0-0.0-1.0-0.0-0.29","4","3","4","3","4","3","4","3","4","4","4","4","3","4","4","5","4","4","4","4","1","2","2","2","2","2","2","2","2","1","0","1","1","0","0","1","1","0","1","1","0","1","0","1","4","2","2","1","2","1","2","4","2","2","1","756877432623206401","李","586","","","","match","","","","","","","","","","","","","","key","f","16.684842105263133","768","428","f","true","match","img/trapezoid.png","梯形","梯形","ALT1_1","prac_ALT1_1","","","","","","","","","","","",""
"null","<span style='color:GreenYellow; font-size: 70px;'>正确! </span>","null","html-keyboard-response","68","245900","0.0-7.0-0.0-1.0-0.0-1.29","4","3","4","3","4","3","4","3","4","4","4","4","3","4","4","5","4","4","4","4","1","2","2","2","2","2","2","2","2","1","0","1","1","0","0","1","1","0","1","1","0","1","0","1","4","2","2","1","2","1","2","4","2","2","1","756877432623206401","李","586","","","","","","","","","","","","","","","","","","","","","","","","","","","","","","feedback_test","","","","","","","","","","","",""
"552","","f","psychophysics","69","247528","0.0-7.0-0.0-1.0-0.0-0.30","4","3","4","3","4","3","4","3","4","4","4","4","3","4","4","5","4","4","4","4","1","2","2","2","2","2","2","2","2","1","0","1","1","0","0","1","1","0","1","1","0","1","0","1","4","2","2","1","2","1","2","4","2","2","1","756877432623206401","李","586","","","","match","","","","","","","","","","","","","","key","f","16.68288659793835","768","428","j","false","nonmatch","img/square.png","梯形","方形","ALT1_1","prac_ALT1_1","","","","","","","","","","","",""
"null","<span style='color:red; font-size: 70px;'>错误! </span>","null","html-keyboard-response","70","248031","0.0-7.0-0.0-1.0-0.0-1.30","4","3","4","3","4","3","4","3","4","4","4","4","3","4","4","5","4","4","4","4","1","2","2","2","2","2","2","2","2","1","0","1","1","0","0","1","1","0","1","1","0","1","0","1","4","2","2","1","2","1","2","4","2","2","1","756877432623206401","李","586","","","","","","","","","","","","","","","","","","","","","","","","","","","","","","feedback_test","","","","","","","","","","","",""
"641","","f","psychophysics","71","249681","0.0-7.0-0.0-1.0-0.0-0.31","4","3","4","3","4","3","4","3","4","4","4","4","3","4","4","5","4","4","4","4","1","2","2","2","2","2","2","2","2","1","0","1","1","0","0","1","1","0","1","1","0","1","0","1","4","2","2","1","2","1","2","4","2","2","1","756877432623206401","李","586","","","","match","","","","","","","","","","","","","","key","f","16.663469387754994","768","428","f","true","match","img/circle.png","圆形","圆形","ALT1_1","prac_ALT1_1","","","","","","","","","","","",""
"null","<span style='color:GreenYellow; font-size: 70px;'>正确! </span>","null","html-keyboard-response","72","250192","0.0-7.0-0.0-1.0-0.0-1.31","4","3","4","3","4","3","4","3","4","4","4","4","3","4","4","5","4","4","4","4","1","2","2","2","2","2","2","2","2","1","0","1","1","0","0","1","1","0","1","1","0","1","0","1","4","2","2","1","2","1","2","4","2","2","1","756877432623206401","李","586","","","","","","","","","","","","","","","","","","","","","","","","","","","","","","feedback_test","","","","","","","","","","","",""
"655","","f","psychophysics","73","251857","0.0-7.0-0.0-1.0-0.0-0.32","4","3","4","3","4","3","4","3","4","4","4","4","3","4","4","5","4","4","4","4","1","2","2","2","2","2","2","2","2","1","0","1","1","0","0","1","1","0","1","1","0","1","0","1","4","2","2","1","2","1","2","4","2","2","1","756877432623206401","李","586","","","","match","","","","","","","","","","","","","","key","f","16.69636363636366","768","428","f","true","match","img/circle.png","圆形","圆形","ALT1_1","prac_ALT1_1","","","","","","","","","","","",""
"null","<span style='color:GreenYellow; font-size: 70px;'>正确! </span>","null","html-keyboard-response","74","252371","0.0-7.0-0.0-1.0-0.0-1.32","4","3","4","3","4","3","4","3","4","4","4","4","3","4","4","5","4","4","4","4","1","2","2","2","2","2","2","2","2","1","0","1","1","0","0","1","1","0","1","1","0","1","0","1","4","2","2","1","2","1","2","4","2","2","1","756877432623206401","李","586","","","","","","","","","","","","","","","","","","","","","","","","","","","","","","feedback_test","","","","","","","","","","","",""
"803","","f","psychophysics","75","254185","0.0-7.0-0.0-1.0-0.0-0.33","4","3","4","3","4","3","4","3","4","4","4","4","3","4","4","5","4","4","4","4","1","2","2","2","2","2","2","2","2","1","0","1","1","0","0","1","1","0","1","1","0","1","0","1","4","2","2","1","2","1","2","4","2","2","1","756877432623206401","李","586","","","","match","","","","","","","","","","","","","","key","f","16.66444444444453","768","428","f","true","match","img/hexagon.png","六边","六边","ALT1_1","prac_ALT1_1","","","","","","","","","","","",""
"null","<span style='color:GreenYellow; font-size: 70px;'>正确! </span>","null","html-keyboard-response","76","254687","0.0-7.0-0.0-1.0-0.0-1.33","4","3","4","3","4","3","4","3","4","4","4","4","3","4","4","5","4","4","4","4","1","2","2","2","2","2","2","2","2","1","0","1","1","0","0","1","1","0","1","1","0","1","0","1","4","2","2","1","2","1","2","4","2","2","1","756877432623206401","李","586","","","","","","","","","","","","","","","","","","","","","","","","","","","","","","feedback_test","","","","","","","","","","","",""
"649","","j","psychophysics","77","256346","0.0-7.0-0.0-1.0-0.0-0.34","4","3","4","3","4","3","4","3","4","4","4","4","3","4","4","5","4","4","4","4","1","2","2","2","2","2","2","2","2","1","0","1","1","0","0","1","1","0","1","1","0","1","0","1","4","2","2","1","2","1","2","4","2","2","1","756877432623206401","李","586","","","","nonmatch","","","","","","","","","","","","","","key","j","16.683434343434378","768","428","j","true","nonmatch","img/trapezoid.png","圆形","梯形","ALT1_1","prac_ALT1_1","","","","","","","","","","","",""
"null","<span style='color:GreenYellow; font-size: 70px;'>正确! </span>","null","html-keyboard-response","78","256859","0.0-7.0-0.0-1.0-0.0-1.34","4","3","4","3","4","3","4","3","4","4","4","4","3","4","4","5","4","4","4","4","1","2","2","2","2","2","2","2","2","1","0","1","1","0","0","1","1","0","1","1","0","1","0","1","4","2","2","1","2","1","2","4","2","2","1","756877432623206401","李","586","","","","","","","","","","","","","","","","","","","","","","","","","","","","","","feedback_test","","","","","","","","","","","",""
"951","","f","psychophysics","79","258819","0.0-7.0-0.0-1.0-0.0-0.35","4","3","4","3","4","3","4","3","4","4","4","4","3","4","4","5","4","4","4","4","1","2","2","2","2","2","2","2","2","1","0","1","1","0","0","1","1","0","1","1","0","1","0","1","4","2","2","1","2","1","2","4","2","2","1","756877432623206401","李","586","","","","match","","","","","","","","","","","","","","key","f","16.68085470085473","768","428","j","false","nonmatch","img/trapezoid.png","六边","梯形","ALT1_1","prac_ALT1_1","","","","","","","","","","","",""
"null","<span style='color:red; font-size: 70px;'>错误! </span>","null","html-keyboard-response","80","259330","0.0-7.0-0.0-1.0-0.0-1.35","4","3","4","3","4","3","4","3","4","4","4","4","3","4","4","5","4","4","4","4","1","2","2","2","2","2","2","2","2","1","0","1","1","0","0","1","1","0","1","1","0","1","0","1","4","2","2","1","2","1","2","4","2","2","1","756877432623206401","李","586","","","","","","","","","","","","","","","","","","","","","","","","","","","","","","feedback_test","","","","","","","","","","","",""
"713","","f","psychophysics","81","261058","0.0-7.0-0.0-1.0-0.0-0.36","4","3","4","3","4","3","4","3","4","4","4","4","3","4","4","5","4","4","4","4","1","2","2","2","2","2","2","2","2","1","0","1","1","0","0","1","1","0","1","1","0","1","0","1","4","2","2","1","2","1","2","4","2","2","1","756877432623206401","李","586","","","","match","","","","","","","","","","","","","","key","f","16.69029126213598","768","428","f","true","match","img/trapezoid.png","梯形","梯形","ALT1_1","prac_ALT1_1","","","","","","","","","","","",""
"null","<span style='color:GreenYellow; font-size: 70px;'>正确! </span>","null","html-keyboard-response","82","261571","0.0-7.0-0.0-1.0-0.0-1.36","4","3","4","3","4","3","4","3","4","4","4","4","3","4","4","5","4","4","4","4","1","2","2","2","2","2","2","2","2","1","0","1","1","0","0","1","1","0","1","1","0","1","0","1","4","2","2","1","2","1","2","4","2","2","1","756877432623206401","李","586","","","","","","","","","","","","","","","","","","","","","","","","","","","","","","feedback_test","","","","","","","","","","","",""
"508","","f","psychophysics","83","263090","0.0-7.0-0.0-1.0-0.0-0.37","4","3","4","3","4","3","4","3","4","4","4","4","3","4","4","5","4","4","4","4","1","2","2","2","2","2","2","2","2","1","0","1","1","0","0","1","1","0","1","1","0","1","0","1","4","2","2","1","2","1","2","4","2","2","1","756877432623206401","李","586","","","","match","","","","","","","","","","","","","","key","f","16.696888888889227","768","428","j","false","nonmatch","img/circle.png","六边","圆形","ALT1_1","prac_ALT1_1","","","","","","","","","","","",""
"null","<span style='color:red; font-size: 70px;'>错误! </span>","null","html-keyboard-response","84","263590","0.0-7.0-0.0-1.0-0.0-1.37","4","3","4","3","4","3","4","3","4","4","4","4","3","4","4","5","4","4","4","4","1","2","2","2","2","2","2","2","2","1","0","1","1","0","0","1","1","0","1","1","0","1","0","1","4","2","2","1","2","1","2","4","2","2","1","756877432623206401","李","586","","","","","","","","","","","","","","","","","","","","","","","","","","","","","","feedback_test","","","","","","","","","","","",""
"850","","j","psychophysics","85","265449","0.0-7.0-0.0-1.0-0.0-0.38","4","3","4","3","4","3","4","3","4","4","4","4","3","4","4","5","4","4","4","4","1","2","2","2","2","2","2","2","2","1","0","1","1","0","0","1","1","0","1","1","0","1","0","1","4","2","2","1","2","1","2","4","2","2","1","756877432623206401","李","586","","","","nonmatch","","","","","","","","","","","","","","key","j","16.684144144144167","768","428","f","false","match","img/hexagon.png","六边","六边","ALT1_1","prac_ALT1_1","","","","","","","","","","","",""
"null","<span style='color:red; font-size: 70px;'>错误! </span>","null","html-keyboard-response","86","265963","0.0-7.0-0.0-1.0-0.0-1.38","4","3","4","3","4","3","4","3","4","4","4","4","3","4","4","5","4","4","4","4","1","2","2","2","2","2","2","2","2","1","0","1","1","0","0","1","1","0","1","1","0","1","0","1","4","2","2","1","2","1","2","4","2","2","1","756877432623206401","李","586","","","","","","","","","","","","","","","","","","","","","","","","","","","","","","feedback_test","","","","","","","","","","","",""
"761","","f","psychophysics","87","267737","0.0-7.0-0.0-1.0-0.0-0.39","4","3","4","3","4","3","4","3","4","4","4","4","3","4","4","5","4","4","4","4","1","2","2","2","2","2","2","2","2","1","0","1","1","0","0","1","1","0","1","1","0","1","0","1","4","2","2","1","2","1","2","4","2","2","1","756877432623206401","李","586","","","","match","","","","","","","","","","","","","","key","f","16.687547169811364","768","428","f","true","match","img/hexagon.png","六边","六边","ALT1_1","prac_ALT1_1","","","","","","","","","","","",""
"null","<span style='color:GreenYellow; font-size: 70px;'>正确! </span>","null","html-keyboard-response","88","268239","0.0-7.0-0.0-1.0-0.0-1.39","4","3","4","3","4","3","4","3","4","4","4","4","3","4","4","5","4","4","4","4","1","2","2","2","2","2","2","2","2","1","0","1","1","0","0","1","1","0","1","1","0","1","0","1","4","2","2","1","2","1","2","4","2","2","1","756877432623206401","李","586","","","","","","","","","","","","","","","","","","","","","","","","","","","","","","feedback_test","","","","","","","","","","","",""
"null","","null","psychophysics","89","270450","0.0-7.0-0.0-1.0-0.0-0.40","4","3","4","3","4","3","4","3","4","4","4","4","3","4","4","5","4","4","4","4","1","2","2","2","2","2","2","2","2","1","0","1","1","0","0","1","1","0","1","1","0","1","0","1","4","2","2","1","2","1","2","4","2","2","1","756877432623206401","李","586","","","","null","","","","","","","","","","","","","","key","null","16.664393939394028","768","428","f","false","match","img/trapezoid.png","梯形","梯形","ALT1_1","prac_ALT1_1","","","","","","","","","","","",""
"null","<span class='add_' style='color:yellow; font-size: 70px;'> 太慢! </span>","null","html-keyboard-response","90","270963","0.0-7.0-0.0-1.0-0.0-1.40","4","3","4","3","4","3","4","3","4","4","4","4","3","4","4","5","4","4","4","4","1","2","2","2","2","2","2","2","2","1","0","1","1","0","0","1","1","0","1","1","0","1","0","1","4","2","2","1","2","1","2","4","2","2","1","756877432623206401","李","586","","","","","","","","","","","","","","","","","","","","","","","","","","","","","","feedback_test","","","","","","","","","","","",""
"666","","j","psychophysics","91","272641","0.0-7.0-0.0-1.0-0.0-0.41","4","3","4","3","4","3","4","3","4","4","4","4","3","4","4","5","4","4","4","4","1","2","2","2","2","2","2","2","2","1","0","1","1","0","0","1","1","0","1","1","0","1","0","1","4","2","2","1","2","1","2","4","2","2","1","756877432623206401","李","586","","","","nonmatch","","","","","","","","","","","","","","key","j","16.681999999999533","768","428","j","true","nonmatch","img/circle.png","梯形","圆形","ALT1_1","prac_ALT1_1","","","","","","","","","","","",""
"null","<span style='color:GreenYellow; font-size: 70px;'>正确! </span>","null","html-keyboard-response","92","273155","0.0-7.0-0.0-1.0-0.0-1.41","4","3","4","3","4","3","4","3","4","4","4","4","3","4","4","5","4","4","4","4","1","2","2","2","2","2","2","2","2","1","0","1","1","0","0","1","1","0","1","1","0","1","0","1","4","2","2","1","2","1","2","4","2","2","1","756877432623206401","李","586","","","","","","","","","","","","","","","","","","","","","","","","","","","","","","feedback_test","","","","","","","","","","","",""
"593","","f","psychophysics","93","274762","0.0-7.0-0.0-1.0-0.0-0.42","4","3","4","3","4","3","4","3","4","4","4","4","3","4","4","5","4","4","4","4","1","2","2","2","2","2","2","2","2","1","0","1","1","0","0","1","1","0","1","1","0","1","0","1","4","2","2","1","2","1","2","4","2","2","1","756877432623206401","李","586","","","","match","","","","","","","","","","","","","","key","f","16.550000000000484","768","428","f","true","match","img/square.png","方形","方形","ALT1_1","prac_ALT1_1","","","","","","","","","","","",""
"null","<span style='color:GreenYellow; font-size: 70px;'>正确! </span>","null","html-keyboard-response","94","275273","0.0-7.0-0.0-1.0-0.0-1.42","4","3","4","3","4","3","4","3","4","4","4","4","3","4","4","5","4","4","4","4","1","2","2","2","2","2","2","2","2","1","0","1","1","0","0","1","1","0","1","1","0","1","0","1","4","2","2","1","2","1","2","4","2","2","1","756877432623206401","李","586","","","","","","","","","","","","","","","","","","","","","","","","","","","","","","feedback_test","","","","","","","","","","","",""
"647","","f","psychophysics","95","276937","0.0-7.0-0.0-1.0-0.0-0.43","4","3","4","3","4","3","4","3","4","4","4","4","3","4","4","5","4","4","4","4","1","2","2","2","2","2","2","2","2","1","0","1","1","0","0","1","1","0","1","1","0","1","0","1","4","2","2","1","2","1","2","4","2","2","1","756877432623206401","李","586","","","","match","","","","","","","","","","","","","","key","f","16.554599999999628","768","428","f","true","match","img/square.png","方形","方形","ALT1_1","prac_ALT1_1","","","","","","","","","","","",""
"null","<span style='color:GreenYellow; font-size: 70px;'>正确! </span>","null","html-keyboard-response","96","277499","0.0-7.0-0.0-1.0-0.0-1.43","4","3","4","3","4","3","4","3","4","4","4","4","3","4","4","5","4","4","4","4","1","2","2","2","2","2","2","2","2","1","0","1","1","0","0","1","1","0","1","1","0","1","0","1","4","2","2","1","2","1","2","4","2","2","1","756877432623206401","李","586","","","","","","","","","","","","","","","","","","","","","","","","","","","","","","feedback_test","","","","","","","","","","","",""
"593","","f","psychophysics","97","279121","0.0-7.0-0.0-1.0-0.0-0.44","4","3","4","3","4","3","4","3","4","4","4","4","3","4","4","5","4","4","4","4","1","2","2","2","2","2","2","2","2","1","0","1","1","0","0","1","1","0","1","1","0","1","0","1","4","2","2","1","2","1","2","4","2","2","1","756877432623206401","李","586","","","","match","","","","","","","","","","","","","","key","f","16.55072164948437","768","428","f","true","match","img/circle.png","圆形","圆形","ALT1_1","prac_ALT1_1","","","","","","","","","","","",""
"null","<span style='color:GreenYellow; font-size: 70px;'>正确! </span>","null","html-keyboard-response","98","279630","0.0-7.0-0.0-1.0-0.0-1.44","4","3","4","3","4","3","4","3","4","4","4","4","3","4","4","5","4","4","4","4","1","2","2","2","2","2","2","2","2","1","0","1","1","0","0","1","1","0","1","1","0","1","0","1","4","2","2","1","2","1","2","4","2","2","1","756877432623206401","李","586","","","","","","","","","","","","","","","","","","","","","","","","","","","","","","feedback_test","","","","","","","","","","","",""
"800","","j","psychophysics","99","281440","0.0-7.0-0.0-1.0-0.0-0.45","4","3","4","3","4","3","4","3","4","4","4","4","3","4","4","5","4","4","4","4","1","2","2","2","2","2","2","2","2","1","0","1","1","0","0","1","1","0","1","1","0","1","0","1","4","2","2","1","2","1","2","4","2","2","1","756877432623206401","李","586","","","","nonmatch","","","","","","","","","","","","","","key","j","16.69574074074087","768","428","j","true","nonmatch","img/circle.png","方形","圆形","ALT1_1","prac_ALT1_1","","","","","","","","","","","",""
"null","<span style='color:GreenYellow; font-size: 70px;'>正确! </span>","null","html-keyboard-response","100","281947","0.0-7.0-0.0-1.0-0.0-1.45","4","3","4","3","4","3","4","3","4","4","4","4","3","4","4","5","4","4","4","4","1","2","2","2","2","2","2","2","2","1","0","1","1","0","0","1","1","0","1","1","0","1","0","1","4","2","2","1","2","1","2","4","2","2","1","756877432623206401","李","586","","","","","","","","","","","","","","","","","","","","","","","","","","","","","","feedback_test","","","","","","","","","","","",""
"502","","j","psychophysics","101","283584","0.0-7.0-0.0-1.0-0.0-0.46","4","3","4","3","4","3","4","3","4","4","4","4","3","4","4","5","4","4","4","4","1","2","2","2","2","2","2","2","2","1","0","1","1","0","0","1","1","0","1","1","0","1","0","1","4","2","2","1","2","1","2","4","2","2","1","756877432623206401","李","586","","","","nonmatch","","","","","","","","","","","","","","key","j","16.68639175257749","768","428","j","true","nonmatch","img/square.png","圆形","方形","ALT1_1","prac_ALT1_1","","","","","","","","","","","",""
"null","<span style='color:GreenYellow; font-size: 70px;'>正确! </span>","null","html-keyboard-response","102","284097","0.0-7.0-0.0-1.0-0.0-1.46","4","3","4","3","4","3","4","3","4","4","4","4","3","4","4","5","4","4","4","4","1","2","2","2","2","2","2","2","2","1","0","1","1","0","0","1","1","0","1","1","0","1","0","1","4","2","2","1","2","1","2","4","2","2","1","756877432623206401","李","586","","","","","","","","","","","","","","","","","","","","","","","","","","","","","","feedback_test","","","","","","","","","","","",""
"821","","j","psychophysics","103","285922","0.0-7.0-0.0-1.0-0.0-0.47","4","3","4","3","4","3","4","3","4","4","4","4","3","4","4","5","4","4","4","4","1","2","2","2","2","2","2","2","2","1","0","1","1","0","0","1","1","0","1","1","0","1","0","1","4","2","2","1","2","1","2","4","2","2","1","756877432623206401","李","586","","","","nonmatch","","","","","","","","","","","","","","key","j","16.695045871559717","768","428","j","true","nonmatch","img/trapezoid.png","方形","梯形","ALT1_1","prac_ALT1_1","","","","","","","","","","","",""
"null","<span style='color:GreenYellow; font-size: 70px;'>正确! </span>","null","html-keyboard-response","104","286422","0.0-7.0-0.0-1.0-0.0-1.47","4","3","4","3","4","3","4","3","4","4","4","4","3","4","4","5","4","4","4","4","1","2","2","2","2","2","2","2","2","1","0","1","1","0","0","1","1","0","1","1","0","1","0","1","4","2","2","1","2","1","2","4","2","2","1","756877432623206401","李","586","","","","","","","","","","","","","","","","","","","","","","","","","","","","","","feedback_test","","","","","","","","","","","",""
"220001","<style>.context{color:white; font-size: 35px; line-height:40px}</style>                            <div><p class='context'>您正确回答了90% 的试次。</p><p class='context'>您的平均反应时为666毫秒。</p><p class='context'>恭喜您完成练习。按空格键进入正式实验。</p><p class='footer' style='font-size: 35px; line-height:40px;'>请在进入正式实验之前将您的<span style='color: lightgreen;'>食指</span>放在电脑键盘的相应键位上进行按键。</p>"," ","html-keyboard-response","105","506425","0.0-7.0-0.0-2.0","4","3","4","3","4","3","4","3","4","4","4","4","3","4","4","5","4","4","4","4","1","2","2","2","2","2","2","2","2","1","0","1","1","0","0","1","1","0","1","1","0","1","0","1","4","2","2","1","2","1","2","4","2","2","1","756877432623206401","李","586","","","","","","","","","","","","","","","","","","","","","","","","","","","","","","","","","","","","","","","","","",""
"829","
    <p style='color: white; font-size: 22px'>请您将手指放在按键上，准备进入正式的匹配任务。</p>
    <p> <div style = ""color: green""><按空格键进入下一阶段的匹配任务></div></p>
    "," ","html-keyboard-response","106","507256","0.0-7.0-0.0-3.0","4","3","4","3","4","3","4","3","4","4","4","4","3","4","4","5","4","4","4","4","1","2","2","2","2","2","2","2","2","1","0","1","1","0","0","1","1","0","1","1","0","1","0","1","4","2","2","1","2","1","2","4","2","2","1","756877432623206401","李","586","","","","","","","","","","","","","","","","","","","","","","","","","","","","","","","","","","","","","","","","","",""
"1184","","f","psychophysics","107","509449","0.0-7.0-0.0-4.0-0.0-0.0","4","3","4","3","4","3","4","3","4","4","4","4","3","4","4","5","4","4","4","4","1","2","2","2","2","2","2","2","2","1","0","1","1","0","0","1","1","0","1","1","0","1","0","1","4","2","2","1","2","1","2","4","2","2","1","756877432623206401","李","586","","","","match","","","","","","","","","","","","","","key","f","16.664274809160446","768","428","f","true","match","img/square.png","方形","方形","ALT1","formal_ALT1_1","","","","","","","","","","","",""
"null","<span style='color:GreenYellow; font-size: 70px;'>正确! </span>","null","html-keyboard-response","108","509989","0.0-7.0-0.0-4.0-0.0-1.0","4","3","4","3","4","3","4","3","4","4","4","4","3","4","4","5","4","4","4","4","1","2","2","2","2","2","2","2","2","1","0","1","1","0","0","1","1","0","1","1","0","1","0","1","4","2","2","1","2","1","2","4","2","2","1","756877432623206401","李","586","","","","","","","","","","","","","","","","","","","","","","","","","","","","","","feedback_test","","","","","","","","","","","",""
"642","","f","psychophysics","109","511656","0.0-7.0-0.0-4.0-0.0-0.1","4","3","4","3","4","3","4","3","4","4","4","4","3","4","4","5","4","4","4","4","1","2","2","2","2","2","2","2","2","1","0","1","1","0","0","1","1","0","1","1","0","1","0","1","4","2","2","1","2","1","2","4","2","2","1","756877432623206401","李","586","","","","match","","","","","","","","","","","","","","key","f","16.662424242424407","768","428","f","true","match","img/circle.png","圆形","圆形","ALT1","formal_ALT1_1","","","","","","","","","","","",""
"null","<span style='color:GreenYellow; font-size: 70px;'>正确! </span>","null","html-keyboard-response","110","512167","0.0-7.0-0.0-4.0-0.0-1.1","4","3","4","3","4","3","4","3","4","4","4","4","3","4","4","5","4","4","4","4","1","2","2","2","2","2","2","2","2","1","0","1","1","0","0","1","1","0","1","1","0","1","0","1","4","2","2","1","2","1","2","4","2","2","1","756877432623206401","李","586","","","","","","","","","","","","","","","","","","","","","","","","","","","","","","feedback_test","","","","","","","","","","","",""
"650","","j","psychophysics","111","513824","0.0-7.0-0.0-4.0-0.0-0.2","4","3","4","3","4","3","4","3","4","4","4","4","3","4","4","5","4","4","4","4","1","2","2","2","2","2","2","2","2","1","0","1","1","0","0","1","1","0","1","1","0","1","0","1","4","2","2","1","2","1","2","4","2","2","1","756877432623206401","李","586","","","","nonmatch","","","","","","","","","","","","","","key","j","16.694545454545548","768","428","j","true","nonmatch","img/circle.png","方形","圆形","ALT1","formal_ALT1_1","","","","","","","","","","","",""
"null","<span style='color:GreenYellow; font-size: 70px;'>正确! </span>","null","html-keyboard-response","112","514338","0.0-7.0-0.0-4.0-0.0-1.2","4","3","4","3","4","3","4","3","4","4","4","4","3","4","4","5","4","4","4","4","1","2","2","2","2","2","2","2","2","1","0","1","1","0","0","1","1","0","1","1","0","1","0","1","4","2","2","1","2","1","2","4","2","2","1","756877432623206401","李","586","","","","","","","","","","","","","","","","","","","","","","","","","","","","","","feedback_test","","","","","","","","","","","",""
"612","","f","psychophysics","113","515959","0.0-7.0-0.0-4.0-0.0-0.3","4","3","4","3","4","3","4","3","4","4","4","4","3","4","4","5","4","4","4","4","1","2","2","2","2","2","2","2","2","1","0","1","1","0","0","1","1","0","1","1","0","1","0","1","4","2","2","1","2","1","2","4","2","2","1","756877432623206401","李","586","","","","match","","","","","","","","","","","","","","key","f","16.664374999999684","768","428","j","false","nonmatch","img/circle.png","六边","圆形","ALT1","formal_ALT1_1","","","","","","","","","","","",""
"null","<span style='color:red; font-size: 70px;'>错误! </span>","null","html-keyboard-response","114","516469","0.0-7.0-0.0-4.0-0.0-1.3","4","3","4","3","4","3","4","3","4","4","4","4","3","4","4","5","4","4","4","4","1","2","2","2","2","2","2","2","2","1","0","1","1","0","0","1","1","0","1","1","0","1","0","1","4","2","2","1","2","1","2","4","2","2","1","756877432623206401","李","586","","","","","","","","","","","","","","","","","","","","","","","","","","","","","","feedback_test","","","","","","","","","","","",""
"643","","f","psychophysics","115","518123","0.0-7.0-0.0-4.0-0.0-0.4","4","3","4","3","4","3","4","3","4","4","4","4","3","4","4","5","4","4","4","4","1","2","2","2","2","2","2","2","2","1","0","1","1","0","0","1","1","0","1","1","0","1","0","1","4","2","2","1","2","1","2","4","2","2","1","756877432623206401","李","586","","","","match","","","","","","","","","","","","","","key","f","16.6983673469388","768","428","f","true","match","img/hexagon.png","六边","六边","ALT1","formal_ALT1_1","","","","","","","","","","","",""
"null","<span style='color:GreenYellow; font-size: 70px;'>正确! </span>","null","html-keyboard-response","116","518628","0.0-7.0-0.0-4.0-0.0-1.4","4","3","4","3","4","3","4","3","4","4","4","4","3","4","4","5","4","4","4","4","1","2","2","2","2","2","2","2","2","1","0","1","1","0","0","1","1","0","1","1","0","1","0","1","4","2","2","1","2","1","2","4","2","2","1","756877432623206401","李","586","","","","","","","","","","","","","","","","","","","","","","","","","","","","","","feedback_test","","","","","","","","","","","",""
"680","","j","psychophysics","117","520320","0.0-7.0-0.0-4.0-0.0-0.5","4","3","4","3","4","3","4","3","4","4","4","4","3","4","4","5","4","4","4","4","1","2","2","2","2","2","2","2","2","1","0","1","1","0","0","1","1","0","1","1","0","1","0","1","4","2","2","1","2","1","2","4","2","2","1","756877432623206401","李","586","","","","nonmatch","","","","","","","","","","","","","","key","j","16.68297029702952","768","428","j","true","nonmatch","img/square.png","圆形","方形","ALT1","formal_ALT1_1","","","","","","","","","","","",""
"null","<span style='color:GreenYellow; font-size: 70px;'>正确! </span>","null","html-keyboard-response","118","520823","0.0-7.0-0.0-4.0-0.0-1.5","4","3","4","3","4","3","4","3","4","4","4","4","3","4","4","5","4","4","4","4","1","2","2","2","2","2","2","2","2","1","0","1","1","0","0","1","1","0","1","1","0","1","0","1","4","2","2","1","2","1","2","4","2","2","1","756877432623206401","李","586","","","","","","","","","","","","","","","","","","","","","","","","","","","","","","feedback_test","","","","","","","","","","","",""
"685","","j","psychophysics","119","522570","0.0-7.0-0.0-4.0-0.0-0.6","4","3","4","3","4","3","4","3","4","4","4","4","3","4","4","5","4","4","4","4","1","2","2","2","2","2","2","2","2","1","0","1","1","0","0","1","1","0","1","1","0","1","0","1","4","2","2","1","2","1","2","4","2","2","1","756877432623206401","李","586","","","","nonmatch","","","","","","","","","","","","","","key","j","16.689423076923187","768","428","j","true","nonmatch","img/square.png","六边","方形","ALT1","formal_ALT1_1","","","","","","","","","","","",""
"null","<span style='color:GreenYellow; font-size: 70px;'>正确! </span>","null","html-keyboard-response","120","523080","0.0-7.0-0.0-4.0-0.0-1.6","4","3","4","3","4","3","4","3","4","4","4","4","3","4","4","5","4","4","4","4","1","2","2","2","2","2","2","2","2","1","0","1","1","0","0","1","1","0","1","1","0","1","0","1","4","2","2","1","2","1","2","4","2","2","1","756877432623206401","李","586","","","","","","","","","","","","","","","","","","","","","","","","","","","","","","feedback_test","","","","","","","","","","","",""
"764","","j","psychophysics","121","524857","0.0-7.0-0.0-4.0-0.0-0.7","4","3","4","3","4","3","4","3","4","4","4","4","3","4","4","5","4","4","4","4","1","2","2","2","2","2","2","2","2","1","0","1","1","0","0","1","1","0","1","1","0","1","0","1","4","2","2","1","2","1","2","4","2","2","1","756877432623206401","李","586","","","","nonmatch","","","","","","","","","","","","","","key","j","16.664339622641904","768","428","j","true","nonmatch","img/trapezoid.png","六边","梯形","ALT1","formal_ALT1_1","","","","","","","","","","","",""
"null","<span style='color:GreenYellow; font-size: 70px;'>正确! </span>","null","html-keyboard-response","122","525366","0.0-7.0-0.0-4.0-0.0-1.7","4","3","4","3","4","3","4","3","4","4","4","4","3","4","4","5","4","4","4","4","1","2","2","2","2","2","2","2","2","1","0","1","1","0","0","1","1","0","1","1","0","1","0","1","4","2","2","1","2","1","2","4","2","2","1","756877432623206401","李","586","","","","","","","","","","","","","","","","","","","","","","","","","","","","","","feedback_test","","","","","","","","","","","",""
"697","","f","psychophysics","123","527079","0.0-7.0-0.0-4.0-0.0-0.8","4","3","4","3","4","3","4","3","4","4","4","4","3","4","4","5","4","4","4","4","1","2","2","2","2","2","2","2","2","1","0","1","1","0","0","1","1","0","1","1","0","1","0","1","4","2","2","1","2","1","2","4","2","2","1","756877432623206401","李","586","","","","match","","","","","","","","","","","","","","key","f","16.693529411764615","768","428","j","false","nonmatch","img/hexagon.png","方形","六边","ALT1","formal_ALT1_1","","","","","","","","","","","",""
"null","<span style='color:red; font-size: 70px;'>错误! </span>","null","html-keyboard-response","124","527593","0.0-7.0-0.0-4.0-0.0-1.8","4","3","4","3","4","3","4","3","4","4","4","4","3","4","4","5","4","4","4","4","1","2","2","2","2","2","2","2","2","1","0","1","1","0","0","1","1","0","1","1","0","1","0","1","4","2","2","1","2","1","2","4","2","2","1","756877432623206401","李","586","","","","","","","","","","","","","","","","","","","","","","","","","","","","","","feedback_test","","","","","","","","","","","",""
"845","","j","psychophysics","125","529448","0.0-7.0-0.0-4.0-0.0-0.9","4","3","4","3","4","3","4","3","4","4","4","4","3","4","4","5","4","4","4","4","1","2","2","2","2","2","2","2","2","1","0","1","1","0","0","1","1","0","1","1","0","1","0","1","4","2","2","1","2","1","2","4","2","2","1","756877432623206401","李","586","","","","nonmatch","","","","","","","","","","","","","","key","j","16.691090909091077","768","428","j","true","nonmatch","img/square.png","梯形","方形","ALT1","formal_ALT1_1","","","","","","","","","","","",""
"null","<span style='color:GreenYellow; font-size: 70px;'>正确! </span>","null","html-keyboard-response","126","529949","0.0-7.0-0.0-4.0-0.0-1.9","4","3","4","3","4","3","4","3","4","4","4","4","3","4","4","5","4","4","4","4","1","2","2","2","2","2","2","2","2","1","0","1","1","0","0","1","1","0","1","1","0","1","0","1","4","2","2","1","2","1","2","4","2","2","1","756877432623206401","李","586","","","","","","","","","","","","","","","","","","","","","","","","","","","","","","feedback_test","","","","","","","","","","","",""
"802","","f","psychophysics","127","531760","0.0-7.0-0.0-4.0-0.0-0.10","4","3","4","3","4","3","4","3","4","4","4","4","3","4","4","5","4","4","4","4","1","2","2","2","2","2","2","2","2","1","0","1","1","0","0","1","1","0","1","1","0","1","0","1","4","2","2","1","2","1","2","4","2","2","1","756877432623206401","李","586","","","","match","","","","","","","","","","","","","","key","f","16.682592592592332","768","428","f","true","match","img/circle.png","圆形","圆形","ALT1","formal_ALT1_1","","","","","","","","","","","",""
"null","<span style='color:GreenYellow; font-size: 70px;'>正确! </span>","null","html-keyboard-response","128","532268","0.0-7.0-0.0-4.0-0.0-1.10","4","3","4","3","4","3","4","3","4","4","4","4","3","4","4","5","4","4","4","4","1","2","2","2","2","2","2","2","2","1","0","1","1","0","0","1","1","0","1","1","0","1","0","1","4","2","2","1","2","1","2","4","2","2","1","756877432623206401","李","586","","","","","","","","","","","","","","","","","","","","","","","","","","","","","","feedback_test","","","","","","","","","","","",""
"681","","f","psychophysics","129","533961","0.0-7.0-0.0-4.0-0.0-0.11","4","3","4","3","4","3","4","3","4","4","4","4","3","4","4","5","4","4","4","4","1","2","2","2","2","2","2","2","2","1","0","1","1","0","0","1","1","0","1","1","0","1","0","1","4","2","2","1","2","1","2","4","2","2","1","756877432623206401","李","586","","","","match","","","","","","","","","","","","","","key","f","16.69445544554354","768","428","f","true","match","img/square.png","方形","方形","ALT1","formal_ALT1_1","","","","","","","","","","","",""
"null","<span style='color:GreenYellow; font-size: 70px;'>正确! </span>","null","html-keyboard-response","130","534483","0.0-7.0-0.0-4.0-0.0-1.11","4","3","4","3","4","3","4","3","4","4","4","4","3","4","4","5","4","4","4","4","1","2","2","2","2","2","2","2","2","1","0","1","1","0","0","1","1","0","1","1","0","1","0","1","4","2","2","1","2","1","2","4","2","2","1","756877432623206401","李","586","","","","","","","","","","","","","","","","","","","","","","","","","","","","","","feedback_test","","","","","","","","","","","",""
"812","","j","psychophysics","131","536304","0.0-7.0-0.0-4.0-0.0-0.12","4","3","4","3","4","3","4","3","4","4","4","4","3","4","4","5","4","4","4","4","1","2","2","2","2","2","2","2","2","1","0","1","1","0","0","1","1","0","1","1","0","1","0","1","4","2","2","1","2","1","2","4","2","2","1","756877432623206401","李","586","","","","nonmatch","","","","","","","","","","","","","","key","j","16.684259259259473","768","428","j","true","nonmatch","img/trapezoid.png","圆形","梯形","ALT1","formal_ALT1_1","","","","","","","","","","","",""
"null","<span style='color:GreenYellow; font-size: 70px;'>正确! </span>","null","html-keyboard-response","132","536817","0.0-7.0-0.0-4.0-0.0-1.12","4","3","4","3","4","3","4","3","4","4","4","4","3","4","4","5","4","4","4","4","1","2","2","2","2","2","2","2","2","1","0","1","1","0","0","1","1","0","1","1","0","1","0","1","4","2","2","1","2","1","2","4","2","2","1","756877432623206401","李","586","","","","","","","","","","","","","","","","","","","","","","","","","","","","","","feedback_test","","","","","","","","","","","",""
"785","","j","psychophysics","133","538616","0.0-7.0-0.0-4.0-0.0-0.13","4","3","4","3","4","3","4","3","4","4","4","4","3","4","4","5","4","4","4","4","1","2","2","2","2","2","2","2","2","1","0","1","1","0","0","1","1","0","1","1","0","1","0","1","4","2","2","1","2","1","2","4","2","2","1","756877432623206401","李","586","","","","nonmatch","","","","","","","","","","","","","","key","j","16.68542056074736","768","428","j","true","nonmatch","img/hexagon.png","梯形","六边","ALT1","formal_ALT1_1","","","","","","","","","","","",""
"null","<span style='color:GreenYellow; font-size: 70px;'>正确! </span>","null","html-keyboard-response","134","539120","0.0-7.0-0.0-4.0-0.0-1.13","4","3","4","3","4","3","4","3","4","4","4","4","3","4","4","5","4","4","4","4","1","2","2","2","2","2","2","2","2","1","0","1","1","0","0","1","1","0","1","1","0","1","0","1","4","2","2","1","2","1","2","4","2","2","1","756877432623206401","李","586","","","","","","","","","","","","","","","","","","","","","","","","","","","","","","feedback_test","","","","","","","","","","","",""
"876","","f","psychophysics","135","541008","0.0-7.0-0.0-4.0-0.0-0.14","4","3","4","3","4","3","4","3","4","4","4","4","3","4","4","5","4","4","4","4","1","2","2","2","2","2","2","2","2","1","0","1","1","0","0","1","1","0","1","1","0","1","0","1","4","2","2","1","2","1","2","4","2","2","1","756877432623206401","李","586","","","","match","","","","","","","","","","","","","","key","f","16.692142857143022","768","428","f","true","match","img/trapezoid.png","梯形","梯形","ALT1","formal_ALT1_1","","","","","","","","","","","",""
"null","<span style='color:GreenYellow; font-size: 70px;'>正确! </span>","null","html-keyboard-response","136","541553","0.0-7.0-0.0-4.0-0.0-1.14","4","3","4","3","4","3","4","3","4","4","4","4","3","4","4","5","4","4","4","4","1","2","2","2","2","2","2","2","2","1","0","1","1","0","0","1","1","0","1","1","0","1","0","1","4","2","2","1","2","1","2","4","2","2","1","756877432623206401","李","586","","","","","","","","","","","","","","","","","","","","","","","","","","","","","","feedback_test","","","","","","","","","","","",""
"619","","f","psychophysics","137","543184","0.0-7.0-0.0-4.0-0.0-0.15","4","3","4","3","4","3","4","3","4","4","4","4","3","4","4","5","4","4","4","4","1","2","2","2","2","2","2","2","2","1","0","1","1","0","0","1","1","0","1","1","0","1","0","1","4","2","2","1","2","1","2","4","2","2","1","756877432623206401","李","586","","","","match","","","","","","","","","","","","","","key","f","16.700206185567442","768","428","f","true","match","img/circle.png","圆形","圆形","ALT1","formal_ALT1_1","","","","","","","","","","","",""
"null","<span style='color:GreenYellow; font-size: 70px;'>正确! </span>","null","html-keyboard-response","138","543730","0.0-7.0-0.0-4.0-0.0-1.15","4","3","4","3","4","3","4","3","4","4","4","4","3","4","4","5","4","4","4","4","1","2","2","2","2","2","2","2","2","1","0","1","1","0","0","1","1","0","1","1","0","1","0","1","4","2","2","1","2","1","2","4","2","2","1","756877432623206401","李","586","","","","","","","","","","","","","","","","","","","","","","","","","","","","","","feedback_test","","","","","","","","","","","",""
"609","","f","psychophysics","139","545352","0.0-7.0-0.0-4.0-0.0-0.16","4","3","4","3","4","3","4","3","4","4","4","4","3","4","4","5","4","4","4","4","1","2","2","2","2","2","2","2","2","1","0","1","1","0","0","1","1","0","1","1","0","1","0","1","4","2","2","1","2","1","2","4","2","2","1","756877432623206401","李","586","","","","match","","","","","","","","","","","","","","key","f","16.693333333332703","768","428","j","false","nonmatch","img/circle.png","梯形","圆形","ALT1","formal_ALT1_1","","","","","","","","","","","",""
"null","<span style='color:red; font-size: 70px;'>错误! </span>","null","html-keyboard-response","140","545862","0.0-7.0-0.0-4.0-0.0-1.16","4","3","4","3","4","3","4","3","4","4","4","4","3","4","4","5","4","4","4","4","1","2","2","2","2","2","2","2","2","1","0","1","1","0","0","1","1","0","1","1","0","1","0","1","4","2","2","1","2","1","2","4","2","2","1","756877432623206401","李","586","","","","","","","","","","","","","","","","","","","","","","","","","","","","","","feedback_test","","","","","","","","","","","",""
"738","","f","psychophysics","141","547608","0.0-7.0-0.0-4.0-0.0-0.17","4","3","4","3","4","3","4","3","4","4","4","4","3","4","4","5","4","4","4","4","1","2","2","2","2","2","2","2","2","1","0","1","1","0","0","1","1","0","1","1","0","1","0","1","4","2","2","1","2","1","2","4","2","2","1","756877432623206401","李","586","","","","match","","","","","","","","","","","","","","key","f","16.69788461538421","768","428","f","true","match","img/hexagon.png","六边","六边","ALT1","formal_ALT1_1","","","","","","","","","","","",""
"null","<span style='color:GreenYellow; font-size: 70px;'>正确! </span>","null","html-keyboard-response","142","548118","0.0-7.0-0.0-4.0-0.0-1.17","4","3","4","3","4","3","4","3","4","4","4","4","3","4","4","5","4","4","4","4","1","2","2","2","2","2","2","2","2","1","0","1","1","0","0","1","1","0","1","1","0","1","0","1","4","2","2","1","2","1","2","4","2","2","1","756877432623206401","李","586","","","","","","","","","","","","","","","","","","","","","","","","","","","","","","feedback_test","","","","","","","","","","","",""
"801","","f","psychophysics","143","549929","0.0-7.0-0.0-4.0-0.0-0.18","4","3","4","3","4","3","4","3","4","4","4","4","3","4","4","5","4","4","4","4","1","2","2","2","2","2","2","2","2","1","0","1","1","0","0","1","1","0","1","1","0","1","0","1","4","2","2","1","2","1","2","4","2","2","1","756877432623206401","李","586","","","","match","","","","","","","","","","","","","","key","f","16.68129629629591","768","428","f","true","match","img/trapezoid.png","梯形","梯形","ALT1","formal_ALT1_1","","","","","","","","","","","",""
"null","<span style='color:GreenYellow; font-size: 70px;'>正确! </span>","null","html-keyboard-response","144","550436","0.0-7.0-0.0-4.0-0.0-1.18","4","3","4","3","4","3","4","3","4","4","4","4","3","4","4","5","4","4","4","4","1","2","2","2","2","2","2","2","2","1","0","1","1","0","0","1","1","0","1","1","0","1","0","1","4","2","2","1","2","1","2","4","2","2","1","756877432623206401","李","586","","","","","","","","","","","","","","","","","","","","","","","","","","","","","","feedback_test","","","","","","","","","","","",""
"546","","f","psychophysics","145","551996","0.0-7.0-0.0-4.0-0.0-0.19","4","3","4","3","4","3","4","3","4","4","4","4","3","4","4","5","4","4","4","4","1","2","2","2","2","2","2","2","2","1","0","1","1","0","0","1","1","0","1","1","0","1","0","1","4","2","2","1","2","1","2","4","2","2","1","756877432623206401","李","586","","","","match","","","","","","","","","","","","","","key","f","16.699354838708825","768","428","f","true","match","img/hexagon.png","六边","六边","ALT1","formal_ALT1_1","","","","","","","","","","","",""
"null","<span style='color:GreenYellow; font-size: 70px;'>正确! </span>","null","html-keyboard-response","146","552506","0.0-7.0-0.0-4.0-0.0-1.19","4","3","4","3","4","3","4","3","4","4","4","4","3","4","4","5","4","4","4","4","1","2","2","2","2","2","2","2","2","1","0","1","1","0","0","1","1","0","1","1","0","1","0","1","4","2","2","1","2","1","2","4","2","2","1","756877432623206401","李","586","","","","","","","","","","","","","","","","","","","","","","","","","","","","","","feedback_test","","","","","","","","","","","",""
"818","","f","psychophysics","147","554336","0.0-7.0-0.0-4.0-0.0-0.20","4","3","4","3","4","3","4","3","4","4","4","4","3","4","4","5","4","4","4","4","1","2","2","2","2","2","2","2","2","1","0","1","1","0","0","1","1","0","1","1","0","1","0","1","4","2","2","1","2","1","2","4","2","2","1","756877432623206401","李","586","","","","match","","","","","","","","","","","","","","key","f","16.564181818181268","768","428","f","true","match","img/trapezoid.png","梯形","梯形","ALT1","formal_ALT1_1","","","","","","","","","","","",""
"null","<span style='color:GreenYellow; font-size: 70px;'>正确! </span>","null","html-keyboard-response","148","554841","0.0-7.0-0.0-4.0-0.0-1.20","4","3","4","3","4","3","4","3","4","4","4","4","3","4","4","5","4","4","4","4","1","2","2","2","2","2","2","2","2","1","0","1","1","0","0","1","1","0","1","1","0","1","0","1","4","2","2","1","2","1","2","4","2","2","1","756877432623206401","李","586","","","","","","","","","","","","","","","","","","","","","","","","","","","","","","feedback_test","","","","","","","","","","","",""
"null","","null","psychophysics","149","557049","0.0-7.0-0.0-4.0-0.0-0.21","4","3","4","3","4","3","4","3","4","4","4","4","3","4","4","5","4","4","4","4","1","2","2","2","2","2","2","2","2","1","0","1","1","0","0","1","1","0","1","1","0","1","0","1","4","2","2","1","2","1","2","4","2","2","1","756877432623206401","李","586","","","","null","","","","","","","","","","","","","","key","null","16.689393939393938","768","428","j","false","nonmatch","img/hexagon.png","圆形","六边","ALT1","formal_ALT1_1","","","","","","","","","","","",""
"null","<span class='add_' style='color:yellow; font-size: 70px;'> 太慢! </span>","null","html-keyboard-response","150","557563","0.0-7.0-0.0-4.0-0.0-1.21","4","3","4","3","4","3","4","3","4","4","4","4","3","4","4","5","4","4","4","4","1","2","2","2","2","2","2","2","2","1","0","1","1","0","0","1","1","0","1","1","0","1","0","1","4","2","2","1","2","1","2","4","2","2","1","756877432623206401","李","586","","","","","","","","","","","","","","","","","","","","","","","","","","","","","","feedback_test","","","","","","","","","","","",""
"null","","null","psychophysics","151","559771","0.0-7.0-0.0-4.0-0.0-0.22","4","3","4","3","4","3","4","3","4","4","4","4","3","4","4","5","4","4","4","4","1","2","2","2","2","2","2","2","2","1","0","1","1","0","0","1","1","0","1","1","0","1","0","1","4","2","2","1","2","1","2","4","2","2","1","756877432623206401","李","586","","","","null","","","","","","","","","","","","","","key","null","16.66439393939447","768","428","f","false","match","img/square.png","方形","方形","ALT1","formal_ALT1_1","","","","","","","","","","","",""
"null","<span class='add_' style='color:yellow; font-size: 70px;'> 太慢! </span>","null","html-keyboard-response","152","560283","0.0-7.0-0.0-4.0-0.0-1.22","4","3","4","3","4","3","4","3","4","4","4","4","3","4","4","5","4","4","4","4","1","2","2","2","2","2","2","2","2","1","0","1","1","0","0","1","1","0","1","1","0","1","0","1","4","2","2","1","2","1","2","4","2","2","1","756877432623206401","李","586","","","","","","","","","","","","","","","","","","","","","","","","","","","","","","feedback_test","","","","","","","","","","","",""
"null","","null","psychophysics","153","562491","0.0-7.0-0.0-4.0-0.0-0.23","4","3","4","3","4","3","4","3","4","4","4","4","3","4","4","5","4","4","4","4","1","2","2","2","2","2","2","2","2","1","0","1","1","0","0","1","1","0","1","1","0","1","0","1","4","2","2","1","2","1","2","4","2","2","1","756877432623206401","李","586","","","","null","","","","","","","","","","","","","","key","null","16.664427480915425","768","428","j","false","nonmatch","img/trapezoid.png","方形","梯形","ALT1","formal_ALT1_1","","","","","","","","","","","",""
"null","<span class='add_' style='color:yellow; font-size: 70px;'> 太慢! </span>","null","html-keyboard-response","154","563004","0.0-7.0-0.0-4.0-0.0-1.23","4","3","4","3","4","3","4","3","4","4","4","4","3","4","4","5","4","4","4","4","1","2","2","2","2","2","2","2","2","1","0","1","1","0","0","1","1","0","1","1","0","1","0","1","4","2","2","1","2","1","2","4","2","2","1","756877432623206401","李","586","","","","","","","","","","","","","","","","","","","","","","","","","","","","","","feedback_test","","","","","","","","","","","",""
"null","","null","psychophysics","155","565216","0.0-7.0-0.0-4.0-0.0-0.24","4","3","4","3","4","3","4","3","4","4","4","4","3","4","4","5","4","4","4","4","1","2","2","2","2","2","2","2","2","1","0","1","1","0","0","1","1","0","1","1","0","1","0","1","4","2","2","1","2","1","2","4","2","2","1","756877432623206401","李","586","","","","null","","","","","","","","","","","","","","key","null","16.687575757574947","768","428","j","false","nonmatch","img/hexagon.png","梯形","六边","ALT1","formal_ALT1_1","","","","","","","","","","","",""
"null","<span class='add_' style='color:yellow; font-size: 70px;'> 太慢! </span>","null","html-keyboard-response","156","565731","0.0-7.0-0.0-4.0-0.0-1.24","4","3","4","3","4","3","4","3","4","4","4","4","3","4","4","5","4","4","4","4","1","2","2","2","2","2","2","2","2","1","0","1","1","0","0","1","1","0","1","1","0","1","0","1","4","2","2","1","2","1","2","4","2","2","1","756877432623206401","李","586","","","","","","","","","","","","","","","","","","","","","","","","","","","","","","feedback_test","","","","","","","","","","","",""
"null","","null","psychophysics","157","567942","0.0-7.0-0.0-4.0-0.0-0.25","4","3","4","3","4","3","4","3","4","4","4","4","3","4","4","5","4","4","4","4","1","2","2","2","2","2","2","2","2","1","0","1","1","0","0","1","1","0","1","1","0","1","0","1","4","2","2","1","2","1","2","4","2","2","1","756877432623206401","李","586","","","","null","","","","","","","","","","","","","","key","null","16.68863636363654","768","428","f","false","match","img/square.png","方形","方形","ALT1","formal_ALT1_1","","","","","","","","","","","",""
"null","<span class='add_' style='color:yellow; font-size: 70px;'> 太慢! </span>","null","html-keyboard-response","158","568457","0.0-7.0-0.0-4.0-0.0-1.25","4","3","4","3","4","3","4","3","4","4","4","4","3","4","4","5","4","4","4","4","1","2","2","2","2","2","2","2","2","1","0","1","1","0","0","1","1","0","1","1","0","1","0","1","4","2","2","1","2","1","2","4","2","2","1","756877432623206401","李","586","","","","","","","","","","","","","","","","","","","","","","","","","","","","","","feedback_test","","","","","","","","","","","",""
"null","","null","psychophysics","159","570664","0.0-7.0-0.0-4.0-0.0-0.26","4","3","4","3","4","3","4","3","4","4","4","4","3","4","4","5","4","4","4","4","1","2","2","2","2","2","2","2","2","1","0","1","1","0","0","1","1","0","1","1","0","1","0","1","4","2","2","1","2","1","2","4","2","2","1","756877432623206401","李","586","","","","null","","","","","","","","","","","","","","key","null","16.68893939393897","768","428","f","false","match","img/trapezoid.png","梯形","梯形","ALT1","formal_ALT1_1","","","","","","","","","","","",""
"null","<span class='add_' style='color:yellow; font-size: 70px;'> 太慢! </span>","null","html-keyboard-response","160","571180","0.0-7.0-0.0-4.0-0.0-1.26","4","3","4","3","4","3","4","3","4","4","4","4","3","4","4","5","4","4","4","4","1","2","2","2","2","2","2","2","2","1","0","1","1","0","0","1","1","0","1","1","0","1","0","1","4","2","2","1","2","1","2","4","2","2","1","756877432623206401","李","586","","","","","","","","","","","","","","","","","","","","","","","","","","","","","","feedback_test","","","","","","","","","","","",""
"null","","null","psychophysics","161","573384","0.0-7.0-0.0-4.0-0.0-0.27","4","3","4","3","4","3","4","3","4","4","4","4","3","4","4","5","4","4","4","4","1","2","2","2","2","2","2","2","2","1","0","1","1","0","0","1","1","0","1","1","0","1","0","1","4","2","2","1","2","1","2","4","2","2","1","756877432623206401","李","586","","","","null","","","","","","","","","","","","","","key","null","16.69083969465649","768","428","f","false","match","img/circle.png","圆形","圆形","ALT1","formal_ALT1_1","","","","","","","","","","","",""
"null","<span class='add_' style='color:yellow; font-size: 70px;'> 太慢! </span>","null","html-keyboard-response","162","573898","0.0-7.0-0.0-4.0-0.0-1.27","4","3","4","3","4","3","4","3","4","4","4","4","3","4","4","5","4","4","4","4","1","2","2","2","2","2","2","2","2","1","0","1","1","0","0","1","1","0","1","1","0","1","0","1","4","2","2","1","2","1","2","4","2","2","1","756877432623206401","李","586","","","","","","","","","","","","","","","","","","","","","","","","","","","","","","feedback_test","","","","","","","","","","","",""
"null","","null","psychophysics","163","576109","0.0-7.0-0.0-4.0-0.0-0.28","4","3","4","3","4","3","4","3","4","4","4","4","3","4","4","5","4","4","4","4","1","2","2","2","2","2","2","2","2","1","0","1","1","0","0","1","1","0","1","1","0","1","0","1","4","2","2","1","2","1","2","4","2","2","1","756877432623206401","李","586","","","","null","","","","","","","","","","","","","","key","null","16.664393939393587","768","428","f","false","match","img/trapezoid.png","梯形","梯形","ALT1","formal_ALT1_1","","","","","","","","","","","",""
"null","<span class='add_' style='color:yellow; font-size: 70px;'> 太慢! </span>","null","html-keyboard-response","164","576622","0.0-7.0-0.0-4.0-0.0-1.28","4","3","4","3","4","3","4","3","4","4","4","4","3","4","4","5","4","4","4","4","1","2","2","2","2","2","2","2","2","1","0","1","1","0","0","1","1","0","1","1","0","1","0","1","4","2","2","1","2","1","2","4","2","2","1","756877432623206401","李","586","","","","","","","","","","","","","","","","","","","","","","","","","","","","","","feedback_test","","","","","","","","","","","",""
"536","","f","psychophysics","165","578170","0.0-7.0-0.0-4.0-0.0-0.29","4","3","4","3","4","3","4","3","4","4","4","4","3","4","4","5","4","4","4","4","1","2","2","2","2","2","2","2","2","1","0","1","1","0","0","1","1","0","1","1","0","1","0","1","4","2","2","1","2","1","2","4","2","2","1","756877432623206401","李","586","","","","match","","","","","","","","","","","","","","key","f","16.664347826086907","768","428","f","true","match","img/circle.png","圆形","圆形","ALT1","formal_ALT1_1","","","","","","","","","","","",""
"null","<span style='color:GreenYellow; font-size: 70px;'>正确! </span>","null","html-keyboard-response","166","578681","0.0-7.0-0.0-4.0-0.0-1.29","4","3","4","3","4","3","4","3","4","4","4","4","3","4","4","5","4","4","4","4","1","2","2","2","2","2","2","2","2","1","0","1","1","0","0","1","1","0","1","1","0","1","0","1","4","2","2","1","2","1","2","4","2","2","1","756877432623206401","李","586","","","","","","","","","","","","","","","","","","","","","","","","","","","","","","feedback_test","","","","","","","","","","","",""
"677","","j","psychophysics","167","580360","0.0-7.0-0.0-4.0-0.0-0.30","4","3","4","3","4","3","4","3","4","4","4","4","3","4","4","5","4","4","4","4","1","2","2","2","2","2","2","2","2","1","0","1","1","0","0","1","1","0","1","1","0","1","0","1","4","2","2","1","2","1","2","4","2","2","1","756877432623206401","李","586","","","","nonmatch","","","","","","","","","","","","","","key","j","16.664000000000232","768","428","j","true","nonmatch","img/square.png","梯形","方形","ALT1","formal_ALT1_1","","","","","","","","","","","",""
"null","<span style='color:GreenYellow; font-size: 70px;'>正确! </span>","null","html-keyboard-response","168","580886","0.0-7.0-0.0-4.0-0.0-1.30","4","3","4","3","4","3","4","3","4","4","4","4","3","4","4","5","4","4","4","4","1","2","2","2","2","2","2","2","2","1","0","1","1","0","0","1","1","0","1","1","0","1","0","1","4","2","2","1","2","1","2","4","2","2","1","756877432623206401","李","586","","","","","","","","","","","","","","","","","","","","","","","","","","","","","","feedback_test","","","","","","","","","","","",""
"717","","j","psychophysics","169","582615","0.0-7.0-0.0-4.0-0.0-0.31","4","3","4","3","4","3","4","3","4","4","4","4","3","4","4","5","4","4","4","4","1","2","2","2","2","2","2","2","2","1","0","1","1","0","0","1","1","0","1","1","0","1","0","1","4","2","2","1","2","1","2","4","2","2","1","756877432623206401","李","586","","","","nonmatch","","","","","","","","","","","","","","key","j","16.685436893203658","768","428","j","true","nonmatch","img/circle.png","方形","圆形","ALT1","formal_ALT1_1","","","","","","","","","","","",""
"null","<span style='color:GreenYellow; font-size: 70px;'>正确! </span>","null","html-keyboard-response","170","583178","0.0-7.0-0.0-4.0-0.0-1.31","4","3","4","3","4","3","4","3","4","4","4","4","3","4","4","5","4","4","4","4","1","2","2","2","2","2","2","2","2","1","0","1","1","0","0","1","1","0","1","1","0","1","0","1","4","2","2","1","2","1","2","4","2","2","1","756877432623206401","李","586","","","","","","","","","","","","","","","","","","","","","","","","","","","","","","feedback_test","","","","","","","","","","","",""
"801","","f","psychophysics","171","584991","0.0-7.0-0.0-4.0-0.0-0.32","4","3","4","3","4","3","4","3","4","4","4","4","3","4","4","5","4","4","4","4","1","2","2","2","2","2","2","2","2","1","0","1","1","0","0","1","1","0","1","1","0","1","0","1","4","2","2","1","2","1","2","4","2","2","1","756877432623206401","李","586","","","","match","","","","","","","","","","","","","","key","f","16.691111111110164","768","428","f","true","match","img/hexagon.png","六边","六边","ALT1","formal_ALT1_1","","","","","","","","","","","",""
"null","<span style='color:GreenYellow; font-size: 70px;'>正确! </span>","null","html-keyboard-response","172","585514","0.0-7.0-0.0-4.0-0.0-1.32","4","3","4","3","4","3","4","3","4","4","4","4","3","4","4","5","4","4","4","4","1","2","2","2","2","2","2","2","2","1","0","1","1","0","0","1","1","0","1","1","0","1","0","1","4","2","2","1","2","1","2","4","2","2","1","756877432623206401","李","586","","","","","","","","","","","","","","","","","","","","","","","","","","","","","","feedback_test","","","","","","","","","","","",""
"763","","j","psychophysics","173","587290","0.0-7.0-0.0-4.0-0.0-0.33","4","3","4","3","4","3","4","3","4","4","4","4","3","4","4","5","4","4","4","4","1","2","2","2","2","2","2","2","2","1","0","1","1","0","0","1","1","0","1","1","0","1","0","1","4","2","2","1","2","1","2","4","2","2","1","756877432623206401","李","586","","","","nonmatch","","","","","","","","","","","","","","key","j","16.690943396226327","768","428","j","true","nonmatch","img/trapezoid.png","方形","梯形","ALT1","formal_ALT1_1","","","","","","","","","","","",""
"null","<span style='color:GreenYellow; font-size: 70px;'>正确! </span>","null","html-keyboard-response","174","587805","0.0-7.0-0.0-4.0-0.0-1.33","4","3","4","3","4","3","4","3","4","4","4","4","3","4","4","5","4","4","4","4","1","2","2","2","2","2","2","2","2","1","0","1","1","0","0","1","1","0","1","1","0","1","0","1","4","2","2","1","2","1","2","4","2","2","1","756877432623206401","李","586","","","","","","","","","","","","","","","","","","","","","","","","","","","","","","feedback_test","","","","","","","","","","","",""
"650","","j","psychophysics","175","589465","0.0-7.0-0.0-4.0-0.0-0.34","4","3","4","3","4","3","4","3","4","4","4","4","3","4","4","5","4","4","4","4","1","2","2","2","2","2","2","2","2","1","0","1","1","0","0","1","1","0","1","1","0","1","0","1","4","2","2","1","2","1","2","4","2","2","1","756877432623206401","李","586","","","","nonmatch","","","","","","","","","","","","","","key","j","16.682626262627014","768","428","j","true","nonmatch","img/hexagon.png","圆形","六边","ALT1","formal_ALT1_1","","","","","","","","","","","",""
"null","<span style='color:GreenYellow; font-size: 70px;'>正确! </span>","null","html-keyboard-response","176","589978","0.0-7.0-0.0-4.0-0.0-1.34","4","3","4","3","4","3","4","3","4","4","4","4","3","4","4","5","4","4","4","4","1","2","2","2","2","2","2","2","2","1","0","1","1","0","0","1","1","0","1","1","0","1","0","1","4","2","2","1","2","1","2","4","2","2","1","756877432623206401","李","586","","","","","","","","","","","","","","","","","","","","","","","","","","","","","","feedback_test","","","","","","","","","","","",""
"747","","f","psychophysics","177","591736","0.0-7.0-0.0-4.0-0.0-0.35","4","3","4","3","4","3","4","3","4","4","4","4","3","4","4","5","4","4","4","4","1","2","2","2","2","2","2","2","2","1","0","1","1","0","0","1","1","0","1","1","0","1","0","1","4","2","2","1","2","1","2","4","2","2","1","756877432623206401","李","586","","","","match","","","","","","","","","","","","","","key","f","16.559619047619137","768","428","f","true","match","img/square.png","方形","方形","ALT1","formal_ALT1_1","","","","","","","","","","","",""
"null","<span style='color:GreenYellow; font-size: 70px;'>正确! </span>","null","html-keyboard-response","178","592283","0.0-7.0-0.0-4.0-0.0-1.35","4","3","4","3","4","3","4","3","4","4","4","4","3","4","4","5","4","4","4","4","1","2","2","2","2","2","2","2","2","1","0","1","1","0","0","1","1","0","1","1","0","1","0","1","4","2","2","1","2","1","2","4","2","2","1","756877432623206401","李","586","","","","","","","","","","","","","","","","","","","","","","","","","","","","","","feedback_test","","","","","","","","","","","",""
"767","","j","psychophysics","179","594063","0.0-7.0-0.0-4.0-0.0-0.36","4","3","4","3","4","3","4","3","4","4","4","4","3","4","4","5","4","4","4","4","1","2","2","2","2","2","2","2","2","1","0","1","1","0","0","1","1","0","1","1","0","1","0","1","4","2","2","1","2","1","2","4","2","2","1","756877432623206401","李","586","","","","nonmatch","","","","","","","","","","","","","","key","j","16.695283018868583","768","428","j","true","nonmatch","img/square.png","圆形","方形","ALT1","formal_ALT1_1","","","","","","","","","","","",""
"null","<span style='color:GreenYellow; font-size: 70px;'>正确! </span>","null","html-keyboard-response","180","594622","0.0-7.0-0.0-4.0-0.0-1.36","4","3","4","3","4","3","4","3","4","4","4","4","3","4","4","5","4","4","4","4","1","2","2","2","2","2","2","2","2","1","0","1","1","0","0","1","1","0","1","1","0","1","0","1","4","2","2","1","2","1","2","4","2","2","1","756877432623206401","李","586","","","","","","","","","","","","","","","","","","","","","","","","","","","","","","feedback_test","","","","","","","","","","","",""
"726","","j","psychophysics","181","596359","0.0-7.0-0.0-4.0-0.0-0.37","4","3","4","3","4","3","4","3","4","4","4","4","3","4","4","5","4","4","4","4","1","2","2","2","2","2","2","2","2","1","0","1","1","0","0","1","1","0","1","1","0","1","0","1","4","2","2","1","2","1","2","4","2","2","1","756877432623206401","李","586","","","","nonmatch","","","","","","","","","","","","","","key","j","16.683495145631294","768","428","j","true","nonmatch","img/trapezoid.png","圆形","梯形","ALT1","formal_ALT1_1","","","","","","","","","","","",""
"null","<span style='color:GreenYellow; font-size: 70px;'>正确! </span>","null","html-keyboard-response","182","596865","0.0-7.0-0.0-4.0-0.0-1.37","4","3","4","3","4","3","4","3","4","4","4","4","3","4","4","5","4","4","4","4","1","2","2","2","2","2","2","2","2","1","0","1","1","0","0","1","1","0","1","1","0","1","0","1","4","2","2","1","2","1","2","4","2","2","1","756877432623206401","李","586","","","","","","","","","","","","","","","","","","","","","","","","","","","","","","feedback_test","","","","","","","","","","","",""
