"rt","stimulus","response","trial_type","trial_index","time_elapsed","internal_node_id","ses_1","ses_2","ses_3","ses_4","ses_5","ses_6","ses_7","ses_8","ses_9","ses_10","coreself_1","coreself_2","coreself_3","coreself_4","coreself_5","coreself_6","coreself_7","coreself_8","coreself_9","coreself_10","SGPS_1","SGPS_2","SGPS_3","SGPS_4","SGPS_5","SGPS_6","SGPS_7","SGPS_8","SGPS_9","NPI1","NPI2","NPI3","NPI4","NPI5","NPI6","NPI7","NPI8","NPI9","NPI10","NPI11","NPI12","NPI13","NPI14","NPI15","hsns_1","hsns_2","hsns_3","hsns_4","hsns_5","trap1","hsns_6","hsns_7","hsns_8","hsns_9","hsns_10","subj_idx","friend_name","ParticipantID","value","success","user_agent","responses","item_order","radio_event_ids","radio_event_times","key_event_times","mouse_event_times","straightlining","zigzagging","honeypot","timeout","failed_images","failed_audio","failed_video","version_attrib2","version_target2","correct","IAT","screen_id","task_id","RT","condition","word","varname","summary","version_attrib","version_target","time_stamp","view_history","response_type","key_press","avg_frame_time","center_x","center_y","correct_response","identity","Image","question_order","correct_answer","trap1_item"
"2651","
   <p><div style = ""color: white;font-size:25px;"">您好，欢迎参加本次实验。</div> </p>
   <p><div style = ""color: white;font-size:25px;"">为充分保障您的权利，请确保您已经知晓并同意《参与实验同意书》以及《数据公开知情同意书》。</div></p>
   <p><div style = ""color: white;font-size:25px;"">如果您未见过上述内容，请咨询实验员。</div></p>
   <p><div style = ""color: white;font-size:25px;"">如果您选择继续实验，则表示您已经清楚两份知情同意书的内容并同意。</div></p>
   <p><div style = ""color: pink;font-size:30px;"">请确保您记得day0的实验编号，您将在本次实验输入该编号，若您忘记，请咨询实验员后作答。</div></p>
   <p><div style = ""color: lightblue;font-size:25px;"">请您尽可能认真地作答，我们将依据您在各问卷和按键任务中的作答质量发放报酬。</div></p>
   <p> <div style = ""color: green;font-size:25px;""><按空格键至下页></div> </p>
   "," ","html-keyboard-response","0","2652","0.0-0.0","4","3","4","4","4","3","4","4","4","4","4","4","2","4","4","5","5","3","4","5","4","4","4","4","4","4","4","2","5","1","0","0","1","0","0","0","1","0","1","1","0","1","0","1","4","4","4","5","5","2","4","4","5","4","4","653013422224441344","苏","356","","","","","","","","","","","","","","","","","","","","","","","","","","","","","","","","","","","","","","","","","",""
"","","","call-function","1","2652","0.0-1.0-0.0","4","3","4","4","4","3","4","4","4","4","4","4","2","4","4","5","5","3","4","5","4","4","4","4","4","4","4","2","5","1","0","0","1","0","0","0","1","0","1","1","0","1","0","1","4","4","4","5","5","2","4","4","5","4","4","653013422224441344","苏","356","","","","","","","","","","","","","","","","","","","","","","","","","","","","","","","","","","","","","","","","","",""
"8787","","{""friend_name"":""苏"",""ParticipantID"":""356""}","survey-html-form","2","11440","0.0-1.0-1.0","4","3","4","4","4","3","4","4","4","4","4","4","2","4","4","5","5","3","4","5","4","4","4","4","4","4","4","2","5","1","0","0","1","0","0","0","1","0","1","1","0","1","0","1","4","4","4","5","5","2","4","4","5","4","4","653013422224441344","苏","356","","","","","","","","","","","","","","","","","","","","","","","","","","","","","","","","","","","","","","","","","",""
"","","","fullscreen","3","12937","0.0-2.0","4","3","4","4","4","3","4","4","4","4","4","4","2","4","4","5","5","3","4","5","4","4","4","4","4","4","4","2","5","1","0","0","1","0","0","0","1","0","1","1","0","1","0","1","4","4","4","5","5","2","4","4","5","4","4","653013422224441344","苏","356","","true","{}","","","","","","","","","","","","","","","","","","","","","","","","","","","","","","","","","","","","","","",""
"22414.200000047684","","{""Q01"":""4"",""Q02"":""3"",""Q03"":""4"",""Q04"":""4"",""Q05"":""4"",""Q06"":""3"",""Q07"":""4"",""Q08"":""4"",""Q09"":""4"",""Q10"":""4""}","survey-template","4","35353","0.0-3.0","4","3","4","4","4","3","4","4","4","4","4","4","2","4","4","5","5","3","4","5","4","4","4","4","4","4","4","2","5","1","0","0","1","0","0","0","1","0","1","1","0","1","0","1","4","4","4","5","5","2","4","4","5","4","4","653013422224441344","苏","356","","","","{""Q01"":""4"",""Q02"":""3"",""Q03"":""4"",""Q04"":""4"",""Q05"":""4"",""Q06"":""3"",""Q07"":""4"",""Q08"":""4"",""Q09"":""4"",""Q10"":""4""}","[0,1,2,3,4,5,6,7,8,9]","[""Q01"",""Q02"",""Q03"",""Q04"",""Q04"",""Q03"",""Q05"",""Q06"",""Q07"",""Q08"",""Q09"",""Q10""]","[3773.4000000953674,4785.600000143051,5777.5,7861.600000143051,11097.799999952316,11833.600000143051,13725.600000143051,15517.799999952316,16301.600000143051,19449.400000095367,20165.5,20598.200000047684]","[]","[3773.4000000953674,4785.600000143051,5777.5,7057.700000047684,7861.600000143051,9909.400000095367,10517.5,11097.799999952316,11833.600000143051,13097.400000095367,13725.600000143051,15517.799999952316,16301.600000143051,19449.400000095367,20165.5,20598.200000047684,22413.5]","0.5","0.5555555555555556","0","","","","","","","","","","","","","","","","","","","","","","","","","","","","","",""
"30097.39999985695","","{""Q01"":""4"",""Q02"":""4"",""Q03"":""2"",""Q04"":""4"",""Q05"":""4"",""Q06"":""5"",""Q07"":""5"",""Q08"":""3"",""Q09"":""4"",""Q10"":""5""}","survey-template","5","65453","0.0-4.0","4","3","4","4","4","3","4","4","4","4","4","4","2","4","4","5","5","3","4","5","4","4","4","4","4","4","4","2","5","1","0","0","1","0","0","0","1","0","1","1","0","1","0","1","4","4","4","5","5","2","4","4","5","4","4","653013422224441344","苏","356","","","","{""Q01"":""4"",""Q02"":""4"",""Q03"":""2"",""Q04"":""4"",""Q05"":""4"",""Q06"":""5"",""Q07"":""5"",""Q08"":""3"",""Q09"":""4"",""Q10"":""5""}","[0,1,2,3,4,5,6,7,8,9]","[""Q01"",""Q02"",""Q03"",""Q03"",""Q04"",""Q05"",""Q06"",""Q07"",""Q08"",""Q08"",""Q09"",""Q03"",""Q10""]","[3236.7999999523163,4068.7000000476837,5780.599999904633,6552.700000047684,12008.599999904633,13609.700000047684,15436.5,17609,18280.5,22748.89999985695,23968.599999904633,24833.200000047684,27884.5]","[]","[2288.7000000476837,3236.7999999523163,4068.7000000476837,5780.599999904633,6552.700000047684,10468.799999952316,11753.099999904633,12008.599999904633,13609.700000047684,14492.599999904633,15436.5,17609,18280.5,21132.5,21948.599999904633,22748.89999985695,23344.599999904633,23633.299999952316,23968.599999904633,24833.200000047684,27884.5,30096.599999904633]","0.4","0.2222222222222222","0","","","","","","","","","","","","","","","","","","","","","","","","","","","","","",""
"","","","preload","6","65759","0.0-5.0","4","3","4","4","4","3","4","4","4","4","4","4","2","4","4","5","5","3","4","5","4","4","4","4","4","4","4","2","5","1","0","0","1","0","0","0","1","0","1","1","0","1","0","1","4","4","4","5","5","2","4","4","5","4","4","653013422224441344","苏","356","","true","","","","","","","","","","","false","[]","[]","[]","","","","","","","","","","","","","","","","","","","","","","","","","",""
"16608","
    <h3>词语分类任务</h3>
    <p>在接下来的任务中，你需要对一系列词语进行分类。<p/>
    请先熟悉这些词语，这有利于你完成接下来的任务。</p>
    <table align=""center"" border=1 cellpadding=3 cellspacing=0>
    <tr> <th>类别</th> <th>词语</th> </tr>
    <tr> <td>&emsp;积极&emsp;</td> <td>&emsp;高尚、诚信、善良、君子、廉正、正直&emsp;</td> </tr>
    <tr> <td>&emsp;消极&emsp;</td> <td>&emsp;缺德、卑鄙、不孝、不仁、小人、黑心&emsp;</td> </tr>
    <tr> <td>&emsp;自我&emsp;</td> <td>&emsp;我、我的、自己、自己的、本人、本人的&emsp;</td> </tr>
    <tr> <td>&emsp;他人&emsp;</td> <td>&emsp;他、他的、别人、别人的、他人、他人的&emsp;</td> </tr>
    </table><br/>","0","html-button-response","7","82368","0.0-6.0-1.0-0.0","4","3","4","4","4","3","4","4","4","4","4","4","2","4","4","5","5","3","4","5","4","4","4","4","4","4","4","2","5","1","0","0","1","0","0","0","1","0","1","1","0","1","0","1","4","4","4","5","5","2","4","4","5","4","4","653013422224441344","苏","356","","","","","","","","","","","","","","","","","1","2","","","","","","","","","","","","","","","","","","","","","","","",""
"24531","
    <div class=""tag-bottom""><p>
    —— 任务1：对“他人”词和“自我”词分类 ——<p/>
    不同词语会出现在屏幕中央，类别标签将始终显示在屏幕上方<p/>   
    <span style=""color:#FFD866""><b>请根据上方标签的提示，尽可能正确并且快速地做出按键反应</b></span><p/>
    当按键错误时屏幕中会出现<span style=""color:red""> X </span>，需要按另一个键纠正才能继续<br/><p/>
    请把双手食指分别放在键盘的“E”键和“I”键上<p/>
    按<空格键>开始
    </p></div>"," ","html-keyboard-response","8","106901","0.0-6.0-1.0-1.0","4","3","4","4","4","3","4","4","4","4","4","4","2","4","4","5","5","3","4","5","4","4","4","4","4","4","4","2","5","1","0","0","1","0","0","0","1","0","1","1","0","1","0","1","4","4","4","5","5","2","4","4","5","4","4","653013422224441344","苏","356","","","","","","","","","","","","","","","","","","","","","","","","","","","","","","","","","","","","","","","","","",""
"null","","null","html-keyboard-response","9","107152","0.0-6.0-1.0-2.0-0.0","4","3","4","4","4","3","4","4","4","4","4","4","2","4","4","5","5","3","4","5","4","4","4","4","4","4","4","2","5","1","0","0","1","0","0","0","1","0","1","1","0","1","0","1","4","4","4","5","5","2","4","4","5","4","4","653013422224441344","苏","356","","","","","","","","","","","","","","","","","","","","","","","","","","","","","","","","","","","","","","","","","",""
"961","<p style=""color:rgb(150, 250, 100); font-size: 35px;"">自己</p>","i","categorize-html","10","108115","0.0-6.0-1.0-2.0-1.0","4","3","4","4","4","3","4","4","4","4","4","4","2","4","4","5","5","3","4","5","4","4","4","4","4","4","4","2","5","1","0","0","1","0","0","0","1","0","1","1","0","1","0","1","4","4","4","5","5","2","4","4","5","4","4","653013422224441344","苏","356","","","","","","","","","","","","","","","","","","","true","11","1","moral","961","self","自己","","","","","","","","","","","","","","","","",""
"null","","null","html-keyboard-response","11","108366","0.0-6.0-1.0-2.0-0.1","4","3","4","4","4","3","4","4","4","4","4","4","2","4","4","5","5","3","4","5","4","4","4","4","4","4","4","2","5","1","0","0","1","0","0","0","1","0","1","1","0","1","0","1","4","4","4","5","5","2","4","4","5","4","4","653013422224441344","苏","356","","","","","","","","","","","","","","","","","","","","","","","","","","","","","","","","","","","","","","","","","",""
"627","<p style=""color:rgb(150, 250, 100); font-size: 35px;"">自己的</p>","i","categorize-html","12","108993","0.0-6.0-1.0-2.0-1.1","4","3","4","4","4","3","4","4","4","4","4","4","2","4","4","5","5","3","4","5","4","4","4","4","4","4","4","2","5","1","0","0","1","0","0","0","1","0","1","1","0","1","0","1","4","4","4","5","5","2","4","4","5","4","4","653013422224441344","苏","356","","","","","","","","","","","","","","","","","","","true","11","1","moral","627","self","自己的","","","","","","","","","","","","","","","","",""
"null","","null","html-keyboard-response","13","109243","0.0-6.0-1.0-2.0-0.2","4","3","4","4","4","3","4","4","4","4","4","4","2","4","4","5","5","3","4","5","4","4","4","4","4","4","4","2","5","1","0","0","1","0","0","0","1","0","1","1","0","1","0","1","4","4","4","5","5","2","4","4","5","4","4","653013422224441344","苏","356","","","","","","","","","","","","","","","","","","","","","","","","","","","","","","","","","","","","","","","","","",""
"607","<p style=""color:rgb(150, 250, 100); font-size: 35px;"">他人</p>","e","categorize-html","14","109851","0.0-6.0-1.0-2.0-1.2","4","3","4","4","4","3","4","4","4","4","4","4","2","4","4","5","5","3","4","5","4","4","4","4","4","4","4","2","5","1","0","0","1","0","0","0","1","0","1","1","0","1","0","1","4","4","4","5","5","2","4","4","5","4","4","653013422224441344","苏","356","","","","","","","","","","","","","","","","","","","true","11","1","moral","607","other","他人","","","","","","","","","","","","","","","","",""
"null","","null","html-keyboard-response","15","110102","0.0-6.0-1.0-2.0-0.3","4","3","4","4","4","3","4","4","4","4","4","4","2","4","4","5","5","3","4","5","4","4","4","4","4","4","4","2","5","1","0","0","1","0","0","0","1","0","1","1","0","1","0","1","4","4","4","5","5","2","4","4","5","4","4","653013422224441344","苏","356","","","","","","","","","","","","","","","","","","","","","","","","","","","","","","","","","","","","","","","","","",""
"621","<p style=""color:rgb(150, 250, 100); font-size: 35px;"">他</p>","e","categorize-html","16","110724","0.0-6.0-1.0-2.0-1.3","4","3","4","4","4","3","4","4","4","4","4","4","2","4","4","5","5","3","4","5","4","4","4","4","4","4","4","2","5","1","0","0","1","0","0","0","1","0","1","1","0","1","0","1","4","4","4","5","5","2","4","4","5","4","4","653013422224441344","苏","356","","","","","","","","","","","","","","","","","","","true","11","1","moral","621","other","他","","","","","","","","","","","","","","","","",""
"null","","null","html-keyboard-response","17","110975","0.0-6.0-1.0-2.0-0.4","4","3","4","4","4","3","4","4","4","4","4","4","2","4","4","5","5","3","4","5","4","4","4","4","4","4","4","2","5","1","0","0","1","0","0","0","1","0","1","1","0","1","0","1","4","4","4","5","5","2","4","4","5","4","4","653013422224441344","苏","356","","","","","","","","","","","","","","","","","","","","","","","","","","","","","","","","","","","","","","","","","",""
"591","<p style=""color:rgb(150, 250, 100); font-size: 35px;"">我的</p>","i","categorize-html","18","111567","0.0-6.0-1.0-2.0-1.4","4","3","4","4","4","3","4","4","4","4","4","4","2","4","4","5","5","3","4","5","4","4","4","4","4","4","4","2","5","1","0","0","1","0","0","0","1","0","1","1","0","1","0","1","4","4","4","5","5","2","4","4","5","4","4","653013422224441344","苏","356","","","","","","","","","","","","","","","","","","","true","11","1","moral","591","self","我的","","","","","","","","","","","","","","","","",""
"null","","null","html-keyboard-response","19","111819","0.0-6.0-1.0-2.0-0.5","4","3","4","4","4","3","4","4","4","4","4","4","2","4","4","5","5","3","4","5","4","4","4","4","4","4","4","2","5","1","0","0","1","0","0","0","1","0","1","1","0","1","0","1","4","4","4","5","5","2","4","4","5","4","4","653013422224441344","苏","356","","","","","","","","","","","","","","","","","","","","","","","","","","","","","","","","","","","","","","","","","",""
"605","<p style=""color:rgb(150, 250, 100); font-size: 35px;"">本人的</p>","i","categorize-html","20","112425","0.0-6.0-1.0-2.0-1.5","4","3","4","4","4","3","4","4","4","4","4","4","2","4","4","5","5","3","4","5","4","4","4","4","4","4","4","2","5","1","0","0","1","0","0","0","1","0","1","1","0","1","0","1","4","4","4","5","5","2","4","4","5","4","4","653013422224441344","苏","356","","","","","","","","","","","","","","","","","","","true","11","1","moral","605","self","本人的","","","","","","","","","","","","","","","","",""
"null","","null","html-keyboard-response","21","112676","0.0-6.0-1.0-2.0-0.6","4","3","4","4","4","3","4","4","4","4","4","4","2","4","4","5","5","3","4","5","4","4","4","4","4","4","4","2","5","1","0","0","1","0","0","0","1","0","1","1","0","1","0","1","4","4","4","5","5","2","4","4","5","4","4","653013422224441344","苏","356","","","","","","","","","","","","","","","","","","","","","","","","","","","","","","","","","","","","","","","","","",""
"520","<p style=""color:rgb(150, 250, 100); font-size: 35px;"">本人</p>","i","categorize-html","22","113198","0.0-6.0-1.0-2.0-1.6","4","3","4","4","4","3","4","4","4","4","4","4","2","4","4","5","5","3","4","5","4","4","4","4","4","4","4","2","5","1","0","0","1","0","0","0","1","0","1","1","0","1","0","1","4","4","4","5","5","2","4","4","5","4","4","653013422224441344","苏","356","","","","","","","","","","","","","","","","","","","true","11","1","moral","520","self","本人","","","","","","","","","","","","","","","","",""
"null","","null","html-keyboard-response","23","113449","0.0-6.0-1.0-2.0-0.7","4","3","4","4","4","3","4","4","4","4","4","4","2","4","4","5","5","3","4","5","4","4","4","4","4","4","4","2","5","1","0","0","1","0","0","0","1","0","1","1","0","1","0","1","4","4","4","5","5","2","4","4","5","4","4","653013422224441344","苏","356","","","","","","","","","","","","","","","","","","","","","","","","","","","","","","","","","","","","","","","","","",""
"489","<p style=""color:rgb(150, 250, 100); font-size: 35px;"">我</p>","i","categorize-html","24","113940","0.0-6.0-1.0-2.0-1.7","4","3","4","4","4","3","4","4","4","4","4","4","2","4","4","5","5","3","4","5","4","4","4","4","4","4","4","2","5","1","0","0","1","0","0","0","1","0","1","1","0","1","0","1","4","4","4","5","5","2","4","4","5","4","4","653013422224441344","苏","356","","","","","","","","","","","","","","","","","","","true","11","1","moral","489","self","我","","","","","","","","","","","","","","","","",""
"null","","null","html-keyboard-response","25","114191","0.0-6.0-1.0-2.0-0.8","4","3","4","4","4","3","4","4","4","4","4","4","2","4","4","5","5","3","4","5","4","4","4","4","4","4","4","2","5","1","0","0","1","0","0","0","1","0","1","1","0","1","0","1","4","4","4","5","5","2","4","4","5","4","4","653013422224441344","苏","356","","","","","","","","","","","","","","","","","","","","","","","","","","","","","","","","","","","","","","","","","",""
"600","<p style=""color:rgb(150, 250, 100); font-size: 35px;"">别人</p>","e","categorize-html","26","114793","0.0-6.0-1.0-2.0-1.8","4","3","4","4","4","3","4","4","4","4","4","4","2","4","4","5","5","3","4","5","4","4","4","4","4","4","4","2","5","1","0","0","1","0","0","0","1","0","1","1","0","1","0","1","4","4","4","5","5","2","4","4","5","4","4","653013422224441344","苏","356","","","","","","","","","","","","","","","","","","","true","11","1","moral","600","other","别人","","","","","","","","","","","","","","","","",""
"null","","null","html-keyboard-response","27","115044","0.0-6.0-1.0-2.0-0.9","4","3","4","4","4","3","4","4","4","4","4","4","2","4","4","5","5","3","4","5","4","4","4","4","4","4","4","2","5","1","0","0","1","0","0","0","1","0","1","1","0","1","0","1","4","4","4","5","5","2","4","4","5","4","4","653013422224441344","苏","356","","","","","","","","","","","","","","","","","","","","","","","","","","","","","","","","","","","","","","","","","",""
"877","<p style=""color:rgb(150, 250, 100); font-size: 35px;"">他人的</p>","e","categorize-html","28","115921","0.0-6.0-1.0-2.0-1.9","4","3","4","4","4","3","4","4","4","4","4","4","2","4","4","5","5","3","4","5","4","4","4","4","4","4","4","2","5","1","0","0","1","0","0","0","1","0","1","1","0","1","0","1","4","4","4","5","5","2","4","4","5","4","4","653013422224441344","苏","356","","","","","","","","","","","","","","","","","","","true","11","1","moral","877","other","他人的","","","","","","","","","","","","","","","","",""
"null","","null","html-keyboard-response","29","116172","0.0-6.0-1.0-2.0-0.10","4","3","4","4","4","3","4","4","4","4","4","4","2","4","4","5","5","3","4","5","4","4","4","4","4","4","4","2","5","1","0","0","1","0","0","0","1","0","1","1","0","1","0","1","4","4","4","5","5","2","4","4","5","4","4","653013422224441344","苏","356","","","","","","","","","","","","","","","","","","","","","","","","","","","","","","","","","","","","","","","","","",""
"692","<p style=""color:rgb(150, 250, 100); font-size: 35px;"">别人的</p>","e","categorize-html","30","116864","0.0-6.0-1.0-2.0-1.10","4","3","4","4","4","3","4","4","4","4","4","4","2","4","4","5","5","3","4","5","4","4","4","4","4","4","4","2","5","1","0","0","1","0","0","0","1","0","1","1","0","1","0","1","4","4","4","5","5","2","4","4","5","4","4","653013422224441344","苏","356","","","","","","","","","","","","","","","","","","","true","11","1","moral","692","other","别人的","","","","","","","","","","","","","","","","",""
"null","","null","html-keyboard-response","31","117115","0.0-6.0-1.0-2.0-0.11","4","3","4","4","4","3","4","4","4","4","4","4","2","4","4","5","5","3","4","5","4","4","4","4","4","4","4","2","5","1","0","0","1","0","0","0","1","0","1","1","0","1","0","1","4","4","4","5","5","2","4","4","5","4","4","653013422224441344","苏","356","","","","","","","","","","","","","","","","","","","","","","","","","","","","","","","","","","","","","","","","","",""
"697","<p style=""color:rgb(150, 250, 100); font-size: 35px;"">他的</p>","e","categorize-html","32","117813","0.0-6.0-1.0-2.0-1.11","4","3","4","4","4","3","4","4","4","4","4","4","2","4","4","5","5","3","4","5","4","4","4","4","4","4","4","2","5","1","0","0","1","0","0","0","1","0","1","1","0","1","0","1","4","4","4","5","5","2","4","4","5","4","4","653013422224441344","苏","356","","","","","","","","","","","","","","","","","","","true","11","1","moral","697","other","他的","","","","","","","","","","","","","","","","",""
"4117","
    <div class=""tag-bottom""><p>
    —— 任务2：对“积极”词和“消极”词分类 ——<p/>   
    <span style=""color:#78DCE8""><b>注意上方，类别标签和需要分类的词语都已经改变</b></span><p/>
    <span style=""color:#FFD866""><b>请根据上方标签的提示，尽可能正确并且快速地做出按键反应</b></span><p/>
    当按键错误时屏幕中会出现<span style=""color:red""> X </span>，需要按另一个键纠正才能继续<br/><p/>
    请把双手食指分别放在键盘的“E”键和“I”键上<p/>
    按<空格键>开始
    </p></div>"," ","html-keyboard-response","33","121931","0.0-6.0-1.0-3.0","4","3","4","4","4","3","4","4","4","4","4","4","2","4","4","5","5","3","4","5","4","4","4","4","4","4","4","2","5","1","0","0","1","0","0","0","1","0","1","1","0","1","0","1","4","4","4","5","5","2","4","4","5","4","4","653013422224441344","苏","356","","","","","","","","","","","","","","","","","","","","","","","","","","","","","","","","","","","","","","","","","",""
"null","","null","html-keyboard-response","34","122182","0.0-6.0-1.0-4.0-0.0","4","3","4","4","4","3","4","4","4","4","4","4","2","4","4","5","5","3","4","5","4","4","4","4","4","4","4","2","5","1","0","0","1","0","0","0","1","0","1","1","0","1","0","1","4","4","4","5","5","2","4","4","5","4","4","653013422224441344","苏","356","","","","","","","","","","","","","","","","","","","","","","","","","","","","","","","","","","","","","","","","","",""
"590","<p style=""color:white; font-size: 35px;"">诚信</p>","e","categorize-html","35","122773","0.0-6.0-1.0-4.0-1.0","4","3","4","4","4","3","4","4","4","4","4","4","2","4","4","5","5","3","4","5","4","4","4","4","4","4","4","2","5","1","0","0","1","0","0","0","1","0","1","1","0","1","0","1","4","4","4","5","5","2","4","4","5","4","4","653013422224441344","苏","356","","","","","","","","","","","","","","","","","","","true","12","2","moral","590","positive","诚信","","","","","","","","","","","","","","","","",""
"null","","null","html-keyboard-response","36","123024","0.0-6.0-1.0-4.0-0.1","4","3","4","4","4","3","4","4","4","4","4","4","2","4","4","5","5","3","4","5","4","4","4","4","4","4","4","2","5","1","0","0","1","0","0","0","1","0","1","1","0","1","0","1","4","4","4","5","5","2","4","4","5","4","4","653013422224441344","苏","356","","","","","","","","","","","","","","","","","","","","","","","","","","","","","","","","","","","","","","","","","",""
"557","<p style=""color:white; font-size: 35px;"">不孝</p>","i","categorize-html","37","123582","0.0-6.0-1.0-4.0-1.1","4","3","4","4","4","3","4","4","4","4","4","4","2","4","4","5","5","3","4","5","4","4","4","4","4","4","4","2","5","1","0","0","1","0","0","0","1","0","1","1","0","1","0","1","4","4","4","5","5","2","4","4","5","4","4","653013422224441344","苏","356","","","","","","","","","","","","","","","","","","","true","12","2","moral","557","negative","不孝","","","","","","","","","","","","","","","","",""
"null","","null","html-keyboard-response","38","123833","0.0-6.0-1.0-4.0-0.2","4","3","4","4","4","3","4","4","4","4","4","4","2","4","4","5","5","3","4","5","4","4","4","4","4","4","4","2","5","1","0","0","1","0","0","0","1","0","1","1","0","1","0","1","4","4","4","5","5","2","4","4","5","4","4","653013422224441344","苏","356","","","","","","","","","","","","","","","","","","","","","","","","","","","","","","","","","","","","","","","","","",""
"505","<p style=""color:white; font-size: 35px;"">黑心</p>","i","categorize-html","39","124339","0.0-6.0-1.0-4.0-1.2","4","3","4","4","4","3","4","4","4","4","4","4","2","4","4","5","5","3","4","5","4","4","4","4","4","4","4","2","5","1","0","0","1","0","0","0","1","0","1","1","0","1","0","1","4","4","4","5","5","2","4","4","5","4","4","653013422224441344","苏","356","","","","","","","","","","","","","","","","","","","true","12","2","moral","505","negative","黑心","","","","","","","","","","","","","","","","",""
"null","","null","html-keyboard-response","40","124591","0.0-6.0-1.0-4.0-0.3","4","3","4","4","4","3","4","4","4","4","4","4","2","4","4","5","5","3","4","5","4","4","4","4","4","4","4","2","5","1","0","0","1","0","0","0","1","0","1","1","0","1","0","1","4","4","4","5","5","2","4","4","5","4","4","653013422224441344","苏","356","","","","","","","","","","","","","","","","","","","","","","","","","","","","","","","","","","","","","","","","","",""
"495","<p style=""color:white; font-size: 35px;"">正直</p>","e","categorize-html","41","125087","0.0-6.0-1.0-4.0-1.3","4","3","4","4","4","3","4","4","4","4","4","4","2","4","4","5","5","3","4","5","4","4","4","4","4","4","4","2","5","1","0","0","1","0","0","0","1","0","1","1","0","1","0","1","4","4","4","5","5","2","4","4","5","4","4","653013422224441344","苏","356","","","","","","","","","","","","","","","","","","","true","12","2","moral","495","positive","正直","","","","","","","","","","","","","","","","",""
"null","","null","html-keyboard-response","42","125338","0.0-6.0-1.0-4.0-0.4","4","3","4","4","4","3","4","4","4","4","4","4","2","4","4","5","5","3","4","5","4","4","4","4","4","4","4","2","5","1","0","0","1","0","0","0","1","0","1","1","0","1","0","1","4","4","4","5","5","2","4","4","5","4","4","653013422224441344","苏","356","","","","","","","","","","","","","","","","","","","","","","","","","","","","","","","","","","","","","","","","","",""
"546","<p style=""color:white; font-size: 35px;"">不仁</p>","i","categorize-html","43","125884","0.0-6.0-1.0-4.0-1.4","4","3","4","4","4","3","4","4","4","4","4","4","2","4","4","5","5","3","4","5","4","4","4","4","4","4","4","2","5","1","0","0","1","0","0","0","1","0","1","1","0","1","0","1","4","4","4","5","5","2","4","4","5","4","4","653013422224441344","苏","356","","","","","","","","","","","","","","","","","","","true","12","2","moral","546","negative","不仁","","","","","","","","","","","","","","","","",""
"null","","null","html-keyboard-response","44","126135","0.0-6.0-1.0-4.0-0.5","4","3","4","4","4","3","4","4","4","4","4","4","2","4","4","5","5","3","4","5","4","4","4","4","4","4","4","2","5","1","0","0","1","0","0","0","1","0","1","1","0","1","0","1","4","4","4","5","5","2","4","4","5","4","4","653013422224441344","苏","356","","","","","","","","","","","","","","","","","","","","","","","","","","","","","","","","","","","","","","","","","",""
"722","<p style=""color:white; font-size: 35px;"">高尚</p>","e","categorize-html","45","126858","0.0-6.0-1.0-4.0-1.5","4","3","4","4","4","3","4","4","4","4","4","4","2","4","4","5","5","3","4","5","4","4","4","4","4","4","4","2","5","1","0","0","1","0","0","0","1","0","1","1","0","1","0","1","4","4","4","5","5","2","4","4","5","4","4","653013422224441344","苏","356","","","","","","","","","","","","","","","","","","","true","12","2","moral","722","positive","高尚","","","","","","","","","","","","","","","","",""
"null","","null","html-keyboard-response","46","127109","0.0-6.0-1.0-4.0-0.6","4","3","4","4","4","3","4","4","4","4","4","4","2","4","4","5","5","3","4","5","4","4","4","4","4","4","4","2","5","1","0","0","1","0","0","0","1","0","1","1","0","1","0","1","4","4","4","5","5","2","4","4","5","4","4","653013422224441344","苏","356","","","","","","","","","","","","","","","","","","","","","","","","","","","","","","","","","","","","","","","","","",""
"591","<p style=""color:white; font-size: 35px;"">善良</p>","e","categorize-html","47","127700","0.0-6.0-1.0-4.0-1.6","4","3","4","4","4","3","4","4","4","4","4","4","2","4","4","5","5","3","4","5","4","4","4","4","4","4","4","2","5","1","0","0","1","0","0","0","1","0","1","1","0","1","0","1","4","4","4","5","5","2","4","4","5","4","4","653013422224441344","苏","356","","","","","","","","","","","","","","","","","","","true","12","2","moral","591","positive","善良","","","","","","","","","","","","","","","","",""
"null","","null","html-keyboard-response","48","127951","0.0-6.0-1.0-4.0-0.7","4","3","4","4","4","3","4","4","4","4","4","4","2","4","4","5","5","3","4","5","4","4","4","4","4","4","4","2","5","1","0","0","1","0","0","0","1","0","1","1","0","1","0","1","4","4","4","5","5","2","4","4","5","4","4","653013422224441344","苏","356","","","","","","","","","","","","","","","","","","","","","","","","","","","","","","","","","","","","","","","","","",""
"682","<p style=""color:white; font-size: 35px;"">缺德</p>","i","categorize-html","49","128634","0.0-6.0-1.0-4.0-1.7","4","3","4","4","4","3","4","4","4","4","4","4","2","4","4","5","5","3","4","5","4","4","4","4","4","4","4","2","5","1","0","0","1","0","0","0","1","0","1","1","0","1","0","1","4","4","4","5","5","2","4","4","5","4","4","653013422224441344","苏","356","","","","","","","","","","","","","","","","","","","true","12","2","moral","682","negative","缺德","","","","","","","","","","","","","","","","",""
"null","","null","html-keyboard-response","50","128886","0.0-6.0-1.0-4.0-0.8","4","3","4","4","4","3","4","4","4","4","4","4","2","4","4","5","5","3","4","5","4","4","4","4","4","4","4","2","5","1","0","0","1","0","0","0","1","0","1","1","0","1","0","1","4","4","4","5","5","2","4","4","5","4","4","653013422224441344","苏","356","","","","","","","","","","","","","","","","","","","","","","","","","","","","","","","","","","","","","","","","","",""
"576","<p style=""color:white; font-size: 35px;"">卑鄙</p>","i","categorize-html","51","129463","0.0-6.0-1.0-4.0-1.8","4","3","4","4","4","3","4","4","4","4","4","4","2","4","4","5","5","3","4","5","4","4","4","4","4","4","4","2","5","1","0","0","1","0","0","0","1","0","1","1","0","1","0","1","4","4","4","5","5","2","4","4","5","4","4","653013422224441344","苏","356","","","","","","","","","","","","","","","","","","","true","12","2","moral","576","negative","卑鄙","","","","","","","","","","","","","","","","",""
"null","","null","html-keyboard-response","52","129714","0.0-6.0-1.0-4.0-0.9","4","3","4","4","4","3","4","4","4","4","4","4","2","4","4","5","5","3","4","5","4","4","4","4","4","4","4","2","5","1","0","0","1","0","0","0","1","0","1","1","0","1","0","1","4","4","4","5","5","2","4","4","5","4","4","653013422224441344","苏","356","","","","","","","","","","","","","","","","","","","","","","","","","","","","","","","","","","","","","","","","","",""
"600","<p style=""color:white; font-size: 35px;"">君子</p>","e","categorize-html","53","130316","0.0-6.0-1.0-4.0-1.9","4","3","4","4","4","3","4","4","4","4","4","4","2","4","4","5","5","3","4","5","4","4","4","4","4","4","4","2","5","1","0","0","1","0","0","0","1","0","1","1","0","1","0","1","4","4","4","5","5","2","4","4","5","4","4","653013422224441344","苏","356","","","","","","","","","","","","","","","","","","","true","12","2","moral","600","positive","君子","","","","","","","","","","","","","","","","",""
"null","","null","html-keyboard-response","54","130567","0.0-6.0-1.0-4.0-0.10","4","3","4","4","4","3","4","4","4","4","4","4","2","4","4","5","5","3","4","5","4","4","4","4","4","4","4","2","5","1","0","0","1","0","0","0","1","0","1","1","0","1","0","1","4","4","4","5","5","2","4","4","5","4","4","653013422224441344","苏","356","","","","","","","","","","","","","","","","","","","","","","","","","","","","","","","","","","","","","","","","","",""
"545","<p style=""color:white; font-size: 35px;"">小人</p>","i","categorize-html","55","131113","0.0-6.0-1.0-4.0-1.10","4","3","4","4","4","3","4","4","4","4","4","4","2","4","4","5","5","3","4","5","4","4","4","4","4","4","4","2","5","1","0","0","1","0","0","0","1","0","1","1","0","1","0","1","4","4","4","5","5","2","4","4","5","4","4","653013422224441344","苏","356","","","","","","","","","","","","","","","","","","","true","12","2","moral","545","negative","小人","","","","","","","","","","","","","","","","",""
"null","","null","html-keyboard-response","56","131364","0.0-6.0-1.0-4.0-0.11","4","3","4","4","4","3","4","4","4","4","4","4","2","4","4","5","5","3","4","5","4","4","4","4","4","4","4","2","5","1","0","0","1","0","0","0","1","0","1","1","0","1","0","1","4","4","4","5","5","2","4","4","5","4","4","653013422224441344","苏","356","","","","","","","","","","","","","","","","","","","","","","","","","","","","","","","","","","","","","","","","","",""
"539","<p style=""color:white; font-size: 35px;"">廉正</p>","e","categorize-html","57","131905","0.0-6.0-1.0-4.0-1.11","4","3","4","4","4","3","4","4","4","4","4","4","2","4","4","5","5","3","4","5","4","4","4","4","4","4","4","2","5","1","0","0","1","0","0","0","1","0","1","1","0","1","0","1","4","4","4","5","5","2","4","4","5","4","4","653013422224441344","苏","356","","","","","","","","","","","","","","","","","","","true","12","2","moral","539","positive","廉正","","","","","","","","","","","","","","","","",""
"4629","
    <div class=""tag-bottom""><p>
    —— 任务3：对“他人/积极”词和“自我/消极”词分类 ——<p/>
    <span style=""color:#78DCE8""><b>注意上方，之前的四类词语将混合在一起交替呈现</b></span><p/>
    <span style=""color:#FFD866""><b>请根据上方标签的提示，尽可能正确并且快速地做出按键反应</b></span><p/>
    当按键错误时屏幕中会出现<span style=""color:red""> X </span>，需要按另一个键纠正才能继续<br/><p/>
    请把双手食指分别放在键盘的“E”键和“I”键上<p/>
    按<空格键>开始
    </p></div>"," ","html-keyboard-response","58","136534","0.0-6.0-1.0-5.0","4","3","4","4","4","3","4","4","4","4","4","4","2","4","4","5","5","3","4","5","4","4","4","4","4","4","4","2","5","1","0","0","1","0","0","0","1","0","1","1","0","1","0","1","4","4","4","5","5","2","4","4","5","4","4","653013422224441344","苏","356","","","","","","","","","","","","","","","","","","","","","","","","","","","","","","","","","","","","","","","","","",""
"null","","null","html-keyboard-response","59","136785","0.0-6.0-1.0-6.0-0.0","4","3","4","4","4","3","4","4","4","4","4","4","2","4","4","5","5","3","4","5","4","4","4","4","4","4","4","2","5","1","0","0","1","0","0","0","1","0","1","1","0","1","0","1","4","4","4","5","5","2","4","4","5","4","4","653013422224441344","苏","356","","","","","","","","","","","","","","","","","","","","","","","","","","","","","","","","","","","","","","","","","",""
"656","<p style=""color:rgb(150, 250, 100); font-size: 35px;"">自己</p>","i","categorize-html","60","137443","0.0-6.0-1.0-6.0-1.0","4","3","4","4","4","3","4","4","4","4","4","4","2","4","4","5","5","3","4","5","4","4","4","4","4","4","4","2","5","1","0","0","1","0","0","0","1","0","1","1","0","1","0","1","4","4","4","5","5","2","4","4","5","4","4","653013422224441344","苏","356","","","","","","","","","","","","","","","","","","","true","13","3","moral","656","self","自己","","","","","","","","","","","","","","","","",""
"null","","null","html-keyboard-response","61","137695","0.0-6.0-1.0-6.0-0.1","4","3","4","4","4","3","4","4","4","4","4","4","2","4","4","5","5","3","4","5","4","4","4","4","4","4","4","2","5","1","0","0","1","0","0","0","1","0","1","1","0","1","0","1","4","4","4","5","5","2","4","4","5","4","4","653013422224441344","苏","356","","","","","","","","","","","","","","","","","","","","","","","","","","","","","","","","","","","","","","","","","",""
"696","<p style=""color:white; font-size: 35px;"">小人</p>","i","categorize-html","62","138392","0.0-6.0-1.0-6.0-1.1","4","3","4","4","4","3","4","4","4","4","4","4","2","4","4","5","5","3","4","5","4","4","4","4","4","4","4","2","5","1","0","0","1","0","0","0","1","0","1","1","0","1","0","1","4","4","4","5","5","2","4","4","5","4","4","653013422224441344","苏","356","","","","","","","","","","","","","","","","","","","true","13","3","moral","696","negative","小人","","","","","","","","","","","","","","","","",""
"null","","null","html-keyboard-response","63","138642","0.0-6.0-1.0-6.0-0.2","4","3","4","4","4","3","4","4","4","4","4","4","2","4","4","5","5","3","4","5","4","4","4","4","4","4","4","2","5","1","0","0","1","0","0","0","1","0","1","1","0","1","0","1","4","4","4","5","5","2","4","4","5","4","4","653013422224441344","苏","356","","","","","","","","","","","","","","","","","","","","","","","","","","","","","","","","","","","","","","","","","",""
"1148","<p style=""color:rgb(150, 250, 100); font-size: 35px;"">他人</p>","e","categorize-html","64","139791","0.0-6.0-1.0-6.0-1.2","4","3","4","4","4","3","4","4","4","4","4","4","2","4","4","5","5","3","4","5","4","4","4","4","4","4","4","2","5","1","0","0","1","0","0","0","1","0","1","1","0","1","0","1","4","4","4","5","5","2","4","4","5","4","4","653013422224441344","苏","356","","","","","","","","","","","","","","","","","","","true","13","3","moral","1148","other","他人","","","","","","","","","","","","","","","","",""
"null","","null","html-keyboard-response","65","140042","0.0-6.0-1.0-6.0-0.3","4","3","4","4","4","3","4","4","4","4","4","4","2","4","4","5","5","3","4","5","4","4","4","4","4","4","4","2","5","1","0","0","1","0","0","0","1","0","1","1","0","1","0","1","4","4","4","5","5","2","4","4","5","4","4","653013422224441344","苏","356","","","","","","","","","","","","","","","","","","","","","","","","","","","","","","","","","","","","","","","","","",""
"1338","<p style=""color:white; font-size: 35px;"">君子</p>","e","categorize-html","66","141381","0.0-6.0-1.0-6.0-1.3","4","3","4","4","4","3","4","4","4","4","4","4","2","4","4","5","5","3","4","5","4","4","4","4","4","4","4","2","5","1","0","0","1","0","0","0","1","0","1","1","0","1","0","1","4","4","4","5","5","2","4","4","5","4","4","653013422224441344","苏","356","","","","","","","","","","","","","","","","","","","true","13","3","moral","1338","positive","君子","","","","","","","","","","","","","","","","",""
"null","","null","html-keyboard-response","67","141632","0.0-6.0-1.0-6.0-0.4","4","3","4","4","4","3","4","4","4","4","4","4","2","4","4","5","5","3","4","5","4","4","4","4","4","4","4","2","5","1","0","0","1","0","0","0","1","0","1","1","0","1","0","1","4","4","4","5","5","2","4","4","5","4","4","653013422224441344","苏","356","","","","","","","","","","","","","","","","","","","","","","","","","","","","","","","","","","","","","","","","","",""
"1047","<p style=""color:rgb(150, 250, 100); font-size: 35px;"">我的</p>","i","categorize-html","68","142680","0.0-6.0-1.0-6.0-1.4","4","3","4","4","4","3","4","4","4","4","4","4","2","4","4","5","5","3","4","5","4","4","4","4","4","4","4","2","5","1","0","0","1","0","0","0","1","0","1","1","0","1","0","1","4","4","4","5","5","2","4","4","5","4","4","653013422224441344","苏","356","","","","","","","","","","","","","","","","","","","true","13","3","moral","1047","self","我的","","","","","","","","","","","","","","","","",""
"null","","null","html-keyboard-response","69","142931","0.0-6.0-1.0-6.0-0.5","4","3","4","4","4","3","4","4","4","4","4","4","2","4","4","5","5","3","4","5","4","4","4","4","4","4","4","2","5","1","0","0","1","0","0","0","1","0","1","1","0","1","0","1","4","4","4","5","5","2","4","4","5","4","4","653013422224441344","苏","356","","","","","","","","","","","","","","","","","","","","","","","","","","","","","","","","","","","","","","","","","",""
"1214","<p style=""color:white; font-size: 35px;"">高尚</p>","e","categorize-html","70","144146","0.0-6.0-1.0-6.0-1.5","4","3","4","4","4","3","4","4","4","4","4","4","2","4","4","5","5","3","4","5","4","4","4","4","4","4","4","2","5","1","0","0","1","0","0","0","1","0","1","1","0","1","0","1","4","4","4","5","5","2","4","4","5","4","4","653013422224441344","苏","356","","","","","","","","","","","","","","","","","","","true","13","3","moral","1214","positive","高尚","","","","","","","","","","","","","","","","",""
"null","","null","html-keyboard-response","71","144397","0.0-6.0-1.0-6.0-0.6","4","3","4","4","4","3","4","4","4","4","4","4","2","4","4","5","5","3","4","5","4","4","4","4","4","4","4","2","5","1","0","0","1","0","0","0","1","0","1","1","0","1","0","1","4","4","4","5","5","2","4","4","5","4","4","653013422224441344","苏","356","","","","","","","","","","","","","","","","","","","","","","","","","","","","","","","","","","","","","","","","","",""
"907","<p style=""color:rgb(150, 250, 100); font-size: 35px;"">他人的</p>","e","categorize-html","72","145304","0.0-6.0-1.0-6.0-1.6","4","3","4","4","4","3","4","4","4","4","4","4","2","4","4","5","5","3","4","5","4","4","4","4","4","4","4","2","5","1","0","0","1","0","0","0","1","0","1","1","0","1","0","1","4","4","4","5","5","2","4","4","5","4","4","653013422224441344","苏","356","","","","","","","","","","","","","","","","","","","true","13","3","moral","907","other","他人的","","","","","","","","","","","","","","","","",""
"null","","null","html-keyboard-response","73","145555","0.0-6.0-1.0-6.0-0.7","4","3","4","4","4","3","4","4","4","4","4","4","2","4","4","5","5","3","4","5","4","4","4","4","4","4","4","2","5","1","0","0","1","0","0","0","1","0","1","1","0","1","0","1","4","4","4","5","5","2","4","4","5","4","4","653013422224441344","苏","356","","","","","","","","","","","","","","","","","","","","","","","","","","","","","","","","","","","","","","","","","",""
"696","<p style=""color:white; font-size: 35px;"">不仁</p>","i","categorize-html","74","146253","0.0-6.0-1.0-6.0-1.7","4","3","4","4","4","3","4","4","4","4","4","4","2","4","4","5","5","3","4","5","4","4","4","4","4","4","4","2","5","1","0","0","1","0","0","0","1","0","1","1","0","1","0","1","4","4","4","5","5","2","4","4","5","4","4","653013422224441344","苏","356","","","","","","","","","","","","","","","","","","","true","13","3","moral","696","negative","不仁","","","","","","","","","","","","","","","","",""
"null","","null","html-keyboard-response","75","146503","0.0-6.0-1.0-6.0-0.8","4","3","4","4","4","3","4","4","4","4","4","4","2","4","4","5","5","3","4","5","4","4","4","4","4","4","4","2","5","1","0","0","1","0","0","0","1","0","1","1","0","1","0","1","4","4","4","5","5","2","4","4","5","4","4","653013422224441344","苏","356","","","","","","","","","","","","","","","","","","","","","","","","","","","","","","","","","","","","","","","","","",""
"722","<p style=""color:rgb(150, 250, 100); font-size: 35px;"">本人的</p>","i","categorize-html","76","147227","0.0-6.0-1.0-6.0-1.8","4","3","4","4","4","3","4","4","4","4","4","4","2","4","4","5","5","3","4","5","4","4","4","4","4","4","4","2","5","1","0","0","1","0","0","0","1","0","1","1","0","1","0","1","4","4","4","5","5","2","4","4","5","4","4","653013422224441344","苏","356","","","","","","","","","","","","","","","","","","","true","13","3","moral","722","self","本人的","","","","","","","","","","","","","","","","",""
"null","","null","html-keyboard-response","77","147477","0.0-6.0-1.0-6.0-0.9","4","3","4","4","4","3","4","4","4","4","4","4","2","4","4","5","5","3","4","5","4","4","4","4","4","4","4","2","5","1","0","0","1","0","0","0","1","0","1","1","0","1","0","1","4","4","4","5","5","2","4","4","5","4","4","653013422224441344","苏","356","","","","","","","","","","","","","","","","","","","","","","","","","","","","","","","","","","","","","","","","","",""
"686","<p style=""color:white; font-size: 35px;"">廉正</p>","e","categorize-html","78","148165","0.0-6.0-1.0-6.0-1.9","4","3","4","4","4","3","4","4","4","4","4","4","2","4","4","5","5","3","4","5","4","4","4","4","4","4","4","2","5","1","0","0","1","0","0","0","1","0","1","1","0","1","0","1","4","4","4","5","5","2","4","4","5","4","4","653013422224441344","苏","356","","","","","","","","","","","","","","","","","","","true","13","3","moral","686","positive","廉正","","","","","","","","","","","","","","","","",""
"null","","null","html-keyboard-response","79","148416","0.0-6.0-1.0-6.0-0.10","4","3","4","4","4","3","4","4","4","4","4","4","2","4","4","5","5","3","4","5","4","4","4","4","4","4","4","2","5","1","0","0","1","0","0","0","1","0","1","1","0","1","0","1","4","4","4","5","5","2","4","4","5","4","4","653013422224441344","苏","356","","","","","","","","","","","","","","","","","","","","","","","","","","","","","","","","","","","","","","","","","",""
"731","<p style=""color:rgb(150, 250, 100); font-size: 35px;"">别人的</p>","e","categorize-html","80","149147","0.0-6.0-1.0-6.0-1.10","4","3","4","4","4","3","4","4","4","4","4","4","2","4","4","5","5","3","4","5","4","4","4","4","4","4","4","2","5","1","0","0","1","0","0","0","1","0","1","1","0","1","0","1","4","4","4","5","5","2","4","4","5","4","4","653013422224441344","苏","356","","","","","","","","","","","","","","","","","","","true","13","3","moral","731","other","别人的","","","","","","","","","","","","","","","","",""
"null","","null","html-keyboard-response","81","149398","0.0-6.0-1.0-6.0-0.11","4","3","4","4","4","3","4","4","4","4","4","4","2","4","4","5","5","3","4","5","4","4","4","4","4","4","4","2","5","1","0","0","1","0","0","0","1","0","1","1","0","1","0","1","4","4","4","5","5","2","4","4","5","4","4","653013422224441344","苏","356","","","","","","","","","","","","","","","","","","","","","","","","","","","","","","","","","","","","","","","","","",""
"1234","<p style=""color:white; font-size: 35px;"">缺德</p>","i","categorize-html","82","150633","0.0-6.0-1.0-6.0-1.11","4","3","4","4","4","3","4","4","4","4","4","4","2","4","4","5","5","3","4","5","4","4","4","4","4","4","4","2","5","1","0","0","1","0","0","0","1","0","1","1","0","1","0","1","4","4","4","5","5","2","4","4","5","4","4","653013422224441344","苏","356","","","","","","","","","","","","","","","","","","","true","13","3","moral","1234","negative","缺德","","","","","","","","","","","","","","","","",""
"null","","null","html-keyboard-response","83","150884","0.0-6.0-1.0-6.0-0.12","4","3","4","4","4","3","4","4","4","4","4","4","2","4","4","5","5","3","4","5","4","4","4","4","4","4","4","2","5","1","0","0","1","0","0","0","1","0","1","1","0","1","0","1","4","4","4","5","5","2","4","4","5","4","4","653013422224441344","苏","356","","","","","","","","","","","","","","","","","","","","","","","","","","","","","","","","","","","","","","","","","",""
"852","<p style=""color:rgb(150, 250, 100); font-size: 35px;"">他</p>","e","categorize-html","84","151737","0.0-6.0-1.0-6.0-1.12","4","3","4","4","4","3","4","4","4","4","4","4","2","4","4","5","5","3","4","5","4","4","4","4","4","4","4","2","5","1","0","0","1","0","0","0","1","0","1","1","0","1","0","1","4","4","4","5","5","2","4","4","5","4","4","653013422224441344","苏","356","","","","","","","","","","","","","","","","","","","true","13","3","moral","852","other","他","","","","","","","","","","","","","","","","",""
"null","","null","html-keyboard-response","85","151988","0.0-6.0-1.0-6.0-0.13","4","3","4","4","4","3","4","4","4","4","4","4","2","4","4","5","5","3","4","5","4","4","4","4","4","4","4","2","5","1","0","0","1","0","0","0","1","0","1","1","0","1","0","1","4","4","4","5","5","2","4","4","5","4","4","653013422224441344","苏","356","","","","","","","","","","","","","","","","","","","","","","","","","","","","","","","","","","","","","","","","","",""
"660","<p style=""color:white; font-size: 35px;"">诚信</p>","e","categorize-html","86","152649","0.0-6.0-1.0-6.0-1.13","4","3","4","4","4","3","4","4","4","4","4","4","2","4","4","5","5","3","4","5","4","4","4","4","4","4","4","2","5","1","0","0","1","0","0","0","1","0","1","1","0","1","0","1","4","4","4","5","5","2","4","4","5","4","4","653013422224441344","苏","356","","","","","","","","","","","","","","","","","","","true","13","3","moral","660","positive","诚信","","","","","","","","","","","","","","","","",""
"null","","null","html-keyboard-response","87","152899","0.0-6.0-1.0-6.0-0.14","4","3","4","4","4","3","4","4","4","4","4","4","2","4","4","5","5","3","4","5","4","4","4","4","4","4","4","2","5","1","0","0","1","0","0","0","1","0","1","1","0","1","0","1","4","4","4","5","5","2","4","4","5","4","4","653013422224441344","苏","356","","","","","","","","","","","","","","","","","","","","","","","","","","","","","","","","","","","","","","","","","",""
"777","<p style=""color:rgb(150, 250, 100); font-size: 35px;"">我</p>","i","categorize-html","88","153677","0.0-6.0-1.0-6.0-1.14","4","3","4","4","4","3","4","4","4","4","4","4","2","4","4","5","5","3","4","5","4","4","4","4","4","4","4","2","5","1","0","0","1","0","0","0","1","0","1","1","0","1","0","1","4","4","4","5","5","2","4","4","5","4","4","653013422224441344","苏","356","","","","","","","","","","","","","","","","","","","true","13","3","moral","777","self","我","","","","","","","","","","","","","","","","",""
"null","","null","html-keyboard-response","89","153928","0.0-6.0-1.0-6.0-0.15","4","3","4","4","4","3","4","4","4","4","4","4","2","4","4","5","5","3","4","5","4","4","4","4","4","4","4","2","5","1","0","0","1","0","0","0","1","0","1","1","0","1","0","1","4","4","4","5","5","2","4","4","5","4","4","653013422224441344","苏","356","","","","","","","","","","","","","","","","","","","","","","","","","","","","","","","","","","","","","","","","","",""
"637","<p style=""color:white; font-size: 35px;"">卑鄙</p>","i","categorize-html","90","154566","0.0-6.0-1.0-6.0-1.15","4","3","4","4","4","3","4","4","4","4","4","4","2","4","4","5","5","3","4","5","4","4","4","4","4","4","4","2","5","1","0","0","1","0","0","0","1","0","1","1","0","1","0","1","4","4","4","5","5","2","4","4","5","4","4","653013422224441344","苏","356","","","","","","","","","","","","","","","","","","","true","13","3","moral","637","negative","卑鄙","","","","","","","","","","","","","","","","",""
"null","","null","html-keyboard-response","91","154817","0.0-6.0-1.0-6.0-0.16","4","3","4","4","4","3","4","4","4","4","4","4","2","4","4","5","5","3","4","5","4","4","4","4","4","4","4","2","5","1","0","0","1","0","0","0","1","0","1","1","0","1","0","1","4","4","4","5","5","2","4","4","5","4","4","653013422224441344","苏","356","","","","","","","","","","","","","","","","","","","","","","","","","","","","","","","","","","","","","","","","","",""
"861","<p style=""color:rgb(150, 250, 100); font-size: 35px;"">别人</p>","e","categorize-html","92","155680","0.0-6.0-1.0-6.0-1.16","4","3","4","4","4","3","4","4","4","4","4","4","2","4","4","5","5","3","4","5","4","4","4","4","4","4","4","2","5","1","0","0","1","0","0","0","1","0","1","1","0","1","0","1","4","4","4","5","5","2","4","4","5","4","4","653013422224441344","苏","356","","","","","","","","","","","","","","","","","","","true","13","3","moral","861","other","别人","","","","","","","","","","","","","","","","",""
"null","","null","html-keyboard-response","93","155931","0.0-6.0-1.0-6.0-0.17","4","3","4","4","4","3","4","4","4","4","4","4","2","4","4","5","5","3","4","5","4","4","4","4","4","4","4","2","5","1","0","0","1","0","0","0","1","0","1","1","0","1","0","1","4","4","4","5","5","2","4","4","5","4","4","653013422224441344","苏","356","","","","","","","","","","","","","","","","","","","","","","","","","","","","","","","","","","","","","","","","","",""
"445","<p style=""color:white; font-size: 35px;"">善良</p>","e","categorize-html","94","156377","0.0-6.0-1.0-6.0-1.17","4","3","4","4","4","3","4","4","4","4","4","4","2","4","4","5","5","3","4","5","4","4","4","4","4","4","4","2","5","1","0","0","1","0","0","0","1","0","1","1","0","1","0","1","4","4","4","5","5","2","4","4","5","4","4","653013422224441344","苏","356","","","","","","","","","","","","","","","","","","","true","13","3","moral","445","positive","善良","","","","","","","","","","","","","","","","",""
"null","","null","html-keyboard-response","95","156629","0.0-6.0-1.0-6.0-0.18","4","3","4","4","4","3","4","4","4","4","4","4","2","4","4","5","5","3","4","5","4","4","4","4","4","4","4","2","5","1","0","0","1","0","0","0","1","0","1","1","0","1","0","1","4","4","4","5","5","2","4","4","5","4","4","653013422224441344","苏","356","","","","","","","","","","","","","","","","","","","","","","","","","","","","","","","","","","","","","","","","","",""
"459","<p style=""color:rgb(150, 250, 100); font-size: 35px;"">自己的</p>","i","categorize-html","96","157089","0.0-6.0-1.0-6.0-1.18","4","3","4","4","4","3","4","4","4","4","4","4","2","4","4","5","5","3","4","5","4","4","4","4","4","4","4","2","5","1","0","0","1","0","0","0","1","0","1","1","0","1","0","1","4","4","4","5","5","2","4","4","5","4","4","653013422224441344","苏","356","","","","","","","","","","","","","","","","","","","true","13","3","moral","459","self","自己的","","","","","","","","","","","","","","","","",""
"null","","null","html-keyboard-response","97","157340","0.0-6.0-1.0-6.0-0.19","4","3","4","4","4","3","4","4","4","4","4","4","2","4","4","5","5","3","4","5","4","4","4","4","4","4","4","2","5","1","0","0","1","0","0","0","1","0","1","1","0","1","0","1","4","4","4","5","5","2","4","4","5","4","4","653013422224441344","苏","356","","","","","","","","","","","","","","","","","","","","","","","","","","","","","","","","","","","","","","","","","",""
"446","<p style=""color:white; font-size: 35px;"">黑心</p>","i","categorize-html","98","157786","0.0-6.0-1.0-6.0-1.19","4","3","4","4","4","3","4","4","4","4","4","4","2","4","4","5","5","3","4","5","4","4","4","4","4","4","4","2","5","1","0","0","1","0","0","0","1","0","1","1","0","1","0","1","4","4","4","5","5","2","4","4","5","4","4","653013422224441344","苏","356","","","","","","","","","","","","","","","","","","","true","13","3","moral","446","negative","黑心","","","","","","","","","","","","","","","","",""
"null","","null","html-keyboard-response","99","158037","0.0-6.0-1.0-6.0-0.20","4","3","4","4","4","3","4","4","4","4","4","4","2","4","4","5","5","3","4","5","4","4","4","4","4","4","4","2","5","1","0","0","1","0","0","0","1","0","1","1","0","1","0","1","4","4","4","5","5","2","4","4","5","4","4","653013422224441344","苏","356","","","","","","","","","","","","","","","","","","","","","","","","","","","","","","","","","","","","","","","","","",""
"436","<p style=""color:rgb(150, 250, 100); font-size: 35px;"">本人</p>","e","categorize-html","100","159978","0.0-6.0-1.0-6.0-1.20","4","3","4","4","4","3","4","4","4","4","4","4","2","4","4","5","5","3","4","5","4","4","4","4","4","4","4","2","5","1","0","0","1","0","0","0","1","0","1","1","0","1","0","1","4","4","4","5","5","2","4","4","5","4","4","653013422224441344","苏","356","","","","","","","","","","","","","","","","","","","false","13","3","moral","1424.217391304348","self","本人","","","","","","","","","","","","","","","","",""
"null","","null","html-keyboard-response","101","160230","0.0-6.0-1.0-6.0-0.21","4","3","4","4","4","3","4","4","4","4","4","4","2","4","4","5","5","3","4","5","4","4","4","4","4","4","4","2","5","1","0","0","1","0","0","0","1","0","1","1","0","1","0","1","4","4","4","5","5","2","4","4","5","4","4","653013422224441344","苏","356","","","","","","","","","","","","","","","","","","","","","","","","","","","","","","","","","","","","","","","","","",""
"1203","<p style=""color:white; font-size: 35px;"">正直</p>","e","categorize-html","102","161435","0.0-6.0-1.0-6.0-1.21","4","3","4","4","4","3","4","4","4","4","4","4","2","4","4","5","5","3","4","5","4","4","4","4","4","4","4","2","5","1","0","0","1","0","0","0","1","0","1","1","0","1","0","1","4","4","4","5","5","2","4","4","5","4","4","653013422224441344","苏","356","","","","","","","","","","","","","","","","","","","true","13","3","moral","1203","positive","正直","","","","","","","","","","","","","","","","",""
"null","","null","html-keyboard-response","103","161685","0.0-6.0-1.0-6.0-0.22","4","3","4","4","4","3","4","4","4","4","4","4","2","4","4","5","5","3","4","5","4","4","4","4","4","4","4","2","5","1","0","0","1","0","0","0","1","0","1","1","0","1","0","1","4","4","4","5","5","2","4","4","5","4","4","653013422224441344","苏","356","","","","","","","","","","","","","","","","","","","","","","","","","","","","","","","","","","","","","","","","","",""
"891","<p style=""color:rgb(150, 250, 100); font-size: 35px;"">他的</p>","e","categorize-html","104","162578","0.0-6.0-1.0-6.0-1.22","4","3","4","4","4","3","4","4","4","4","4","4","2","4","4","5","5","3","4","5","4","4","4","4","4","4","4","2","5","1","0","0","1","0","0","0","1","0","1","1","0","1","0","1","4","4","4","5","5","2","4","4","5","4","4","653013422224441344","苏","356","","","","","","","","","","","","","","","","","","","true","13","3","moral","891","other","他的","","","","","","","","","","","","","","","","",""
"null","","null","html-keyboard-response","105","162829","0.0-6.0-1.0-6.0-0.23","4","3","4","4","4","3","4","4","4","4","4","4","2","4","4","5","5","3","4","5","4","4","4","4","4","4","4","2","5","1","0","0","1","0","0","0","1","0","1","1","0","1","0","1","4","4","4","5","5","2","4","4","5","4","4","653013422224441344","苏","356","","","","","","","","","","","","","","","","","","","","","","","","","","","","","","","","","","","","","","","","","",""
"651","<p style=""color:white; font-size: 35px;"">不孝</p>","i","categorize-html","106","163481","0.0-6.0-1.0-6.0-1.23","4","3","4","4","4","3","4","4","4","4","4","4","2","4","4","5","5","3","4","5","4","4","4","4","4","4","4","2","5","1","0","0","1","0","0","0","1","0","1","1","0","1","0","1","4","4","4","5","5","2","4","4","5","4","4","653013422224441344","苏","356","","","","","","","","","","","","","","","","","","","true","13","3","moral","651","negative","不孝","","","","","","","","","","","","","","","","",""
"8564","
    <div class=""tag-bottom""><p>
    —— 任务4：对“他人/积极”词和“自我/消极”词分类 ——<p/>
    <span style=""color:#78DCE8""><b>与刚才的任务完全相同，请再次对这四类词语分类</b></span><p/>
    <span style=""color:#FFD866""><b>请根据上方标签的提示，尽可能正确并且快速地做出按键反应</b></span><p/>
    当按键错误时屏幕中会出现<span style=""color:red""> X </span>，需要按另一个键纠正才能继续<br/><p/>
    请把双手食指分别放在键盘的“E”键和“I”键上<p/>
    按<空格键>开始
    </p></div>"," ","html-keyboard-response","107","172044","0.0-6.0-1.0-7.0","4","3","4","4","4","3","4","4","4","4","4","4","2","4","4","5","5","3","4","5","4","4","4","4","4","4","4","2","5","1","0","0","1","0","0","0","1","0","1","1","0","1","0","1","4","4","4","5","5","2","4","4","5","4","4","653013422224441344","苏","356","","","","","","","","","","","","","","","","","","","","","","","","","","","","","","","","","","","","","","","","","",""
"null","","null","html-keyboard-response","108","172296","0.0-6.0-1.0-8.0-0.0","4","3","4","4","4","3","4","4","4","4","4","4","2","4","4","5","5","3","4","5","4","4","4","4","4","4","4","2","5","1","0","0","1","0","0","0","1","0","1","1","0","1","0","1","4","4","4","5","5","2","4","4","5","4","4","653013422224441344","苏","356","","","","","","","","","","","","","","","","","","","","","","","","","","","","","","","","","","","","","","","","","",""
"701","<p style=""color:rgb(150, 250, 100); font-size: 35px;"">他的</p>","e","categorize-html","109","172998","0.0-6.0-1.0-8.0-1.0","4","3","4","4","4","3","4","4","4","4","4","4","2","4","4","5","5","3","4","5","4","4","4","4","4","4","4","2","5","1","0","0","1","0","0","0","1","0","1","1","0","1","0","1","4","4","4","5","5","2","4","4","5","4","4","653013422224441344","苏","356","","","","","","","","","","","","","","","","","","","true","14","4","moral","701","other","他的","","","","","","","","","","","","","","","","",""
"null","","null","html-keyboard-response","110","173249","0.0-6.0-1.0-8.0-0.1","4","3","4","4","4","3","4","4","4","4","4","4","2","4","4","5","5","3","4","5","4","4","4","4","4","4","4","2","5","1","0","0","1","0","0","0","1","0","1","1","0","1","0","1","4","4","4","5","5","2","4","4","5","4","4","653013422224441344","苏","356","","","","","","","","","","","","","","","","","","","","","","","","","","","","","","","","","","","","","","","","","",""
"887","<p style=""color:white; font-size: 35px;"">缺德</p>","i","categorize-html","111","174138","0.0-6.0-1.0-8.0-1.1","4","3","4","4","4","3","4","4","4","4","4","4","2","4","4","5","5","3","4","5","4","4","4","4","4","4","4","2","5","1","0","0","1","0","0","0","1","0","1","1","0","1","0","1","4","4","4","5","5","2","4","4","5","4","4","653013422224441344","苏","356","","","","","","","","","","","","","","","","","","","true","14","4","moral","887","negative","缺德","","","","","","","","","","","","","","","","",""
"null","","null","html-keyboard-response","112","174389","0.0-6.0-1.0-8.0-0.2","4","3","4","4","4","3","4","4","4","4","4","4","2","4","4","5","5","3","4","5","4","4","4","4","4","4","4","2","5","1","0","0","1","0","0","0","1","0","1","1","0","1","0","1","4","4","4","5","5","2","4","4","5","4","4","653013422224441344","苏","356","","","","","","","","","","","","","","","","","","","","","","","","","","","","","","","","","","","","","","","","","",""
"741","<p style=""color:rgb(150, 250, 100); font-size: 35px;"">自己的</p>","i","categorize-html","113","175131","0.0-6.0-1.0-8.0-1.2","4","3","4","4","4","3","4","4","4","4","4","4","2","4","4","5","5","3","4","5","4","4","4","4","4","4","4","2","5","1","0","0","1","0","0","0","1","0","1","1","0","1","0","1","4","4","4","5","5","2","4","4","5","4","4","653013422224441344","苏","356","","","","","","","","","","","","","","","","","","","true","14","4","moral","741","self","自己的","","","","","","","","","","","","","","","","",""
"null","","null","html-keyboard-response","114","175383","0.0-6.0-1.0-8.0-0.3","4","3","4","4","4","3","4","4","4","4","4","4","2","4","4","5","5","3","4","5","4","4","4","4","4","4","4","2","5","1","0","0","1","0","0","0","1","0","1","1","0","1","0","1","4","4","4","5","5","2","4","4","5","4","4","653013422224441344","苏","356","","","","","","","","","","","","","","","","","","","","","","","","","","","","","","","","","","","","","","","","","",""
"745","<p style=""color:white; font-size: 35px;"">高尚</p>","e","categorize-html","115","176129","0.0-6.0-1.0-8.0-1.3","4","3","4","4","4","3","4","4","4","4","4","4","2","4","4","5","5","3","4","5","4","4","4","4","4","4","4","2","5","1","0","0","1","0","0","0","1","0","1","1","0","1","0","1","4","4","4","5","5","2","4","4","5","4","4","653013422224441344","苏","356","","","","","","","","","","","","","","","","","","","true","14","4","moral","745","positive","高尚","","","","","","","","","","","","","","","","",""
"null","","null","html-keyboard-response","116","176380","0.0-6.0-1.0-8.0-0.4","4","3","4","4","4","3","4","4","4","4","4","4","2","4","4","5","5","3","4","5","4","4","4","4","4","4","4","2","5","1","0","0","1","0","0","0","1","0","1","1","0","1","0","1","4","4","4","5","5","2","4","4","5","4","4","653013422224441344","苏","356","","","","","","","","","","","","","","","","","","","","","","","","","","","","","","","","","","","","","","","","","",""
"611","<p style=""color:rgb(150, 250, 100); font-size: 35px;"">我</p>","i","categorize-html","117","176992","0.0-6.0-1.0-8.0-1.4","4","3","4","4","4","3","4","4","4","4","4","4","2","4","4","5","5","3","4","5","4","4","4","4","4","4","4","2","5","1","0","0","1","0","0","0","1","0","1","1","0","1","0","1","4","4","4","5","5","2","4","4","5","4","4","653013422224441344","苏","356","","","","","","","","","","","","","","","","","","","true","14","4","moral","611","self","我","","","","","","","","","","","","","","","","",""
"null","","null","html-keyboard-response","118","177243","0.0-6.0-1.0-8.0-0.5","4","3","4","4","4","3","4","4","4","4","4","4","2","4","4","5","5","3","4","5","4","4","4","4","4","4","4","2","5","1","0","0","1","0","0","0","1","0","1","1","0","1","0","1","4","4","4","5","5","2","4","4","5","4","4","653013422224441344","苏","356","","","","","","","","","","","","","","","","","","","","","","","","","","","","","","","","","","","","","","","","","",""
"631","<p style=""color:white; font-size: 35px;"">黑心</p>","i","categorize-html","119","177875","0.0-6.0-1.0-8.0-1.5","4","3","4","4","4","3","4","4","4","4","4","4","2","4","4","5","5","3","4","5","4","4","4","4","4","4","4","2","5","1","0","0","1","0","0","0","1","0","1","1","0","1","0","1","4","4","4","5","5","2","4","4","5","4","4","653013422224441344","苏","356","","","","","","","","","","","","","","","","","","","true","14","4","moral","631","negative","黑心","","","","","","","","","","","","","","","","",""
"null","","null","html-keyboard-response","120","178126","0.0-6.0-1.0-8.0-0.6","4","3","4","4","4","3","4","4","4","4","4","4","2","4","4","5","5","3","4","5","4","4","4","4","4","4","4","2","5","1","0","0","1","0","0","0","1","0","1","1","0","1","0","1","4","4","4","5","5","2","4","4","5","4","4","653013422224441344","苏","356","","","","","","","","","","","","","","","","","","","","","","","","","","","","","","","","","","","","","","","","","",""
"641","<p style=""color:rgb(150, 250, 100); font-size: 35px;"">他</p>","e","categorize-html","121","178768","0.0-6.0-1.0-8.0-1.6","4","3","4","4","4","3","4","4","4","4","4","4","2","4","4","5","5","3","4","5","4","4","4","4","4","4","4","2","5","1","0","0","1","0","0","0","1","0","1","1","0","1","0","1","4","4","4","5","5","2","4","4","5","4","4","653013422224441344","苏","356","","","","","","","","","","","","","","","","","","","true","14","4","moral","641","other","他","","","","","","","","","","","","","","","","",""
"null","","null","html-keyboard-response","122","179019","0.0-6.0-1.0-8.0-0.7","4","3","4","4","4","3","4","4","4","4","4","4","2","4","4","5","5","3","4","5","4","4","4","4","4","4","4","2","5","1","0","0","1","0","0","0","1","0","1","1","0","1","0","1","4","4","4","5","5","2","4","4","5","4","4","653013422224441344","苏","356","","","","","","","","","","","","","","","","","","","","","","","","","","","","","","","","","","","","","","","","","",""
"716","<p style=""color:white; font-size: 35px;"">君子</p>","e","categorize-html","123","179737","0.0-6.0-1.0-8.0-1.7","4","3","4","4","4","3","4","4","4","4","4","4","2","4","4","5","5","3","4","5","4","4","4","4","4","4","4","2","5","1","0","0","1","0","0","0","1","0","1","1","0","1","0","1","4","4","4","5","5","2","4","4","5","4","4","653013422224441344","苏","356","","","","","","","","","","","","","","","","","","","true","14","4","moral","716","positive","君子","","","","","","","","","","","","","","","","",""
"null","","null","html-keyboard-response","124","179989","0.0-6.0-1.0-8.0-0.8","4","3","4","4","4","3","4","4","4","4","4","4","2","4","4","5","5","3","4","5","4","4","4","4","4","4","4","2","5","1","0","0","1","0","0","0","1","0","1","1","0","1","0","1","4","4","4","5","5","2","4","4","5","4","4","653013422224441344","苏","356","","","","","","","","","","","","","","","","","","","","","","","","","","","","","","","","","","","","","","","","","",""
"720","<p style=""color:rgb(150, 250, 100); font-size: 35px;"">他人的</p>","e","categorize-html","125","180709","0.0-6.0-1.0-8.0-1.8","4","3","4","4","4","3","4","4","4","4","4","4","2","4","4","5","5","3","4","5","4","4","4","4","4","4","4","2","5","1","0","0","1","0","0","0","1","0","1","1","0","1","0","1","4","4","4","5","5","2","4","4","5","4","4","653013422224441344","苏","356","","","","","","","","","","","","","","","","","","","true","14","4","moral","720","other","他人的","","","","","","","","","","","","","","","","",""
"null","","null","html-keyboard-response","126","180961","0.0-6.0-1.0-8.0-0.9","4","3","4","4","4","3","4","4","4","4","4","4","2","4","4","5","5","3","4","5","4","4","4","4","4","4","4","2","5","1","0","0","1","0","0","0","1","0","1","1","0","1","0","1","4","4","4","5","5","2","4","4","5","4","4","653013422224441344","苏","356","","","","","","","","","","","","","","","","","","","","","","","","","","","","","","","","","","","","","","","","","",""
"912","<p style=""color:white; font-size: 35px;"">缺德</p>","i","categorize-html","127","181874","0.0-6.0-1.0-8.0-1.9","4","3","4","4","4","3","4","4","4","4","4","4","2","4","4","5","5","3","4","5","4","4","4","4","4","4","4","2","5","1","0","0","1","0","0","0","1","0","1","1","0","1","0","1","4","4","4","5","5","2","4","4","5","4","4","653013422224441344","苏","356","","","","","","","","","","","","","","","","","","","true","14","4","moral","912","negative","缺德","","","","","","","","","","","","","","","","",""
"null","","null","html-keyboard-response","128","182125","0.0-6.0-1.0-8.0-0.10","4","3","4","4","4","3","4","4","4","4","4","4","2","4","4","5","5","3","4","5","4","4","4","4","4","4","4","2","5","1","0","0","1","0","0","0","1","0","1","1","0","1","0","1","4","4","4","5","5","2","4","4","5","4","4","653013422224441344","苏","356","","","","","","","","","","","","","","","","","","","","","","","","","","","","","","","","","","","","","","","","","",""
"631","<p style=""color:rgb(150, 250, 100); font-size: 35px;"">自己</p>","i","categorize-html","129","182757","0.0-6.0-1.0-8.0-1.10","4","3","4","4","4","3","4","4","4","4","4","4","2","4","4","5","5","3","4","5","4","4","4","4","4","4","4","2","5","1","0","0","1","0","0","0","1","0","1","1","0","1","0","1","4","4","4","5","5","2","4","4","5","4","4","653013422224441344","苏","356","","","","","","","","","","","","","","","","","","","true","14","4","moral","631","self","自己","","","","","","","","","","","","","","","","",""
"null","","null","html-keyboard-response","130","183008","0.0-6.0-1.0-8.0-0.11","4","3","4","4","4","3","4","4","4","4","4","4","2","4","4","5","5","3","4","5","4","4","4","4","4","4","4","2","5","1","0","0","1","0","0","0","1","0","1","1","0","1","0","1","4","4","4","5","5","2","4","4","5","4","4","653013422224441344","苏","356","","","","","","","","","","","","","","","","","","","","","","","","","","","","","","","","","","","","","","","","","",""
"1158","<p style=""color:white; font-size: 35px;"">善良</p>","e","categorize-html","131","184167","0.0-6.0-1.0-8.0-1.11","4","3","4","4","4","3","4","4","4","4","4","4","2","4","4","5","5","3","4","5","4","4","4","4","4","4","4","2","5","1","0","0","1","0","0","0","1","0","1","1","0","1","0","1","4","4","4","5","5","2","4","4","5","4","4","653013422224441344","苏","356","","","","","","","","","","","","","","","","","","","true","14","4","moral","1158","positive","善良","","","","","","","","","","","","","","","","",""
"null","","null","html-keyboard-response","132","184417","0.0-6.0-1.0-8.0-0.12","4","3","4","4","4","3","4","4","4","4","4","4","2","4","4","5","5","3","4","5","4","4","4","4","4","4","4","2","5","1","0","0","1","0","0","0","1","0","1","1","0","1","0","1","4","4","4","5","5","2","4","4","5","4","4","653013422224441344","苏","356","","","","","","","","","","","","","","","","","","","","","","","","","","","","","","","","","","","","","","","","","",""
"505","<p style=""color:rgb(150, 250, 100); font-size: 35px;"">自己的</p>","i","categorize-html","133","184924","0.0-6.0-1.0-8.0-1.12","4","3","4","4","4","3","4","4","4","4","4","4","2","4","4","5","5","3","4","5","4","4","4","4","4","4","4","2","5","1","0","0","1","0","0","0","1","0","1","1","0","1","0","1","4","4","4","5","5","2","4","4","5","4","4","653013422224441344","苏","356","","","","","","","","","","","","","","","","","","","true","14","4","moral","505","self","自己的","","","","","","","","","","","","","","","","",""
"null","","null","html-keyboard-response","134","185175","0.0-6.0-1.0-8.0-0.13","4","3","4","4","4","3","4","4","4","4","4","4","2","4","4","5","5","3","4","5","4","4","4","4","4","4","4","2","5","1","0","0","1","0","0","0","1","0","1","1","0","1","0","1","4","4","4","5","5","2","4","4","5","4","4","653013422224441344","苏","356","","","","","","","","","","","","","","","","","","","","","","","","","","","","","","","","","","","","","","","","","",""
"511","<p style=""color:white; font-size: 35px;"">卑鄙</p>","i","categorize-html","135","185687","0.0-6.0-1.0-8.0-1.13","4","3","4","4","4","3","4","4","4","4","4","4","2","4","4","5","5","3","4","5","4","4","4","4","4","4","4","2","5","1","0","0","1","0","0","0","1","0","1","1","0","1","0","1","4","4","4","5","5","2","4","4","5","4","4","653013422224441344","苏","356","","","","","","","","","","","","","","","","","","","true","14","4","moral","511","negative","卑鄙","","","","","","","","","","","","","","","","",""
"null","","null","html-keyboard-response","136","185938","0.0-6.0-1.0-8.0-0.14","4","3","4","4","4","3","4","4","4","4","4","4","2","4","4","5","5","3","4","5","4","4","4","4","4","4","4","2","5","1","0","0","1","0","0","0","1","0","1","1","0","1","0","1","4","4","4","5","5","2","4","4","5","4","4","653013422224441344","苏","356","","","","","","","","","","","","","","","","","","","","","","","","","","","","","","","","","","","","","","","","","",""
"476","<p style=""color:rgb(150, 250, 100); font-size: 35px;"">他人的</p>","e","categorize-html","137","186414","0.0-6.0-1.0-8.0-1.14","4","3","4","4","4","3","4","4","4","4","4","4","2","4","4","5","5","3","4","5","4","4","4","4","4","4","4","2","5","1","0","0","1","0","0","0","1","0","1","1","0","1","0","1","4","4","4","5","5","2","4","4","5","4","4","653013422224441344","苏","356","","","","","","","","","","","","","","","","","","","true","14","4","moral","476","other","他人的","","","","","","","","","","","","","","","","",""
"null","","null","html-keyboard-response","138","186665","0.0-6.0-1.0-8.0-0.15","4","3","4","4","4","3","4","4","4","4","4","4","2","4","4","5","5","3","4","5","4","4","4","4","4","4","4","2","5","1","0","0","1","0","0","0","1","0","1","1","0","1","0","1","4","4","4","5","5","2","4","4","5","4","4","653013422224441344","苏","356","","","","","","","","","","","","","","","","","","","","","","","","","","","","","","","","","","","","","","","","","",""
"741","<p style=""color:white; font-size: 35px;"">正直</p>","e","categorize-html","139","187408","0.0-6.0-1.0-8.0-1.15","4","3","4","4","4","3","4","4","4","4","4","4","2","4","4","5","5","3","4","5","4","4","4","4","4","4","4","2","5","1","0","0","1","0","0","0","1","0","1","1","0","1","0","1","4","4","4","5","5","2","4","4","5","4","4","653013422224441344","苏","356","","","","","","","","","","","","","","","","","","","true","14","4","moral","741","positive","正直","","","","","","","","","","","","","","","","",""
"null","","null","html-keyboard-response","140","187660","0.0-6.0-1.0-8.0-0.16","4","3","4","4","4","3","4","4","4","4","4","4","2","4","4","5","5","3","4","5","4","4","4","4","4","4","4","2","5","1","0","0","1","0","0","0","1","0","1","1","0","1","0","1","4","4","4","5","5","2","4","4","5","4","4","653013422224441344","苏","356","","","","","","","","","","","","","","","","","","","","","","","","","","","","","","","","","","","","","","","","","",""
"800","<p style=""color:rgb(150, 250, 100); font-size: 35px;"">别人的</p>","i","categorize-html","141","189038","0.0-6.0-1.0-8.0-1.16","4","3","4","4","4","3","4","4","4","4","4","4","2","4","4","5","5","3","4","5","4","4","4","4","4","4","4","2","5","1","0","0","1","0","0","0","1","0","1","1","0","1","0","1","4","4","4","5","5","2","4","4","5","4","4","653013422224441344","苏","356","","","","","","","","","","","","","","","","","","","false","14","4","moral","1242.822222222222","other","别人的","","","","","","","","","","","","","","","","",""
"null","","null","html-keyboard-response","142","189289","0.0-6.0-1.0-8.0-0.17","4","3","4","4","4","3","4","4","4","4","4","4","2","4","4","5","5","3","4","5","4","4","4","4","4","4","4","2","5","1","0","0","1","0","0","0","1","0","1","1","0","1","0","1","4","4","4","5","5","2","4","4","5","4","4","653013422224441344","苏","356","","","","","","","","","","","","","","","","","","","","","","","","","","","","","","","","","","","","","","","","","",""
"813","<p style=""color:white; font-size: 35px;"">正直</p>","e","categorize-html","143","190103","0.0-6.0-1.0-8.0-1.17","4","3","4","4","4","3","4","4","4","4","4","4","2","4","4","5","5","3","4","5","4","4","4","4","4","4","4","2","5","1","0","0","1","0","0","0","1","0","1","1","0","1","0","1","4","4","4","5","5","2","4","4","5","4","4","653013422224441344","苏","356","","","","","","","","","","","","","","","","","","","true","14","4","moral","813","positive","正直","","","","","","","","","","","","","","","","",""
"null","","null","html-keyboard-response","144","190354","0.0-6.0-1.0-8.0-0.18","4","3","4","4","4","3","4","4","4","4","4","4","2","4","4","5","5","3","4","5","4","4","4","4","4","4","4","2","5","1","0","0","1","0","0","0","1","0","1","1","0","1","0","1","4","4","4","5","5","2","4","4","5","4","4","653013422224441344","苏","356","","","","","","","","","","","","","","","","","","","","","","","","","","","","","","","","","","","","","","","","","",""
"590","<p style=""color:rgb(150, 250, 100); font-size: 35px;"">我的</p>","i","categorize-html","145","190945","0.0-6.0-1.0-8.0-1.18","4","3","4","4","4","3","4","4","4","4","4","4","2","4","4","5","5","3","4","5","4","4","4","4","4","4","4","2","5","1","0","0","1","0","0","0","1","0","1","1","0","1","0","1","4","4","4","5","5","2","4","4","5","4","4","653013422224441344","苏","356","","","","","","","","","","","","","","","","","","","true","14","4","moral","590","self","我的","","","","","","","","","","","","","","","","",""
"null","","null","html-keyboard-response","146","191196","0.0-6.0-1.0-8.0-0.19","4","3","4","4","4","3","4","4","4","4","4","4","2","4","4","5","5","3","4","5","4","4","4","4","4","4","4","2","5","1","0","0","1","0","0","0","1","0","1","1","0","1","0","1","4","4","4","5","5","2","4","4","5","4","4","653013422224441344","苏","356","","","","","","","","","","","","","","","","","","","","","","","","","","","","","","","","","","","","","","","","","",""
"1007","<p style=""color:white; font-size: 35px;"">小人</p>","i","categorize-html","147","192204","0.0-6.0-1.0-8.0-1.19","4","3","4","4","4","3","4","4","4","4","4","4","2","4","4","5","5","3","4","5","4","4","4","4","4","4","4","2","5","1","0","0","1","0","0","0","1","0","1","1","0","1","0","1","4","4","4","5","5","2","4","4","5","4","4","653013422224441344","苏","356","","","","","","","","","","","","","","","","","","","true","14","4","moral","1007","negative","小人","","","","","","","","","","","","","","","","",""
"null","","null","html-keyboard-response","148","192455","0.0-6.0-1.0-8.0-0.20","4","3","4","4","4","3","4","4","4","4","4","4","2","4","4","5","5","3","4","5","4","4","4","4","4","4","4","2","5","1","0","0","1","0","0","0","1","0","1","1","0","1","0","1","4","4","4","5","5","2","4","4","5","4","4","653013422224441344","苏","356","","","","","","","","","","","","","","","","","","","","","","","","","","","","","","","","","","","","","","","","","",""
"556","<p style=""color:rgb(150, 250, 100); font-size: 35px;"">本人的</p>","i","categorize-html","149","193012","0.0-6.0-1.0-8.0-1.20","4","3","4","4","4","3","4","4","4","4","4","4","2","4","4","5","5","3","4","5","4","4","4","4","4","4","4","2","5","1","0","0","1","0","0","0","1","0","1","1","0","1","0","1","4","4","4","5","5","2","4","4","5","4","4","653013422224441344","苏","356","","","","","","","","","","","","","","","","","","","true","14","4","moral","556","self","本人的","","","","","","","","","","","","","","","","",""
"null","","null","html-keyboard-response","150","193264","0.0-6.0-1.0-8.0-0.21","4","3","4","4","4","3","4","4","4","4","4","4","2","4","4","5","5","3","4","5","4","4","4","4","4","4","4","2","5","1","0","0","1","0","0","0","1","0","1","1","0","1","0","1","4","4","4","5","5","2","4","4","5","4","4","653013422224441344","苏","356","","","","","","","","","","","","","","","","","","","","","","","","","","","","","","","","","","","","","","","","","",""
"630","<p style=""color:white; font-size: 35px;"">诚信</p>","e","categorize-html","151","193895","0.0-6.0-1.0-8.0-1.21","4","3","4","4","4","3","4","4","4","4","4","4","2","4","4","5","5","3","4","5","4","4","4","4","4","4","4","2","5","1","0","0","1","0","0","0","1","0","1","1","0","1","0","1","4","4","4","5","5","2","4","4","5","4","4","653013422224441344","苏","356","","","","","","","","","","","","","","","","","","","true","14","4","moral","630","positive","诚信","","","","","","","","","","","","","","","","",""
"null","","null","html-keyboard-response","152","194147","0.0-6.0-1.0-8.0-0.22","4","3","4","4","4","3","4","4","4","4","4","4","2","4","4","5","5","3","4","5","4","4","4","4","4","4","4","2","5","1","0","0","1","0","0","0","1","0","1","1","0","1","0","1","4","4","4","5","5","2","4","4","5","4","4","653013422224441344","苏","356","","","","","","","","","","","","","","","","","","","","","","","","","","","","","","","","","","","","","","","","","",""
"780","<p style=""color:rgb(150, 250, 100); font-size: 35px;"">他的</p>","e","categorize-html","153","194929","0.0-6.0-1.0-8.0-1.22","4","3","4","4","4","3","4","4","4","4","4","4","2","4","4","5","5","3","4","5","4","4","4","4","4","4","4","2","5","1","0","0","1","0","0","0","1","0","1","1","0","1","0","1","4","4","4","5","5","2","4","4","5","4","4","653013422224441344","苏","356","","","","","","","","","","","","","","","","","","","true","14","4","moral","780","other","他的","","","","","","","","","","","","","","","","",""
"null","","null","html-keyboard-response","154","195180","0.0-6.0-1.0-8.0-0.23","4","3","4","4","4","3","4","4","4","4","4","4","2","4","4","5","5","3","4","5","4","4","4","4","4","4","4","2","5","1","0","0","1","0","0","0","1","0","1","1","0","1","0","1","4","4","4","5","5","2","4","4","5","4","4","653013422224441344","苏","356","","","","","","","","","","","","","","","","","","","","","","","","","","","","","","","","","","","","","","","","","",""
"555","<p style=""color:white; font-size: 35px;"">小人</p>","i","categorize-html","155","195737","0.0-6.0-1.0-8.0-1.23","4","3","4","4","4","3","4","4","4","4","4","4","2","4","4","5","5","3","4","5","4","4","4","4","4","4","4","2","5","1","0","0","1","0","0","0","1","0","1","1","0","1","0","1","4","4","4","5","5","2","4","4","5","4","4","653013422224441344","苏","356","","","","","","","","","","","","","","","","","","","true","14","4","moral","555","negative","小人","","","","","","","","","","","","","","","","",""
"null","","null","html-keyboard-response","156","195988","0.0-6.0-1.0-8.0-0.24","4","3","4","4","4","3","4","4","4","4","4","4","2","4","4","5","5","3","4","5","4","4","4","4","4","4","4","2","5","1","0","0","1","0","0","0","1","0","1","1","0","1","0","1","4","4","4","5","5","2","4","4","5","4","4","653013422224441344","苏","356","","","","","","","","","","","","","","","","","","","","","","","","","","","","","","","","","","","","","","","","","",""
"967","<p style=""color:rgb(150, 250, 100); font-size: 35px;"">别人的</p>","e","categorize-html","157","196956","0.0-6.0-1.0-8.0-1.24","4","3","4","4","4","3","4","4","4","4","4","4","2","4","4","5","5","3","4","5","4","4","4","4","4","4","4","2","5","1","0","0","1","0","0","0","1","0","1","1","0","1","0","1","4","4","4","5","5","2","4","4","5","4","4","653013422224441344","苏","356","","","","","","","","","","","","","","","","","","","true","14","4","moral","967","other","别人的","","","","","","","","","","","","","","","","",""
"null","","null","html-keyboard-response","158","197207","0.0-6.0-1.0-8.0-0.25","4","3","4","4","4","3","4","4","4","4","4","4","2","4","4","5","5","3","4","5","4","4","4","4","4","4","4","2","5","1","0","0","1","0","0","0","1","0","1","1","0","1","0","1","4","4","4","5","5","2","4","4","5","4","4","653013422224441344","苏","356","","","","","","","","","","","","","","","","","","","","","","","","","","","","","","","","","","","","","","","","","",""
"721","<p style=""color:white; font-size: 35px;"">君子</p>","e","categorize-html","159","197929","0.0-6.0-1.0-8.0-1.25","4","3","4","4","4","3","4","4","4","4","4","4","2","4","4","5","5","3","4","5","4","4","4","4","4","4","4","2","5","1","0","0","1","0","0","0","1","0","1","1","0","1","0","1","4","4","4","5","5","2","4","4","5","4","4","653013422224441344","苏","356","","","","","","","","","","","","","","","","","","","true","14","4","moral","721","positive","君子","","","","","","","","","","","","","","","","",""
"null","","null","html-keyboard-response","160","198180","0.0-6.0-1.0-8.0-0.26","4","3","4","4","4","3","4","4","4","4","4","4","2","4","4","5","5","3","4","5","4","4","4","4","4","4","4","2","5","1","0","0","1","0","0","0","1","0","1","1","0","1","0","1","4","4","4","5","5","2","4","4","5","4","4","653013422224441344","苏","356","","","","","","","","","","","","","","","","","","","","","","","","","","","","","","","","","","","","","","","","","",""
"451","<p style=""color:rgb(150, 250, 100); font-size: 35px;"">本人</p>","e","categorize-html","161","199117","0.0-6.0-1.0-8.0-1.26","4","3","4","4","4","3","4","4","4","4","4","4","2","4","4","5","5","3","4","5","4","4","4","4","4","4","4","2","5","1","0","0","1","0","0","0","1","0","1","1","0","1","0","1","4","4","4","5","5","2","4","4","5","4","4","653013422224441344","苏","356","","","","","","","","","","","","","","","","","","","false","14","4","moral","1242.822222222222","self","本人","","","","","","","","","","","","","","","","",""
"null","","null","html-keyboard-response","162","199368","0.0-6.0-1.0-8.0-0.27","4","3","4","4","4","3","4","4","4","4","4","4","2","4","4","5","5","3","4","5","4","4","4","4","4","4","4","2","5","1","0","0","1","0","0","0","1","0","1","1","0","1","0","1","4","4","4","5","5","2","4","4","5","4","4","653013422224441344","苏","356","","","","","","","","","","","","","","","","","","","","","","","","","","","","","","","","","","","","","","","","","",""
"541","<p style=""color:white; font-size: 35px;"">不孝</p>","i","categorize-html","163","199911","0.0-6.0-1.0-8.0-1.27","4","3","4","4","4","3","4","4","4","4","4","4","2","4","4","5","5","3","4","5","4","4","4","4","4","4","4","2","5","1","0","0","1","0","0","0","1","0","1","1","0","1","0","1","4","4","4","5","5","2","4","4","5","4","4","653013422224441344","苏","356","","","","","","","","","","","","","","","","","","","true","14","4","moral","541","negative","不孝","","","","","","","","","","","","","","","","",""
"null","","null","html-keyboard-response","164","200162","0.0-6.0-1.0-8.0-0.28","4","3","4","4","4","3","4","4","4","4","4","4","2","4","4","5","5","3","4","5","4","4","4","4","4","4","4","2","5","1","0","0","1","0","0","0","1","0","1","1","0","1","0","1","4","4","4","5","5","2","4","4","5","4","4","653013422224441344","苏","356","","","","","","","","","","","","","","","","","","","","","","","","","","","","","","","","","","","","","","","","","",""
"600","<p style=""color:rgb(150, 250, 100); font-size: 35px;"">他人</p>","e","categorize-html","165","200764","0.0-6.0-1.0-8.0-1.28","4","3","4","4","4","3","4","4","4","4","4","4","2","4","4","5","5","3","4","5","4","4","4","4","4","4","4","2","5","1","0","0","1","0","0","0","1","0","1","1","0","1","0","1","4","4","4","5","5","2","4","4","5","4","4","653013422224441344","苏","356","","","","","","","","","","","","","","","","","","","true","14","4","moral","600","other","他人","","","","","","","","","","","","","","","","",""
"null","","null","html-keyboard-response","166","201014","0.0-6.0-1.0-8.0-0.29","4","3","4","4","4","3","4","4","4","4","4","4","2","4","4","5","5","3","4","5","4","4","4","4","4","4","4","2","5","1","0","0","1","0","0","0","1","0","1","1","0","1","0","1","4","4","4","5","5","2","4","4","5","4","4","653013422224441344","苏","356","","","","","","","","","","","","","","","","","","","","","","","","","","","","","","","","","","","","","","","","","",""
"526","<p style=""color:white; font-size: 35px;"">廉正</p>","e","categorize-html","167","201541","0.0-6.0-1.0-8.0-1.29","4","3","4","4","4","3","4","4","4","4","4","4","2","4","4","5","5","3","4","5","4","4","4","4","4","4","4","2","5","1","0","0","1","0","0","0","1","0","1","1","0","1","0","1","4","4","4","5","5","2","4","4","5","4","4","653013422224441344","苏","356","","","","","","","","","","","","","","","","","","","true","14","4","moral","526","positive","廉正","","","","","","","","","","","","","","","","",""
"null","","null","html-keyboard-response","168","201792","0.0-6.0-1.0-8.0-0.30","4","3","4","4","4","3","4","4","4","4","4","4","2","4","4","5","5","3","4","5","4","4","4","4","4","4","4","2","5","1","0","0","1","0","0","0","1","0","1","1","0","1","0","1","4","4","4","5","5","2","4","4","5","4","4","653013422224441344","苏","356","","","","","","","","","","","","","","","","","","","","","","","","","","","","","","","","","","","","","","","","","",""
"542","<p style=""color:rgb(150, 250, 100); font-size: 35px;"">本人的</p>","i","categorize-html","169","202335","0.0-6.0-1.0-8.0-1.30","4","3","4","4","4","3","4","4","4","4","4","4","2","4","4","5","5","3","4","5","4","4","4","4","4","4","4","2","5","1","0","0","1","0","0","0","1","0","1","1","0","1","0","1","4","4","4","5","5","2","4","4","5","4","4","653013422224441344","苏","356","","","","","","","","","","","","","","","","","","","true","14","4","moral","542","self","本人的","","","","","","","","","","","","","","","","",""
"null","","null","html-keyboard-response","170","202587","0.0-6.0-1.0-8.0-0.31","4","3","4","4","4","3","4","4","4","4","4","4","2","4","4","5","5","3","4","5","4","4","4","4","4","4","4","2","5","1","0","0","1","0","0","0","1","0","1","1","0","1","0","1","4","4","4","5","5","2","4","4","5","4","4","653013422224441344","苏","356","","","","","","","","","","","","","","","","","","","","","","","","","","","","","","","","","","","","","","","","","",""
"611","<p style=""color:white; font-size: 35px;"">不孝</p>","i","categorize-html","171","203199","0.0-6.0-1.0-8.0-1.31","4","3","4","4","4","3","4","4","4","4","4","4","2","4","4","5","5","3","4","5","4","4","4","4","4","4","4","2","5","1","0","0","1","0","0","0","1","0","1","1","0","1","0","1","4","4","4","5","5","2","4","4","5","4","4","653013422224441344","苏","356","","","","","","","","","","","","","","","","","","","true","14","4","moral","611","negative","不孝","","","","","","","","","","","","","","","","",""
"null","","null","html-keyboard-response","172","203449","0.0-6.0-1.0-8.0-0.32","4","3","4","4","4","3","4","4","4","4","4","4","2","4","4","5","5","3","4","5","4","4","4","4","4","4","4","2","5","1","0","0","1","0","0","0","1","0","1","1","0","1","0","1","4","4","4","5","5","2","4","4","5","4","4","653013422224441344","苏","356","","","","","","","","","","","","","","","","","","","","","","","","","","","","","","","","","","","","","","","","","",""
"646","<p style=""color:rgb(150, 250, 100); font-size: 35px;"">我的</p>","i","categorize-html","173","204096","0.0-6.0-1.0-8.0-1.32","4","3","4","4","4","3","4","4","4","4","4","4","2","4","4","5","5","3","4","5","4","4","4","4","4","4","4","2","5","1","0","0","1","0","0","0","1","0","1","1","0","1","0","1","4","4","4","5","5","2","4","4","5","4","4","653013422224441344","苏","356","","","","","","","","","","","","","","","","","","","true","14","4","moral","646","self","我的","","","","","","","","","","","","","","","","",""
"null","","null","html-keyboard-response","174","204347","0.0-6.0-1.0-8.0-0.33","4","3","4","4","4","3","4","4","4","4","4","4","2","4","4","5","5","3","4","5","4","4","4","4","4","4","4","2","5","1","0","0","1","0","0","0","1","0","1","1","0","1","0","1","4","4","4","5","5","2","4","4","5","4","4","653013422224441344","苏","356","","","","","","","","","","","","","","","","","","","","","","","","","","","","","","","","","","","","","","","","","",""
"586","<p style=""color:white; font-size: 35px;"">诚信</p>","e","categorize-html","175","204935","0.0-6.0-1.0-8.0-1.33","4","3","4","4","4","3","4","4","4","4","4","4","2","4","4","5","5","3","4","5","4","4","4","4","4","4","4","2","5","1","0","0","1","0","0","0","1","0","1","1","0","1","0","1","4","4","4","5","5","2","4","4","5","4","4","653013422224441344","苏","356","","","","","","","","","","","","","","","","","","","true","14","4","moral","586","positive","诚信","","","","","","","","","","","","","","","","",""
"null","","null","html-keyboard-response","176","205185","0.0-6.0-1.0-8.0-0.34","4","3","4","4","4","3","4","4","4","4","4","4","2","4","4","5","5","3","4","5","4","4","4","4","4","4","4","2","5","1","0","0","1","0","0","0","1","0","1","1","0","1","0","1","4","4","4","5","5","2","4","4","5","4","4","653013422224441344","苏","356","","","","","","","","","","","","","","","","","","","","","","","","","","","","","","","","","","","","","","","","","",""
"617","<p style=""color:rgb(150, 250, 100); font-size: 35px;"">他</p>","e","categorize-html","177","205803","0.0-6.0-1.0-8.0-1.34","4","3","4","4","4","3","4","4","4","4","4","4","2","4","4","5","5","3","4","5","4","4","4","4","4","4","4","2","5","1","0","0","1","0","0","0","1","0","1","1","0","1","0","1","4","4","4","5","5","2","4","4","5","4","4","653013422224441344","苏","356","","","","","","","","","","","","","","","","","","","true","14","4","moral","617","other","他","","","","","","","","","","","","","","","","",""
"null","","null","html-keyboard-response","178","206054","0.0-6.0-1.0-8.0-0.35","4","3","4","4","4","3","4","4","4","4","4","4","2","4","4","5","5","3","4","5","4","4","4","4","4","4","4","2","5","1","0","0","1","0","0","0","1","0","1","1","0","1","0","1","4","4","4","5","5","2","4","4","5","4","4","653013422224441344","苏","356","","","","","","","","","","","","","","","","","","","","","","","","","","","","","","","","","","","","","","","","","",""
"636","<p style=""color:white; font-size: 35px;"">不仁</p>","i","categorize-html","179","206691","0.0-6.0-1.0-8.0-1.35","4","3","4","4","4","3","4","4","4","4","4","4","2","4","4","5","5","3","4","5","4","4","4","4","4","4","4","2","5","1","0","0","1","0","0","0","1","0","1","1","0","1","0","1","4","4","4","5","5","2","4","4","5","4","4","653013422224441344","苏","356","","","","","","","","","","","","","","","","","","","true","14","4","moral","636","negative","不仁","","","","","","","","","","","","","","","","",""
"null","","null","html-keyboard-response","180","206941","0.0-6.0-1.0-8.0-0.36","4","3","4","4","4","3","4","4","4","4","4","4","2","4","4","5","5","3","4","5","4","4","4","4","4","4","4","2","5","1","0","0","1","0","0","0","1","0","1","1","0","1","0","1","4","4","4","5","5","2","4","4","5","4","4","653013422224441344","苏","356","","","","","","","","","","","","","","","","","","","","","","","","","","","","","","","","","","","","","","","","","",""
"531","<p style=""color:rgb(150, 250, 100); font-size: 35px;"">他人</p>","e","categorize-html","181","207474","0.0-6.0-1.0-8.0-1.36","4","3","4","4","4","3","4","4","4","4","4","4","2","4","4","5","5","3","4","5","4","4","4","4","4","4","4","2","5","1","0","0","1","0","0","0","1","0","1","1","0","1","0","1","4","4","4","5","5","2","4","4","5","4","4","653013422224441344","苏","356","","","","","","","","","","","","","","","","","","","true","14","4","moral","531","other","他人","","","","","","","","","","","","","","","","",""
"null","","null","html-keyboard-response","182","207725","0.0-6.0-1.0-8.0-0.37","4","3","4","4","4","3","4","4","4","4","4","4","2","4","4","5","5","3","4","5","4","4","4","4","4","4","4","2","5","1","0","0","1","0","0","0","1","0","1","1","0","1","0","1","4","4","4","5","5","2","4","4","5","4","4","653013422224441344","苏","356","","","","","","","","","","","","","","","","","","","","","","","","","","","","","","","","","","","","","","","","","",""
"581","<p style=""color:white; font-size: 35px;"">高尚</p>","e","categorize-html","183","208307","0.0-6.0-1.0-8.0-1.37","4","3","4","4","4","3","4","4","4","4","4","4","2","4","4","5","5","3","4","5","4","4","4","4","4","4","4","2","5","1","0","0","1","0","0","0","1","0","1","1","0","1","0","1","4","4","4","5","5","2","4","4","5","4","4","653013422224441344","苏","356","","","","","","","","","","","","","","","","","","","true","14","4","moral","581","positive","高尚","","","","","","","","","","","","","","","","",""
"null","","null","html-keyboard-response","184","208558","0.0-6.0-1.0-8.0-0.38","4","3","4","4","4","3","4","4","4","4","4","4","2","4","4","5","5","3","4","5","4","4","4","4","4","4","4","2","5","1","0","0","1","0","0","0","1","0","1","1","0","1","0","1","4","4","4","5","5","2","4","4","5","4","4","653013422224441344","苏","356","","","","","","","","","","","","","","","","","","","","","","","","","","","","","","","","","","","","","","","","","",""
"485","<p style=""color:rgb(150, 250, 100); font-size: 35px;"">我</p>","i","categorize-html","185","209044","0.0-6.0-1.0-8.0-1.38","4","3","4","4","4","3","4","4","4","4","4","4","2","4","4","5","5","3","4","5","4","4","4","4","4","4","4","2","5","1","0","0","1","0","0","0","1","0","1","1","0","1","0","1","4","4","4","5","5","2","4","4","5","4","4","653013422224441344","苏","356","","","","","","","","","","","","","","","","","","","true","14","4","moral","485","self","我","","","","","","","","","","","","","","","","",""
"null","","null","html-keyboard-response","186","209295","0.0-6.0-1.0-8.0-0.39","4","3","4","4","4","3","4","4","4","4","4","4","2","4","4","5","5","3","4","5","4","4","4","4","4","4","4","2","5","1","0","0","1","0","0","0","1","0","1","1","0","1","0","1","4","4","4","5","5","2","4","4","5","4","4","653013422224441344","苏","356","","","","","","","","","","","","","","","","","","","","","","","","","","","","","","","","","","","","","","","","","",""
"421","<p style=""color:white; font-size: 35px;"">黑心</p>","i","categorize-html","187","209717","0.0-6.0-1.0-8.0-1.39","4","3","4","4","4","3","4","4","4","4","4","4","2","4","4","5","5","3","4","5","4","4","4","4","4","4","4","2","5","1","0","0","1","0","0","0","1","0","1","1","0","1","0","1","4","4","4","5","5","2","4","4","5","4","4","653013422224441344","苏","356","","","","","","","","","","","","","","","","","","","true","14","4","moral","421","negative","黑心","","","","","","","","","","","","","","","","",""
"null","","null","html-keyboard-response","188","209968","0.0-6.0-1.0-8.0-0.40","4","3","4","4","4","3","4","4","4","4","4","4","2","4","4","5","5","3","4","5","4","4","4","4","4","4","4","2","5","1","0","0","1","0","0","0","1","0","1","1","0","1","0","1","4","4","4","5","5","2","4","4","5","4","4","653013422224441344","苏","356","","","","","","","","","","","","","","","","","","","","","","","","","","","","","","","","","","","","","","","","","",""
"621","<p style=""color:rgb(150, 250, 100); font-size: 35px;"">本人</p>","i","categorize-html","189","210590","0.0-6.0-1.0-8.0-1.40","4","3","4","4","4","3","4","4","4","4","4","4","2","4","4","5","5","3","4","5","4","4","4","4","4","4","4","2","5","1","0","0","1","0","0","0","1","0","1","1","0","1","0","1","4","4","4","5","5","2","4","4","5","4","4","653013422224441344","苏","356","","","","","","","","","","","","","","","","","","","true","14","4","moral","621","self","本人","","","","","","","","","","","","","","","","",""
"null","","null","html-keyboard-response","190","210841","0.0-6.0-1.0-8.0-0.41","4","3","4","4","4","3","4","4","4","4","4","4","2","4","4","5","5","3","4","5","4","4","4","4","4","4","4","2","5","1","0","0","1","0","0","0","1","0","1","1","0","1","0","1","4","4","4","5","5","2","4","4","5","4","4","653013422224441344","苏","356","","","","","","","","","","","","","","","","","","","","","","","","","","","","","","","","","","","","","","","","","",""
"435","<p style=""color:white; font-size: 35px;"">卑鄙</p>","i","categorize-html","191","211277","0.0-6.0-1.0-8.0-1.41","4","3","4","4","4","3","4","4","4","4","4","4","2","4","4","5","5","3","4","5","4","4","4","4","4","4","4","2","5","1","0","0","1","0","0","0","1","0","1","1","0","1","0","1","4","4","4","5","5","2","4","4","5","4","4","653013422224441344","苏","356","","","","","","","","","","","","","","","","","","","true","14","4","moral","435","negative","卑鄙","","","","","","","","","","","","","","","","",""
"null","","null","html-keyboard-response","192","211529","0.0-6.0-1.0-8.0-0.42","4","3","4","4","4","3","4","4","4","4","4","4","2","4","4","5","5","3","4","5","4","4","4","4","4","4","4","2","5","1","0","0","1","0","0","0","1","0","1","1","0","1","0","1","4","4","4","5","5","2","4","4","5","4","4","653013422224441344","苏","356","","","","","","","","","","","","","","","","","","","","","","","","","","","","","","","","","","","","","","","","","",""
