"rt","stimulus","response","trial_type","trial_index","time_elapsed","internal_node_id","ses_1","ses_2","ses_3","ses_4","ses_5","ses_6","ses_7","ses_8","ses_9","ses_10","coreself_1","coreself_2","coreself_3","coreself_4","coreself_5","coreself_6","coreself_7","coreself_8","coreself_9","coreself_10","SGPS_1","SGPS_2","SGPS_3","SGPS_4","SGPS_5","SGPS_6","SGPS_7","SGPS_8","SGPS_9","NPI1","NPI2","NPI3","NPI4","NPI5","NPI6","NPI7","NPI8","NPI9","NPI10","NPI11","NPI12","NPI13","NPI14","NPI15","hsns_1","hsns_2","hsns_3","hsns_4","hsns_5","trap1","hsns_6","hsns_7","hsns_8","hsns_9","hsns_10","subj_idx","friend_name","ParticipantID","value","success","user_agent","responses","item_order","radio_event_ids","radio_event_times","key_event_times","mouse_event_times","straightlining","zigzagging","honeypot","timeout","failed_images","failed_audio","failed_video","version_attrib2","version_target2","correct","IAT","screen_id","task_id","RT","condition","word","varname","summary","version_attrib","version_target","time_stamp","view_history","response_type","key_press","avg_frame_time","center_x","center_y","correct_response","identity","Image","question_order","correct_answer","trap1_item"
"14788","
   <p><div style = ""color: white;font-size:25px;"">您好，欢迎参加本次实验。</div> </p>
   <p><div style = ""color: white;font-size:25px;"">为充分保障您的权利，请确保您已经知晓并同意《参与实验同意书》以及《数据公开知情同意书》。</div></p>
   <p><div style = ""color: white;font-size:25px;"">如果您未见过上述内容，请咨询实验员。</div></p>
   <p><div style = ""color: white;font-size:25px;"">如果您选择继续实验，则表示您已经清楚两份知情同意书的内容并同意。</div></p>
   <p><div style = ""color: pink;font-size:30px;"">请确保您记得day0的实验编号，您将在本次实验输入该编号，若您忘记，请咨询实验员后作答。</div></p>
   <p><div style = ""color: lightblue;font-size:25px;"">请您尽可能认真地作答，我们将依据您在各问卷和按键任务中的作答质量发放报酬。</div></p>
   <p> <div style = ""color: green;font-size:25px;""><按空格键至下页></div> </p>
   "," ","html-keyboard-response","0","14795","0.0-0.0","4","3","4","3","3","3","3","3","3","4","4","4","2","3","4","4","4","4","4","5","4","4","4","2","4","4","2","2","1","1","0","1","1","0","0","1","1","0","1","1","0","1","0","1","5","4","4","2","2","2","1","2","4","4","2","781469725959131138","路","130","","","","","","","","","","","","","","","","","","","","","","","","","","","","","","","","","","","","","","","","","",""
"","","","call-function","1","14801","0.0-1.0-0.0","4","3","4","3","3","3","3","3","3","4","4","4","2","3","4","4","4","4","4","5","4","4","4","2","4","4","2","2","1","1","0","1","1","0","0","1","1","0","1","1","0","1","0","1","5","4","4","2","2","2","1","2","4","4","2","781469725959131138","路","130","","","","","","","","","","","","","","","","","","","","","","","","","","","","","","","","","","","","","","","","","",""
"33512","","{""friend_name"":""路"",""ParticipantID"":""130""}","survey-html-form","2","48315","0.0-1.0-1.0","4","3","4","3","3","3","3","3","3","4","4","4","2","3","4","4","4","4","4","5","4","4","4","2","4","4","2","2","1","1","0","1","1","0","0","1","1","0","1","1","0","1","0","1","5","4","4","2","2","2","1","2","4","4","2","781469725959131138","路","130","","","","","","","","","","","","","","","","","","","","","","","","","","","","","","","","","","","","","","","","","",""
"","","","fullscreen","3","70781","0.0-2.0","4","3","4","3","3","3","3","3","3","4","4","4","2","3","4","4","4","4","4","5","4","4","4","2","4","4","2","2","1","1","0","1","1","0","0","1","1","0","1","1","0","1","0","1","5","4","4","2","2","2","1","2","4","4","2","781469725959131138","路","130","","true","{}","","","","","","","","","","","","","","","","","","","","","","","","","","","","","","","","","","","","","","",""
"42902.10000000894","","{""Q01"":""4"",""Q02"":""3"",""Q03"":""4"",""Q04"":""3"",""Q05"":""3"",""Q06"":""3"",""Q07"":""3"",""Q08"":""3"",""Q09"":""3"",""Q10"":""4""}","survey-template","4","113686","0.0-3.0","4","3","4","3","3","3","3","3","3","4","4","4","2","3","4","4","4","4","4","5","4","4","4","2","4","4","2","2","1","1","0","1","1","0","0","1","1","0","1","1","0","1","0","1","5","4","4","2","2","2","1","2","4","4","2","781469725959131138","路","130","","","","{""Q01"":""4"",""Q02"":""3"",""Q03"":""4"",""Q04"":""3"",""Q05"":""3"",""Q06"":""3"",""Q07"":""3"",""Q08"":""3"",""Q09"":""3"",""Q10"":""4""}","[0,1,2,3,4,5,6,7,8,9]","[""Q01"",""Q01"",""Q02"",""Q02"",""Q02"",""Q03"",""Q04"",""Q05"",""Q06"",""Q07"",""Q08"",""Q09"",""Q10""]","[6154.20000000298,8965.5,10204.10000000894,14796.20000000298,15944.29999999702,17134.29999999702,18990.10000000894,21044.20000000298,23655.5,26476,32640.20000000298,35199.90000000596,36340.10000000894]","[]","[6154.20000000298,8965.5,10204.10000000894,13926.40000000596,14796.20000000298,15944.29999999702,17134.29999999702,18513.90000000596,18990.10000000894,21044.20000000298,23655.5,26476,32640.20000000298,35199.90000000596,36340.10000000894,42901]","0.4","0.5555555555555556","0","","","","","","","","","","","","","","","","","","","","","","","","","","","","","",""
"101417.40000000596","","{""Q01"":""4"",""Q02"":""4"",""Q03"":""2"",""Q04"":""3"",""Q05"":""4"",""Q06"":""4"",""Q07"":""4"",""Q08"":""4"",""Q09"":""4"",""Q10"":""5""}","survey-template","5","215110","0.0-4.0","4","3","4","3","3","3","3","3","3","4","4","4","2","3","4","4","4","4","4","5","4","4","4","2","4","4","2","2","1","1","0","1","1","0","0","1","1","0","1","1","0","1","0","1","5","4","4","2","2","2","1","2","4","4","2","781469725959131138","路","130","","","","{""Q01"":""4"",""Q02"":""4"",""Q03"":""2"",""Q04"":""3"",""Q05"":""4"",""Q06"":""4"",""Q07"":""4"",""Q08"":""4"",""Q09"":""4"",""Q10"":""5""}","[0,1,2,3,4,5,6,7,8,9]","[""Q01"",""Q02"",""Q03"",""Q04"",""Q05"",""Q06"",""Q07"",""Q08"",""Q07"",""Q10"",""Q07"",""Q09"",""Q08""]","[7161.600000008941,9245.79999999702,18219.70000000298,22887.29999999702,29363.70000000298,30591.40000000596,34431.60000000894,39227.60000000894,40759.60000000894,49155.5,54711.60000000894,63259.40000000596,91453.20000000298]","[]","[7161.600000008941,9245.79999999702,17545.70000000298,18219.70000000298,22887.29999999702,29363.70000000298,30591.40000000596,34431.60000000894,39227.60000000894,40759.60000000894,49155.5,54711.60000000894,63259.40000000596,91453.20000000298,101415.20000000298]","0.4","0.2222222222222222","0","","","","","","","","","","","","","","","","","","","","","","","","","","","","","",""
"","","","preload","6","216323","0.0-5.0","4","3","4","3","3","3","3","3","3","4","4","4","2","3","4","4","4","4","4","5","4","4","4","2","4","4","2","2","1","1","0","1","1","0","0","1","1","0","1","1","0","1","0","1","5","4","4","2","2","2","1","2","4","4","2","781469725959131138","路","130","","true","","","","","","","","","","","false","[]","[]","[]","","","","","","","","","","","","","","","","","","","","","","","","","",""
"17993","
    <h3>词语分类任务</h3>
    <p>在接下来的任务中，你需要对一系列词语进行分类。<p/>
    请先熟悉这些词语，这有利于你完成接下来的任务。</p>
    <table align=""center"" border=1 cellpadding=3 cellspacing=0>
    <tr> <th>类别</th> <th>词语</th> </tr>
    <tr> <td>&emsp;积极&emsp;</td> <td>&emsp;高尚、诚信、善良、君子、廉正、正直&emsp;</td> </tr>
    <tr> <td>&emsp;消极&emsp;</td> <td>&emsp;缺德、卑鄙、不孝、不仁、小人、黑心&emsp;</td> </tr>
    <tr> <td>&emsp;自我&emsp;</td> <td>&emsp;我、我的、自己、自己的、本人、本人的&emsp;</td> </tr>
    <tr> <td>&emsp;他人&emsp;</td> <td>&emsp;他、他的、别人、别人的、他人、他人的&emsp;</td> </tr>
    </table><br/>","0","html-button-response","7","234320","0.0-6.0-1.0-0.0","4","3","4","3","3","3","3","3","3","4","4","4","2","3","4","4","4","4","4","5","4","4","4","2","4","4","2","2","1","1","0","1","1","0","0","1","1","0","1","1","0","1","0","1","5","4","4","2","2","2","1","2","4","4","2","781469725959131138","路","130","","","","","","","","","","","","","","","","","1","2","","","","","","","","","","","","","","","","","","","","","","","",""
"30722","
    <div class=""tag-bottom""><p>
    —— 任务1：对“他人”词和“自我”词分类 ——<p/>
    不同词语会出现在屏幕中央，类别标签将始终显示在屏幕上方<p/>   
    <span style=""color:#FFD866""><b>请根据上方标签的提示，尽可能正确并且快速地做出按键反应</b></span><p/>
    当按键错误时屏幕中会出现<span style=""color:red""> X </span>，需要按另一个键纠正才能继续<br/><p/>
    请把双手食指分别放在键盘的“E”键和“I”键上<p/>
    按<空格键>开始
    </p></div>"," ","html-keyboard-response","8","265047","0.0-6.0-1.0-1.0","4","3","4","3","3","3","3","3","3","4","4","4","2","3","4","4","4","4","4","5","4","4","4","2","4","4","2","2","1","1","0","1","1","0","0","1","1","0","1","1","0","1","0","1","5","4","4","2","2","2","1","2","4","4","2","781469725959131138","路","130","","","","","","","","","","","","","","","","","","","","","","","","","","","","","","","","","","","","","","","","","",""
"null","","null","html-keyboard-response","9","265299","0.0-6.0-1.0-2.0-0.0","4","3","4","3","3","3","3","3","3","4","4","4","2","3","4","4","4","4","4","5","4","4","4","2","4","4","2","2","1","1","0","1","1","0","0","1","1","0","1","1","0","1","0","1","5","4","4","2","2","2","1","2","4","4","2","781469725959131138","路","130","","","","","","","","","","","","","","","","","","","","","","","","","","","","","","","","","","","","","","","","","",""
"932","<p style=""color:rgb(150, 250, 100); font-size: 35px;"">自己的</p>","i","categorize-html","10","266242","0.0-6.0-1.0-2.0-1.0","4","3","4","3","3","3","3","3","3","4","4","4","2","3","4","4","4","4","4","5","4","4","4","2","4","4","2","2","1","1","0","1","1","0","0","1","1","0","1","1","0","1","0","1","5","4","4","2","2","2","1","2","4","4","2","781469725959131138","路","130","","","","","","","","","","","","","","","","","","","true","11","1","moral","932","self","自己的","","","","","","","","","","","","","","","","",""
"null","","null","html-keyboard-response","11","266493","0.0-6.0-1.0-2.0-0.1","4","3","4","3","3","3","3","3","3","4","4","4","2","3","4","4","4","4","4","5","4","4","4","2","4","4","2","2","1","1","0","1","1","0","0","1","1","0","1","1","0","1","0","1","5","4","4","2","2","2","1","2","4","4","2","781469725959131138","路","130","","","","","","","","","","","","","","","","","","","","","","","","","","","","","","","","","","","","","","","","","",""
"761","<p style=""color:rgb(150, 250, 100); font-size: 35px;"">他</p>","e","categorize-html","12","267256","0.0-6.0-1.0-2.0-1.1","4","3","4","3","3","3","3","3","3","4","4","4","2","3","4","4","4","4","4","5","4","4","4","2","4","4","2","2","1","1","0","1","1","0","0","1","1","0","1","1","0","1","0","1","5","4","4","2","2","2","1","2","4","4","2","781469725959131138","路","130","","","","","","","","","","","","","","","","","","","true","11","1","moral","761","other","他","","","","","","","","","","","","","","","","",""
"null","","null","html-keyboard-response","13","267507","0.0-6.0-1.0-2.0-0.2","4","3","4","3","3","3","3","3","3","4","4","4","2","3","4","4","4","4","4","5","4","4","4","2","4","4","2","2","1","1","0","1","1","0","0","1","1","0","1","1","0","1","0","1","5","4","4","2","2","2","1","2","4","4","2","781469725959131138","路","130","","","","","","","","","","","","","","","","","","","","","","","","","","","","","","","","","","","","","","","","","",""
"610","<p style=""color:rgb(150, 250, 100); font-size: 35px;"">他的</p>","e","categorize-html","14","268119","0.0-6.0-1.0-2.0-1.2","4","3","4","3","3","3","3","3","3","4","4","4","2","3","4","4","4","4","4","5","4","4","4","2","4","4","2","2","1","1","0","1","1","0","0","1","1","0","1","1","0","1","0","1","5","4","4","2","2","2","1","2","4","4","2","781469725959131138","路","130","","","","","","","","","","","","","","","","","","","true","11","1","moral","610","other","他的","","","","","","","","","","","","","","","","",""
"null","","null","html-keyboard-response","15","268371","0.0-6.0-1.0-2.0-0.3","4","3","4","3","3","3","3","3","3","4","4","4","2","3","4","4","4","4","4","5","4","4","4","2","4","4","2","2","1","1","0","1","1","0","0","1","1","0","1","1","0","1","0","1","5","4","4","2","2","2","1","2","4","4","2","781469725959131138","路","130","","","","","","","","","","","","","","","","","","","","","","","","","","","","","","","","","","","","","","","","","",""
"598","<p style=""color:rgb(150, 250, 100); font-size: 35px;"">他人的</p>","e","categorize-html","16","268972","0.0-6.0-1.0-2.0-1.3","4","3","4","3","3","3","3","3","3","4","4","4","2","3","4","4","4","4","4","5","4","4","4","2","4","4","2","2","1","1","0","1","1","0","0","1","1","0","1","1","0","1","0","1","5","4","4","2","2","2","1","2","4","4","2","781469725959131138","路","130","","","","","","","","","","","","","","","","","","","true","11","1","moral","598","other","他人的","","","","","","","","","","","","","","","","",""
"null","","null","html-keyboard-response","17","269224","0.0-6.0-1.0-2.0-0.4","4","3","4","3","3","3","3","3","3","4","4","4","2","3","4","4","4","4","4","5","4","4","4","2","4","4","2","2","1","1","0","1","1","0","0","1","1","0","1","1","0","1","0","1","5","4","4","2","2","2","1","2","4","4","2","781469725959131138","路","130","","","","","","","","","","","","","","","","","","","","","","","","","","","","","","","","","","","","","","","","","",""
"614","<p style=""color:rgb(150, 250, 100); font-size: 35px;"">自己</p>","i","categorize-html","18","269839","0.0-6.0-1.0-2.0-1.4","4","3","4","3","3","3","3","3","3","4","4","4","2","3","4","4","4","4","4","5","4","4","4","2","4","4","2","2","1","1","0","1","1","0","0","1","1","0","1","1","0","1","0","1","5","4","4","2","2","2","1","2","4","4","2","781469725959131138","路","130","","","","","","","","","","","","","","","","","","","true","11","1","moral","614","self","自己","","","","","","","","","","","","","","","","",""
"null","","null","html-keyboard-response","19","270091","0.0-6.0-1.0-2.0-0.5","4","3","4","3","3","3","3","3","3","4","4","4","2","3","4","4","4","4","4","5","4","4","4","2","4","4","2","2","1","1","0","1","1","0","0","1","1","0","1","1","0","1","0","1","5","4","4","2","2","2","1","2","4","4","2","781469725959131138","路","130","","","","","","","","","","","","","","","","","","","","","","","","","","","","","","","","","","","","","","","","","",""
"644","<p style=""color:rgb(150, 250, 100); font-size: 35px;"">别人</p>","e","categorize-html","20","270737","0.0-6.0-1.0-2.0-1.5","4","3","4","3","3","3","3","3","3","4","4","4","2","3","4","4","4","4","4","5","4","4","4","2","4","4","2","2","1","1","0","1","1","0","0","1","1","0","1","1","0","1","0","1","5","4","4","2","2","2","1","2","4","4","2","781469725959131138","路","130","","","","","","","","","","","","","","","","","","","true","11","1","moral","644","other","别人","","","","","","","","","","","","","","","","",""
"null","","null","html-keyboard-response","21","270988","0.0-6.0-1.0-2.0-0.6","4","3","4","3","3","3","3","3","3","4","4","4","2","3","4","4","4","4","4","5","4","4","4","2","4","4","2","2","1","1","0","1","1","0","0","1","1","0","1","1","0","1","0","1","5","4","4","2","2","2","1","2","4","4","2","781469725959131138","路","130","","","","","","","","","","","","","","","","","","","","","","","","","","","","","","","","","","","","","","","","","",""
"532","<p style=""color:rgb(150, 250, 100); font-size: 35px;"">我的</p>","i","categorize-html","22","271522","0.0-6.0-1.0-2.0-1.6","4","3","4","3","3","3","3","3","3","4","4","4","2","3","4","4","4","4","4","5","4","4","4","2","4","4","2","2","1","1","0","1","1","0","0","1","1","0","1","1","0","1","0","1","5","4","4","2","2","2","1","2","4","4","2","781469725959131138","路","130","","","","","","","","","","","","","","","","","","","true","11","1","moral","532","self","我的","","","","","","","","","","","","","","","","",""
"null","","null","html-keyboard-response","23","271774","0.0-6.0-1.0-2.0-0.7","4","3","4","3","3","3","3","3","3","4","4","4","2","3","4","4","4","4","4","5","4","4","4","2","4","4","2","2","1","1","0","1","1","0","0","1","1","0","1","1","0","1","0","1","5","4","4","2","2","2","1","2","4","4","2","781469725959131138","路","130","","","","","","","","","","","","","","","","","","","","","","","","","","","","","","","","","","","","","","","","","",""
"611","<p style=""color:rgb(150, 250, 100); font-size: 35px;"">本人</p>","i","categorize-html","24","272387","0.0-6.0-1.0-2.0-1.7","4","3","4","3","3","3","3","3","3","4","4","4","2","3","4","4","4","4","4","5","4","4","4","2","4","4","2","2","1","1","0","1","1","0","0","1","1","0","1","1","0","1","0","1","5","4","4","2","2","2","1","2","4","4","2","781469725959131138","路","130","","","","","","","","","","","","","","","","","","","true","11","1","moral","611","self","本人","","","","","","","","","","","","","","","","",""
"null","","null","html-keyboard-response","25","272638","0.0-6.0-1.0-2.0-0.8","4","3","4","3","3","3","3","3","3","4","4","4","2","3","4","4","4","4","4","5","4","4","4","2","4","4","2","2","1","1","0","1","1","0","0","1","1","0","1","1","0","1","0","1","5","4","4","2","2","2","1","2","4","4","2","781469725959131138","路","130","","","","","","","","","","","","","","","","","","","","","","","","","","","","","","","","","","","","","","","","","",""
"627","<p style=""color:rgb(150, 250, 100); font-size: 35px;"">他人</p>","e","categorize-html","26","273268","0.0-6.0-1.0-2.0-1.8","4","3","4","3","3","3","3","3","3","4","4","4","2","3","4","4","4","4","4","5","4","4","4","2","4","4","2","2","1","1","0","1","1","0","0","1","1","0","1","1","0","1","0","1","5","4","4","2","2","2","1","2","4","4","2","781469725959131138","路","130","","","","","","","","","","","","","","","","","","","true","11","1","moral","627","other","他人","","","","","","","","","","","","","","","","",""
"null","","null","html-keyboard-response","27","273519","0.0-6.0-1.0-2.0-0.9","4","3","4","3","3","3","3","3","3","4","4","4","2","3","4","4","4","4","4","5","4","4","4","2","4","4","2","2","1","1","0","1","1","0","0","1","1","0","1","1","0","1","0","1","5","4","4","2","2","2","1","2","4","4","2","781469725959131138","路","130","","","","","","","","","","","","","","","","","","","","","","","","","","","","","","","","","","","","","","","","","",""
"614","<p style=""color:rgb(150, 250, 100); font-size: 35px;"">本人的</p>","i","categorize-html","28","274138","0.0-6.0-1.0-2.0-1.9","4","3","4","3","3","3","3","3","3","4","4","4","2","3","4","4","4","4","4","5","4","4","4","2","4","4","2","2","1","1","0","1","1","0","0","1","1","0","1","1","0","1","0","1","5","4","4","2","2","2","1","2","4","4","2","781469725959131138","路","130","","","","","","","","","","","","","","","","","","","true","11","1","moral","614","self","本人的","","","","","","","","","","","","","","","","",""
"null","","null","html-keyboard-response","29","274390","0.0-6.0-1.0-2.0-0.10","4","3","4","3","3","3","3","3","3","4","4","4","2","3","4","4","4","4","4","5","4","4","4","2","4","4","2","2","1","1","0","1","1","0","0","1","1","0","1","1","0","1","0","1","5","4","4","2","2","2","1","2","4","4","2","781469725959131138","路","130","","","","","","","","","","","","","","","","","","","","","","","","","","","","","","","","","","","","","","","","","",""
"726","<p style=""color:rgb(150, 250, 100); font-size: 35px;"">别人的</p>","e","categorize-html","30","275118","0.0-6.0-1.0-2.0-1.10","4","3","4","3","3","3","3","3","3","4","4","4","2","3","4","4","4","4","4","5","4","4","4","2","4","4","2","2","1","1","0","1","1","0","0","1","1","0","1","1","0","1","0","1","5","4","4","2","2","2","1","2","4","4","2","781469725959131138","路","130","","","","","","","","","","","","","","","","","","","true","11","1","moral","726","other","别人的","","","","","","","","","","","","","","","","",""
"null","","null","html-keyboard-response","31","275369","0.0-6.0-1.0-2.0-0.11","4","3","4","3","3","3","3","3","3","4","4","4","2","3","4","4","4","4","4","5","4","4","4","2","4","4","2","2","1","1","0","1","1","0","0","1","1","0","1","1","0","1","0","1","5","4","4","2","2","2","1","2","4","4","2","781469725959131138","路","130","","","","","","","","","","","","","","","","","","","","","","","","","","","","","","","","","","","","","","","","","",""
"642","<p style=""color:rgb(150, 250, 100); font-size: 35px;"">我</p>","i","categorize-html","32","276013","0.0-6.0-1.0-2.0-1.11","4","3","4","3","3","3","3","3","3","4","4","4","2","3","4","4","4","4","4","5","4","4","4","2","4","4","2","2","1","1","0","1","1","0","0","1","1","0","1","1","0","1","0","1","5","4","4","2","2","2","1","2","4","4","2","781469725959131138","路","130","","","","","","","","","","","","","","","","","","","true","11","1","moral","642","self","我","","","","","","","","","","","","","","","","",""
"17372","
    <div class=""tag-bottom""><p>
    —— 任务2：对“积极”词和“消极”词分类 ——<p/>   
    <span style=""color:#78DCE8""><b>注意上方，类别标签和需要分类的词语都已经改变</b></span><p/>
    <span style=""color:#FFD866""><b>请根据上方标签的提示，尽可能正确并且快速地做出按键反应</b></span><p/>
    当按键错误时屏幕中会出现<span style=""color:red""> X </span>，需要按另一个键纠正才能继续<br/><p/>
    请把双手食指分别放在键盘的“E”键和“I”键上<p/>
    按<空格键>开始
    </p></div>"," ","html-keyboard-response","33","293387","0.0-6.0-1.0-3.0","4","3","4","3","3","3","3","3","3","4","4","4","2","3","4","4","4","4","4","5","4","4","4","2","4","4","2","2","1","1","0","1","1","0","0","1","1","0","1","1","0","1","0","1","5","4","4","2","2","2","1","2","4","4","2","781469725959131138","路","130","","","","","","","","","","","","","","","","","","","","","","","","","","","","","","","","","","","","","","","","","",""
"null","","null","html-keyboard-response","34","293638","0.0-6.0-1.0-4.0-0.0","4","3","4","3","3","3","3","3","3","4","4","4","2","3","4","4","4","4","4","5","4","4","4","2","4","4","2","2","1","1","0","1","1","0","0","1","1","0","1","1","0","1","0","1","5","4","4","2","2","2","1","2","4","4","2","781469725959131138","路","130","","","","","","","","","","","","","","","","","","","","","","","","","","","","","","","","","","","","","","","","","",""
"1541","<p style=""color:white; font-size: 35px;"">正直</p>","e","categorize-html","35","295182","0.0-6.0-1.0-4.0-1.0","4","3","4","3","3","3","3","3","3","4","4","4","2","3","4","4","4","4","4","5","4","4","4","2","4","4","2","2","1","1","0","1","1","0","0","1","1","0","1","1","0","1","0","1","5","4","4","2","2","2","1","2","4","4","2","781469725959131138","路","130","","","","","","","","","","","","","","","","","","","true","12","2","moral","1541","positive","正直","","","","","","","","","","","","","","","","",""
"null","","null","html-keyboard-response","36","295441","0.0-6.0-1.0-4.0-0.1","4","3","4","3","3","3","3","3","3","4","4","4","2","3","4","4","4","4","4","5","4","4","4","2","4","4","2","2","1","1","0","1","1","0","0","1","1","0","1","1","0","1","0","1","5","4","4","2","2","2","1","2","4","4","2","781469725959131138","路","130","","","","","","","","","","","","","","","","","","","","","","","","","","","","","","","","","","","","","","","","","",""
"802","<p style=""color:white; font-size: 35px;"">黑心</p>","i","categorize-html","37","296248","0.0-6.0-1.0-4.0-1.1","4","3","4","3","3","3","3","3","3","4","4","4","2","3","4","4","4","4","4","5","4","4","4","2","4","4","2","2","1","1","0","1","1","0","0","1","1","0","1","1","0","1","0","1","5","4","4","2","2","2","1","2","4","4","2","781469725959131138","路","130","","","","","","","","","","","","","","","","","","","true","12","2","moral","802","negative","黑心","","","","","","","","","","","","","","","","",""
"null","","null","html-keyboard-response","38","296500","0.0-6.0-1.0-4.0-0.2","4","3","4","3","3","3","3","3","3","4","4","4","2","3","4","4","4","4","4","5","4","4","4","2","4","4","2","2","1","1","0","1","1","0","0","1","1","0","1","1","0","1","0","1","5","4","4","2","2","2","1","2","4","4","2","781469725959131138","路","130","","","","","","","","","","","","","","","","","","","","","","","","","","","","","","","","","","","","","","","","","",""
"1148","<p style=""color:white; font-size: 35px;"">小人</p>","i","categorize-html","39","297650","0.0-6.0-1.0-4.0-1.2","4","3","4","3","3","3","3","3","3","4","4","4","2","3","4","4","4","4","4","5","4","4","4","2","4","4","2","2","1","1","0","1","1","0","0","1","1","0","1","1","0","1","0","1","5","4","4","2","2","2","1","2","4","4","2","781469725959131138","路","130","","","","","","","","","","","","","","","","","","","true","12","2","moral","1148","negative","小人","","","","","","","","","","","","","","","","",""
"null","","null","html-keyboard-response","40","297902","0.0-6.0-1.0-4.0-0.3","4","3","4","3","3","3","3","3","3","4","4","4","2","3","4","4","4","4","4","5","4","4","4","2","4","4","2","2","1","1","0","1","1","0","0","1","1","0","1","1","0","1","0","1","5","4","4","2","2","2","1","2","4","4","2","781469725959131138","路","130","","","","","","","","","","","","","","","","","","","","","","","","","","","","","","","","","","","","","","","","","",""
"620","<p style=""color:white; font-size: 35px;"">不仁</p>","i","categorize-html","41","298523","0.0-6.0-1.0-4.0-1.3","4","3","4","3","3","3","3","3","3","4","4","4","2","3","4","4","4","4","4","5","4","4","4","2","4","4","2","2","1","1","0","1","1","0","0","1","1","0","1","1","0","1","0","1","5","4","4","2","2","2","1","2","4","4","2","781469725959131138","路","130","","","","","","","","","","","","","","","","","","","true","12","2","moral","620","negative","不仁","","","","","","","","","","","","","","","","",""
"null","","null","html-keyboard-response","42","298775","0.0-6.0-1.0-4.0-0.4","4","3","4","3","3","3","3","3","3","4","4","4","2","3","4","4","4","4","4","5","4","4","4","2","4","4","2","2","1","1","0","1","1","0","0","1","1","0","1","1","0","1","0","1","5","4","4","2","2","2","1","2","4","4","2","781469725959131138","路","130","","","","","","","","","","","","","","","","","","","","","","","","","","","","","","","","","","","","","","","","","",""
"621","<p style=""color:white; font-size: 35px;"">君子</p>","e","categorize-html","43","299398","0.0-6.0-1.0-4.0-1.4","4","3","4","3","3","3","3","3","3","4","4","4","2","3","4","4","4","4","4","5","4","4","4","2","4","4","2","2","1","1","0","1","1","0","0","1","1","0","1","1","0","1","0","1","5","4","4","2","2","2","1","2","4","4","2","781469725959131138","路","130","","","","","","","","","","","","","","","","","","","true","12","2","moral","621","positive","君子","","","","","","","","","","","","","","","","",""
"null","","null","html-keyboard-response","44","299650","0.0-6.0-1.0-4.0-0.5","4","3","4","3","3","3","3","3","3","4","4","4","2","3","4","4","4","4","4","5","4","4","4","2","4","4","2","2","1","1","0","1","1","0","0","1","1","0","1","1","0","1","0","1","5","4","4","2","2","2","1","2","4","4","2","781469725959131138","路","130","","","","","","","","","","","","","","","","","","","","","","","","","","","","","","","","","","","","","","","","","",""
"940","<p style=""color:white; font-size: 35px;"">善良</p>","e","categorize-html","45","300591","0.0-6.0-1.0-4.0-1.5","4","3","4","3","3","3","3","3","3","4","4","4","2","3","4","4","4","4","4","5","4","4","4","2","4","4","2","2","1","1","0","1","1","0","0","1","1","0","1","1","0","1","0","1","5","4","4","2","2","2","1","2","4","4","2","781469725959131138","路","130","","","","","","","","","","","","","","","","","","","true","12","2","moral","940","positive","善良","","","","","","","","","","","","","","","","",""
"null","","null","html-keyboard-response","46","300842","0.0-6.0-1.0-4.0-0.6","4","3","4","3","3","3","3","3","3","4","4","4","2","3","4","4","4","4","4","5","4","4","4","2","4","4","2","2","1","1","0","1","1","0","0","1","1","0","1","1","0","1","0","1","5","4","4","2","2","2","1","2","4","4","2","781469725959131138","路","130","","","","","","","","","","","","","","","","","","","","","","","","","","","","","","","","","","","","","","","","","",""
"916","<p style=""color:white; font-size: 35px;"">不孝</p>","i","categorize-html","47","301760","0.0-6.0-1.0-4.0-1.6","4","3","4","3","3","3","3","3","3","4","4","4","2","3","4","4","4","4","4","5","4","4","4","2","4","4","2","2","1","1","0","1","1","0","0","1","1","0","1","1","0","1","0","1","5","4","4","2","2","2","1","2","4","4","2","781469725959131138","路","130","","","","","","","","","","","","","","","","","","","true","12","2","moral","916","negative","不孝","","","","","","","","","","","","","","","","",""
"null","","null","html-keyboard-response","48","302012","0.0-6.0-1.0-4.0-0.7","4","3","4","3","3","3","3","3","3","4","4","4","2","3","4","4","4","4","4","5","4","4","4","2","4","4","2","2","1","1","0","1","1","0","0","1","1","0","1","1","0","1","0","1","5","4","4","2","2","2","1","2","4","4","2","781469725959131138","路","130","","","","","","","","","","","","","","","","","","","","","","","","","","","","","","","","","","","","","","","","","",""
"526","<p style=""color:white; font-size: 35px;"">卑鄙</p>","i","categorize-html","49","302540","0.0-6.0-1.0-4.0-1.7","4","3","4","3","3","3","3","3","3","4","4","4","2","3","4","4","4","4","4","5","4","4","4","2","4","4","2","2","1","1","0","1","1","0","0","1","1","0","1","1","0","1","0","1","5","4","4","2","2","2","1","2","4","4","2","781469725959131138","路","130","","","","","","","","","","","","","","","","","","","true","12","2","moral","526","negative","卑鄙","","","","","","","","","","","","","","","","",""
"null","","null","html-keyboard-response","50","302791","0.0-6.0-1.0-4.0-0.8","4","3","4","3","3","3","3","3","3","4","4","4","2","3","4","4","4","4","4","5","4","4","4","2","4","4","2","2","1","1","0","1","1","0","0","1","1","0","1","1","0","1","0","1","5","4","4","2","2","2","1","2","4","4","2","781469725959131138","路","130","","","","","","","","","","","","","","","","","","","","","","","","","","","","","","","","","","","","","","","","","",""
"527","<p style=""color:white; font-size: 35px;"">缺德</p>","i","categorize-html","51","303320","0.0-6.0-1.0-4.0-1.8","4","3","4","3","3","3","3","3","3","4","4","4","2","3","4","4","4","4","4","5","4","4","4","2","4","4","2","2","1","1","0","1","1","0","0","1","1","0","1","1","0","1","0","1","5","4","4","2","2","2","1","2","4","4","2","781469725959131138","路","130","","","","","","","","","","","","","","","","","","","true","12","2","moral","527","negative","缺德","","","","","","","","","","","","","","","","",""
"null","","null","html-keyboard-response","52","303572","0.0-6.0-1.0-4.0-0.9","4","3","4","3","3","3","3","3","3","4","4","4","2","3","4","4","4","4","4","5","4","4","4","2","4","4","2","2","1","1","0","1","1","0","0","1","1","0","1","1","0","1","0","1","5","4","4","2","2","2","1","2","4","4","2","781469725959131138","路","130","","","","","","","","","","","","","","","","","","","","","","","","","","","","","","","","","","","","","","","","","",""
"652","<p style=""color:white; font-size: 35px;"">诚信</p>","e","categorize-html","53","304229","0.0-6.0-1.0-4.0-1.9","4","3","4","3","3","3","3","3","3","4","4","4","2","3","4","4","4","4","4","5","4","4","4","2","4","4","2","2","1","1","0","1","1","0","0","1","1","0","1","1","0","1","0","1","5","4","4","2","2","2","1","2","4","4","2","781469725959131138","路","130","","","","","","","","","","","","","","","","","","","true","12","2","moral","652","positive","诚信","","","","","","","","","","","","","","","","",""
"null","","null","html-keyboard-response","54","304480","0.0-6.0-1.0-4.0-0.10","4","3","4","3","3","3","3","3","3","4","4","4","2","3","4","4","4","4","4","5","4","4","4","2","4","4","2","2","1","1","0","1","1","0","0","1","1","0","1","1","0","1","0","1","5","4","4","2","2","2","1","2","4","4","2","781469725959131138","路","130","","","","","","","","","","","","","","","","","","","","","","","","","","","","","","","","","","","","","","","","","",""
"630","<p style=""color:white; font-size: 35px;"">廉正</p>","e","categorize-html","55","305112","0.0-6.0-1.0-4.0-1.10","4","3","4","3","3","3","3","3","3","4","4","4","2","3","4","4","4","4","4","5","4","4","4","2","4","4","2","2","1","1","0","1","1","0","0","1","1","0","1","1","0","1","0","1","5","4","4","2","2","2","1","2","4","4","2","781469725959131138","路","130","","","","","","","","","","","","","","","","","","","true","12","2","moral","630","positive","廉正","","","","","","","","","","","","","","","","",""
"null","","null","html-keyboard-response","56","305363","0.0-6.0-1.0-4.0-0.11","4","3","4","3","3","3","3","3","3","4","4","4","2","3","4","4","4","4","4","5","4","4","4","2","4","4","2","2","1","1","0","1","1","0","0","1","1","0","1","1","0","1","0","1","5","4","4","2","2","2","1","2","4","4","2","781469725959131138","路","130","","","","","","","","","","","","","","","","","","","","","","","","","","","","","","","","","","","","","","","","","",""
"643","<p style=""color:white; font-size: 35px;"">高尚</p>","e","categorize-html","57","306012","0.0-6.0-1.0-4.0-1.11","4","3","4","3","3","3","3","3","3","4","4","4","2","3","4","4","4","4","4","5","4","4","4","2","4","4","2","2","1","1","0","1","1","0","0","1","1","0","1","1","0","1","0","1","5","4","4","2","2","2","1","2","4","4","2","781469725959131138","路","130","","","","","","","","","","","","","","","","","","","true","12","2","moral","643","positive","高尚","","","","","","","","","","","","","","","","",""
"5890","
    <div class=""tag-bottom""><p>
    —— 任务3：对“他人/积极”词和“自我/消极”词分类 ——<p/>
    <span style=""color:#78DCE8""><b>注意上方，之前的四类词语将混合在一起交替呈现</b></span><p/>
    <span style=""color:#FFD866""><b>请根据上方标签的提示，尽可能正确并且快速地做出按键反应</b></span><p/>
    当按键错误时屏幕中会出现<span style=""color:red""> X </span>，需要按另一个键纠正才能继续<br/><p/>
    请把双手食指分别放在键盘的“E”键和“I”键上<p/>
    按<空格键>开始
    </p></div>"," ","html-keyboard-response","58","311903","0.0-6.0-1.0-5.0","4","3","4","3","3","3","3","3","3","4","4","4","2","3","4","4","4","4","4","5","4","4","4","2","4","4","2","2","1","1","0","1","1","0","0","1","1","0","1","1","0","1","0","1","5","4","4","2","2","2","1","2","4","4","2","781469725959131138","路","130","","","","","","","","","","","","","","","","","","","","","","","","","","","","","","","","","","","","","","","","","",""
"null","","null","html-keyboard-response","59","312155","0.0-6.0-1.0-6.0-0.0","4","3","4","3","3","3","3","3","3","4","4","4","2","3","4","4","4","4","4","5","4","4","4","2","4","4","2","2","1","1","0","1","1","0","0","1","1","0","1","1","0","1","0","1","5","4","4","2","2","2","1","2","4","4","2","781469725959131138","路","130","","","","","","","","","","","","","","","","","","","","","","","","","","","","","","","","","","","","","","","","","",""
"775","<p style=""color:rgb(150, 250, 100); font-size: 35px;"">他人的</p>","e","categorize-html","60","312933","0.0-6.0-1.0-6.0-1.0","4","3","4","3","3","3","3","3","3","4","4","4","2","3","4","4","4","4","4","5","4","4","4","2","4","4","2","2","1","1","0","1","1","0","0","1","1","0","1","1","0","1","0","1","5","4","4","2","2","2","1","2","4","4","2","781469725959131138","路","130","","","","","","","","","","","","","","","","","","","true","13","3","moral","775","other","他人的","","","","","","","","","","","","","","","","",""
"null","","null","html-keyboard-response","61","313184","0.0-6.0-1.0-6.0-0.1","4","3","4","3","3","3","3","3","3","4","4","4","2","3","4","4","4","4","4","5","4","4","4","2","4","4","2","2","1","1","0","1","1","0","0","1","1","0","1","1","0","1","0","1","5","4","4","2","2","2","1","2","4","4","2","781469725959131138","路","130","","","","","","","","","","","","","","","","","","","","","","","","","","","","","","","","","","","","","","","","","",""
"1400","<p style=""color:white; font-size: 35px;"">不孝</p>","i","categorize-html","62","314586","0.0-6.0-1.0-6.0-1.1","4","3","4","3","3","3","3","3","3","4","4","4","2","3","4","4","4","4","4","5","4","4","4","2","4","4","2","2","1","1","0","1","1","0","0","1","1","0","1","1","0","1","0","1","5","4","4","2","2","2","1","2","4","4","2","781469725959131138","路","130","","","","","","","","","","","","","","","","","","","true","13","3","moral","1400","negative","不孝","","","","","","","","","","","","","","","","",""
"null","","null","html-keyboard-response","63","314837","0.0-6.0-1.0-6.0-0.2","4","3","4","3","3","3","3","3","3","4","4","4","2","3","4","4","4","4","4","5","4","4","4","2","4","4","2","2","1","1","0","1","1","0","0","1","1","0","1","1","0","1","0","1","5","4","4","2","2","2","1","2","4","4","2","781469725959131138","路","130","","","","","","","","","","","","","","","","","","","","","","","","","","","","","","","","","","","","","","","","","",""
"1083","<p style=""color:rgb(150, 250, 100); font-size: 35px;"">我</p>","i","categorize-html","64","315923","0.0-6.0-1.0-6.0-1.2","4","3","4","3","3","3","3","3","3","4","4","4","2","3","4","4","4","4","4","5","4","4","4","2","4","4","2","2","1","1","0","1","1","0","0","1","1","0","1","1","0","1","0","1","5","4","4","2","2","2","1","2","4","4","2","781469725959131138","路","130","","","","","","","","","","","","","","","","","","","true","13","3","moral","1083","self","我","","","","","","","","","","","","","","","","",""
"null","","null","html-keyboard-response","65","316174","0.0-6.0-1.0-6.0-0.3","4","3","4","3","3","3","3","3","3","4","4","4","2","3","4","4","4","4","4","5","4","4","4","2","4","4","2","2","1","1","0","1","1","0","0","1","1","0","1","1","0","1","0","1","5","4","4","2","2","2","1","2","4","4","2","781469725959131138","路","130","","","","","","","","","","","","","","","","","","","","","","","","","","","","","","","","","","","","","","","","","",""
"1439","<p style=""color:white; font-size: 35px;"">善良</p>","e","categorize-html","66","317618","0.0-6.0-1.0-6.0-1.3","4","3","4","3","3","3","3","3","3","4","4","4","2","3","4","4","4","4","4","5","4","4","4","2","4","4","2","2","1","1","0","1","1","0","0","1","1","0","1","1","0","1","0","1","5","4","4","2","2","2","1","2","4","4","2","781469725959131138","路","130","","","","","","","","","","","","","","","","","","","true","13","3","moral","1439","positive","善良","","","","","","","","","","","","","","","","",""
"null","","null","html-keyboard-response","67","317869","0.0-6.0-1.0-6.0-0.4","4","3","4","3","3","3","3","3","3","4","4","4","2","3","4","4","4","4","4","5","4","4","4","2","4","4","2","2","1","1","0","1","1","0","0","1","1","0","1","1","0","1","0","1","5","4","4","2","2","2","1","2","4","4","2","781469725959131138","路","130","","","","","","","","","","","","","","","","","","","","","","","","","","","","","","","","","","","","","","","","","",""
"1056","<p style=""color:rgb(150, 250, 100); font-size: 35px;"">别人的</p>","e","categorize-html","68","318927","0.0-6.0-1.0-6.0-1.4","4","3","4","3","3","3","3","3","3","4","4","4","2","3","4","4","4","4","4","5","4","4","4","2","4","4","2","2","1","1","0","1","1","0","0","1","1","0","1","1","0","1","0","1","5","4","4","2","2","2","1","2","4","4","2","781469725959131138","路","130","","","","","","","","","","","","","","","","","","","true","13","3","moral","1056","other","别人的","","","","","","","","","","","","","","","","",""
"null","","null","html-keyboard-response","69","319178","0.0-6.0-1.0-6.0-0.5","4","3","4","3","3","3","3","3","3","4","4","4","2","3","4","4","4","4","4","5","4","4","4","2","4","4","2","2","1","1","0","1","1","0","0","1","1","0","1","1","0","1","0","1","5","4","4","2","2","2","1","2","4","4","2","781469725959131138","路","130","","","","","","","","","","","","","","","","","","","","","","","","","","","","","","","","","","","","","","","","","",""
"1141","<p style=""color:white; font-size: 35px;"">高尚</p>","e","categorize-html","70","320324","0.0-6.0-1.0-6.0-1.5","4","3","4","3","3","3","3","3","3","4","4","4","2","3","4","4","4","4","4","5","4","4","4","2","4","4","2","2","1","1","0","1","1","0","0","1","1","0","1","1","0","1","0","1","5","4","4","2","2","2","1","2","4","4","2","781469725959131138","路","130","","","","","","","","","","","","","","","","","","","true","13","3","moral","1141","positive","高尚","","","","","","","","","","","","","","","","",""
"null","","null","html-keyboard-response","71","320576","0.0-6.0-1.0-6.0-0.6","4","3","4","3","3","3","3","3","3","4","4","4","2","3","4","4","4","4","4","5","4","4","4","2","4","4","2","2","1","1","0","1","1","0","0","1","1","0","1","1","0","1","0","1","5","4","4","2","2","2","1","2","4","4","2","781469725959131138","路","130","","","","","","","","","","","","","","","","","","","","","","","","","","","","","","","","","","","","","","","","","",""
"1376","<p style=""color:rgb(150, 250, 100); font-size: 35px;"">自己</p>","i","categorize-html","72","321958","0.0-6.0-1.0-6.0-1.6","4","3","4","3","3","3","3","3","3","4","4","4","2","3","4","4","4","4","4","5","4","4","4","2","4","4","2","2","1","1","0","1","1","0","0","1","1","0","1","1","0","1","0","1","5","4","4","2","2","2","1","2","4","4","2","781469725959131138","路","130","","","","","","","","","","","","","","","","","","","true","13","3","moral","1376","self","自己","","","","","","","","","","","","","","","","",""
"null","","null","html-keyboard-response","73","322209","0.0-6.0-1.0-6.0-0.7","4","3","4","3","3","3","3","3","3","4","4","4","2","3","4","4","4","4","4","5","4","4","4","2","4","4","2","2","1","1","0","1","1","0","0","1","1","0","1","1","0","1","0","1","5","4","4","2","2","2","1","2","4","4","2","781469725959131138","路","130","","","","","","","","","","","","","","","","","","","","","","","","","","","","","","","","","","","","","","","","","",""
"1091","<p style=""color:white; font-size: 35px;"">缺德</p>","i","categorize-html","74","323301","0.0-6.0-1.0-6.0-1.7","4","3","4","3","3","3","3","3","3","4","4","4","2","3","4","4","4","4","4","5","4","4","4","2","4","4","2","2","1","1","0","1","1","0","0","1","1","0","1","1","0","1","0","1","5","4","4","2","2","2","1","2","4","4","2","781469725959131138","路","130","","","","","","","","","","","","","","","","","","","true","13","3","moral","1091","negative","缺德","","","","","","","","","","","","","","","","",""
"null","","null","html-keyboard-response","75","323553","0.0-6.0-1.0-6.0-0.8","4","3","4","3","3","3","3","3","3","4","4","4","2","3","4","4","4","4","4","5","4","4","4","2","4","4","2","2","1","1","0","1","1","0","0","1","1","0","1","1","0","1","0","1","5","4","4","2","2","2","1","2","4","4","2","781469725959131138","路","130","","","","","","","","","","","","","","","","","","","","","","","","","","","","","","","","","","","","","","","","","",""
"963","<p style=""color:rgb(150, 250, 100); font-size: 35px;"">他的</p>","e","categorize-html","76","324518","0.0-6.0-1.0-6.0-1.8","4","3","4","3","3","3","3","3","3","4","4","4","2","3","4","4","4","4","4","5","4","4","4","2","4","4","2","2","1","1","0","1","1","0","0","1","1","0","1","1","0","1","0","1","5","4","4","2","2","2","1","2","4","4","2","781469725959131138","路","130","","","","","","","","","","","","","","","","","","","true","13","3","moral","963","other","他的","","","","","","","","","","","","","","","","",""
"null","","null","html-keyboard-response","77","324769","0.0-6.0-1.0-6.0-0.9","4","3","4","3","3","3","3","3","3","4","4","4","2","3","4","4","4","4","4","5","4","4","4","2","4","4","2","2","1","1","0","1","1","0","0","1","1","0","1","1","0","1","0","1","5","4","4","2","2","2","1","2","4","4","2","781469725959131138","路","130","","","","","","","","","","","","","","","","","","","","","","","","","","","","","","","","","","","","","","","","","",""
"584","<p style=""color:white; font-size: 35px;"">诚信</p>","e","categorize-html","78","325358","0.0-6.0-1.0-6.0-1.9","4","3","4","3","3","3","3","3","3","4","4","4","2","3","4","4","4","4","4","5","4","4","4","2","4","4","2","2","1","1","0","1","1","0","0","1","1","0","1","1","0","1","0","1","5","4","4","2","2","2","1","2","4","4","2","781469725959131138","路","130","","","","","","","","","","","","","","","","","","","true","13","3","moral","584","positive","诚信","","","","","","","","","","","","","","","","",""
"null","","null","html-keyboard-response","79","325610","0.0-6.0-1.0-6.0-0.10","4","3","4","3","3","3","3","3","3","4","4","4","2","3","4","4","4","4","4","5","4","4","4","2","4","4","2","2","1","1","0","1","1","0","0","1","1","0","1","1","0","1","0","1","5","4","4","2","2","2","1","2","4","4","2","781469725959131138","路","130","","","","","","","","","","","","","","","","","","","","","","","","","","","","","","","","","","","","","","","","","",""
"1163","<p style=""color:rgb(150, 250, 100); font-size: 35px;"">本人的</p>","i","categorize-html","80","326775","0.0-6.0-1.0-6.0-1.10","4","3","4","3","3","3","3","3","3","4","4","4","2","3","4","4","4","4","4","5","4","4","4","2","4","4","2","2","1","1","0","1","1","0","0","1","1","0","1","1","0","1","0","1","5","4","4","2","2","2","1","2","4","4","2","781469725959131138","路","130","","","","","","","","","","","","","","","","","","","true","13","3","moral","1163","self","本人的","","","","","","","","","","","","","","","","",""
"null","","null","html-keyboard-response","81","327027","0.0-6.0-1.0-6.0-0.11","4","3","4","3","3","3","3","3","3","4","4","4","2","3","4","4","4","4","4","5","4","4","4","2","4","4","2","2","1","1","0","1","1","0","0","1","1","0","1","1","0","1","0","1","5","4","4","2","2","2","1","2","4","4","2","781469725959131138","路","130","","","","","","","","","","","","","","","","","","","","","","","","","","","","","","","","","","","","","","","","","",""
"575","<p style=""color:white; font-size: 35px;"">卑鄙</p>","i","categorize-html","82","327604","0.0-6.0-1.0-6.0-1.11","4","3","4","3","3","3","3","3","3","4","4","4","2","3","4","4","4","4","4","5","4","4","4","2","4","4","2","2","1","1","0","1","1","0","0","1","1","0","1","1","0","1","0","1","5","4","4","2","2","2","1","2","4","4","2","781469725959131138","路","130","","","","","","","","","","","","","","","","","","","true","13","3","moral","575","negative","卑鄙","","","","","","","","","","","","","","","","",""
"null","","null","html-keyboard-response","83","327856","0.0-6.0-1.0-6.0-0.12","4","3","4","3","3","3","3","3","3","4","4","4","2","3","4","4","4","4","4","5","4","4","4","2","4","4","2","2","1","1","0","1","1","0","0","1","1","0","1","1","0","1","0","1","5","4","4","2","2","2","1","2","4","4","2","781469725959131138","路","130","","","","","","","","","","","","","","","","","","","","","","","","","","","","","","","","","","","","","","","","","",""
"642","<p style=""color:rgb(150, 250, 100); font-size: 35px;"">本人</p>","i","categorize-html","84","328501","0.0-6.0-1.0-6.0-1.12","4","3","4","3","3","3","3","3","3","4","4","4","2","3","4","4","4","4","4","5","4","4","4","2","4","4","2","2","1","1","0","1","1","0","0","1","1","0","1","1","0","1","0","1","5","4","4","2","2","2","1","2","4","4","2","781469725959131138","路","130","","","","","","","","","","","","","","","","","","","true","13","3","moral","642","self","本人","","","","","","","","","","","","","","","","",""
"null","","null","html-keyboard-response","85","328752","0.0-6.0-1.0-6.0-0.13","4","3","4","3","3","3","3","3","3","4","4","4","2","3","4","4","4","4","4","5","4","4","4","2","4","4","2","2","1","1","0","1","1","0","0","1","1","0","1","1","0","1","0","1","5","4","4","2","2","2","1","2","4","4","2","781469725959131138","路","130","","","","","","","","","","","","","","","","","","","","","","","","","","","","","","","","","","","","","","","","","",""
"612","<p style=""color:white; font-size: 35px;"">正直</p>","e","categorize-html","86","329369","0.0-6.0-1.0-6.0-1.13","4","3","4","3","3","3","3","3","3","4","4","4","2","3","4","4","4","4","4","5","4","4","4","2","4","4","2","2","1","1","0","1","1","0","0","1","1","0","1","1","0","1","0","1","5","4","4","2","2","2","1","2","4","4","2","781469725959131138","路","130","","","","","","","","","","","","","","","","","","","true","13","3","moral","612","positive","正直","","","","","","","","","","","","","","","","",""
"null","","null","html-keyboard-response","87","329620","0.0-6.0-1.0-6.0-0.14","4","3","4","3","3","3","3","3","3","4","4","4","2","3","4","4","4","4","4","5","4","4","4","2","4","4","2","2","1","1","0","1","1","0","0","1","1","0","1","1","0","1","0","1","5","4","4","2","2","2","1","2","4","4","2","781469725959131138","路","130","","","","","","","","","","","","","","","","","","","","","","","","","","","","","","","","","","","","","","","","","",""
"1341","<p style=""color:rgb(150, 250, 100); font-size: 35px;"">他人</p>","e","categorize-html","88","330963","0.0-6.0-1.0-6.0-1.14","4","3","4","3","3","3","3","3","3","4","4","4","2","3","4","4","4","4","4","5","4","4","4","2","4","4","2","2","1","1","0","1","1","0","0","1","1","0","1","1","0","1","0","1","5","4","4","2","2","2","1","2","4","4","2","781469725959131138","路","130","","","","","","","","","","","","","","","","","","","true","13","3","moral","1341","other","他人","","","","","","","","","","","","","","","","",""
"null","","null","html-keyboard-response","89","331215","0.0-6.0-1.0-6.0-0.15","4","3","4","3","3","3","3","3","3","4","4","4","2","3","4","4","4","4","4","5","4","4","4","2","4","4","2","2","1","1","0","1","1","0","0","1","1","0","1","1","0","1","0","1","5","4","4","2","2","2","1","2","4","4","2","781469725959131138","路","130","","","","","","","","","","","","","","","","","","","","","","","","","","","","","","","","","","","","","","","","","",""
"763","<p style=""color:white; font-size: 35px;"">小人</p>","i","categorize-html","90","331980","0.0-6.0-1.0-6.0-1.15","4","3","4","3","3","3","3","3","3","4","4","4","2","3","4","4","4","4","4","5","4","4","4","2","4","4","2","2","1","1","0","1","1","0","0","1","1","0","1","1","0","1","0","1","5","4","4","2","2","2","1","2","4","4","2","781469725959131138","路","130","","","","","","","","","","","","","","","","","","","true","13","3","moral","763","negative","小人","","","","","","","","","","","","","","","","",""
"null","","null","html-keyboard-response","91","332232","0.0-6.0-1.0-6.0-0.16","4","3","4","3","3","3","3","3","3","4","4","4","2","3","4","4","4","4","4","5","4","4","4","2","4","4","2","2","1","1","0","1","1","0","0","1","1","0","1","1","0","1","0","1","5","4","4","2","2","2","1","2","4","4","2","781469725959131138","路","130","","","","","","","","","","","","","","","","","","","","","","","","","","","","","","","","","","","","","","","","","",""
"1113","<p style=""color:rgb(150, 250, 100); font-size: 35px;"">我的</p>","i","categorize-html","92","333347","0.0-6.0-1.0-6.0-1.16","4","3","4","3","3","3","3","3","3","4","4","4","2","3","4","4","4","4","4","5","4","4","4","2","4","4","2","2","1","1","0","1","1","0","0","1","1","0","1","1","0","1","0","1","5","4","4","2","2","2","1","2","4","4","2","781469725959131138","路","130","","","","","","","","","","","","","","","","","","","true","13","3","moral","1113","self","我的","","","","","","","","","","","","","","","","",""
"null","","null","html-keyboard-response","93","333598","0.0-6.0-1.0-6.0-0.17","4","3","4","3","3","3","3","3","3","4","4","4","2","3","4","4","4","4","4","5","4","4","4","2","4","4","2","2","1","1","0","1","1","0","0","1","1","0","1","1","0","1","0","1","5","4","4","2","2","2","1","2","4","4","2","781469725959131138","路","130","","","","","","","","","","","","","","","","","","","","","","","","","","","","","","","","","","","","","","","","","",""
"756","<p style=""color:white; font-size: 35px;"">黑心</p>","i","categorize-html","94","334356","0.0-6.0-1.0-6.0-1.17","4","3","4","3","3","3","3","3","3","4","4","4","2","3","4","4","4","4","4","5","4","4","4","2","4","4","2","2","1","1","0","1","1","0","0","1","1","0","1","1","0","1","0","1","5","4","4","2","2","2","1","2","4","4","2","781469725959131138","路","130","","","","","","","","","","","","","","","","","","","true","13","3","moral","756","negative","黑心","","","","","","","","","","","","","","","","",""
"null","","null","html-keyboard-response","95","334608","0.0-6.0-1.0-6.0-0.18","4","3","4","3","3","3","3","3","3","4","4","4","2","3","4","4","4","4","4","5","4","4","4","2","4","4","2","2","1","1","0","1","1","0","0","1","1","0","1","1","0","1","0","1","5","4","4","2","2","2","1","2","4","4","2","781469725959131138","路","130","","","","","","","","","","","","","","","","","","","","","","","","","","","","","","","","","","","","","","","","","",""
"1559","<p style=""color:rgb(150, 250, 100); font-size: 35px;"">别人</p>","e","categorize-html","96","336173","0.0-6.0-1.0-6.0-1.18","4","3","4","3","3","3","3","3","3","4","4","4","2","3","4","4","4","4","4","5","4","4","4","2","4","4","2","2","1","1","0","1","1","0","0","1","1","0","1","1","0","1","0","1","5","4","4","2","2","2","1","2","4","4","2","781469725959131138","路","130","","","","","","","","","","","","","","","","","","","true","13","3","moral","1559","other","别人","","","","","","","","","","","","","","","","",""
"null","","null","html-keyboard-response","97","336425","0.0-6.0-1.0-6.0-0.19","4","3","4","3","3","3","3","3","3","4","4","4","2","3","4","4","4","4","4","5","4","4","4","2","4","4","2","2","1","1","0","1","1","0","0","1","1","0","1","1","0","1","0","1","5","4","4","2","2","2","1","2","4","4","2","781469725959131138","路","130","","","","","","","","","","","","","","","","","","","","","","","","","","","","","","","","","","","","","","","","","",""
"942","<p style=""color:white; font-size: 35px;"">廉正</p>","e","categorize-html","98","337369","0.0-6.0-1.0-6.0-1.19","4","3","4","3","3","3","3","3","3","4","4","4","2","3","4","4","4","4","4","5","4","4","4","2","4","4","2","2","1","1","0","1","1","0","0","1","1","0","1","1","0","1","0","1","5","4","4","2","2","2","1","2","4","4","2","781469725959131138","路","130","","","","","","","","","","","","","","","","","","","true","13","3","moral","942","positive","廉正","","","","","","","","","","","","","","","","",""
"null","","null","html-keyboard-response","99","337620","0.0-6.0-1.0-6.0-0.20","4","3","4","3","3","3","3","3","3","4","4","4","2","3","4","4","4","4","4","5","4","4","4","2","4","4","2","2","1","1","0","1","1","0","0","1","1","0","1","1","0","1","0","1","5","4","4","2","2","2","1","2","4","4","2","781469725959131138","路","130","","","","","","","","","","","","","","","","","","","","","","","","","","","","","","","","","","","","","","","","","",""
"669","<p style=""color:rgb(150, 250, 100); font-size: 35px;"">自己的</p>","i","categorize-html","100","338294","0.0-6.0-1.0-6.0-1.20","4","3","4","3","3","3","3","3","3","4","4","4","2","3","4","4","4","4","4","5","4","4","4","2","4","4","2","2","1","1","0","1","1","0","0","1","1","0","1","1","0","1","0","1","5","4","4","2","2","2","1","2","4","4","2","781469725959131138","路","130","","","","","","","","","","","","","","","","","","","true","13","3","moral","669","self","自己的","","","","","","","","","","","","","","","","",""
"null","","null","html-keyboard-response","101","338545","0.0-6.0-1.0-6.0-0.21","4","3","4","3","3","3","3","3","3","4","4","4","2","3","4","4","4","4","4","5","4","4","4","2","4","4","2","2","1","1","0","1","1","0","0","1","1","0","1","1","0","1","0","1","5","4","4","2","2","2","1","2","4","4","2","781469725959131138","路","130","","","","","","","","","","","","","","","","","","","","","","","","","","","","","","","","","","","","","","","","","",""
"819","<p style=""color:white; font-size: 35px;"">君子</p>","e","categorize-html","102","339369","0.0-6.0-1.0-6.0-1.21","4","3","4","3","3","3","3","3","3","4","4","4","2","3","4","4","4","4","4","5","4","4","4","2","4","4","2","2","1","1","0","1","1","0","0","1","1","0","1","1","0","1","0","1","5","4","4","2","2","2","1","2","4","4","2","781469725959131138","路","130","","","","","","","","","","","","","","","","","","","true","13","3","moral","819","positive","君子","","","","","","","","","","","","","","","","",""
"null","","null","html-keyboard-response","103","339621","0.0-6.0-1.0-6.0-0.22","4","3","4","3","3","3","3","3","3","4","4","4","2","3","4","4","4","4","4","5","4","4","4","2","4","4","2","2","1","1","0","1","1","0","0","1","1","0","1","1","0","1","0","1","5","4","4","2","2","2","1","2","4","4","2","781469725959131138","路","130","","","","","","","","","","","","","","","","","","","","","","","","","","","","","","","","","","","","","","","","","",""
"912","<p style=""color:rgb(150, 250, 100); font-size: 35px;"">他</p>","e","categorize-html","104","340534","0.0-6.0-1.0-6.0-1.22","4","3","4","3","3","3","3","3","3","4","4","4","2","3","4","4","4","4","4","5","4","4","4","2","4","4","2","2","1","1","0","1","1","0","0","1","1","0","1","1","0","1","0","1","5","4","4","2","2","2","1","2","4","4","2","781469725959131138","路","130","","","","","","","","","","","","","","","","","","","true","13","3","moral","912","other","他","","","","","","","","","","","","","","","","",""
"null","","null","html-keyboard-response","105","340786","0.0-6.0-1.0-6.0-0.23","4","3","4","3","3","3","3","3","3","4","4","4","2","3","4","4","4","4","4","5","4","4","4","2","4","4","2","2","1","1","0","1","1","0","0","1","1","0","1","1","0","1","0","1","5","4","4","2","2","2","1","2","4","4","2","781469725959131138","路","130","","","","","","","","","","","","","","","","","","","","","","","","","","","","","","","","","","","","","","","","","",""
"786","<p style=""color:white; font-size: 35px;"">不仁</p>","i","categorize-html","106","341574","0.0-6.0-1.0-6.0-1.23","4","3","4","3","3","3","3","3","3","4","4","4","2","3","4","4","4","4","4","5","4","4","4","2","4","4","2","2","1","1","0","1","1","0","0","1","1","0","1","1","0","1","0","1","5","4","4","2","2","2","1","2","4","4","2","781469725959131138","路","130","","","","","","","","","","","","","","","","","","","true","13","3","moral","786","negative","不仁","","","","","","","","","","","","","","","","",""
"13552","
    <div class=""tag-bottom""><p>
    —— 任务4：对“他人/积极”词和“自我/消极”词分类 ——<p/>
    <span style=""color:#78DCE8""><b>与刚才的任务完全相同，请再次对这四类词语分类</b></span><p/>
    <span style=""color:#FFD866""><b>请根据上方标签的提示，尽可能正确并且快速地做出按键反应</b></span><p/>
    当按键错误时屏幕中会出现<span style=""color:red""> X </span>，需要按另一个键纠正才能继续<br/><p/>
    请把双手食指分别放在键盘的“E”键和“I”键上<p/>
    按<空格键>开始
    </p></div>"," ","html-keyboard-response","107","355127","0.0-6.0-1.0-7.0","4","3","4","3","3","3","3","3","3","4","4","4","2","3","4","4","4","4","4","5","4","4","4","2","4","4","2","2","1","1","0","1","1","0","0","1","1","0","1","1","0","1","0","1","5","4","4","2","2","2","1","2","4","4","2","781469725959131138","路","130","","","","","","","","","","","","","","","","","","","","","","","","","","","","","","","","","","","","","","","","","",""
"null","","null","html-keyboard-response","108","355379","0.0-6.0-1.0-8.0-0.0","4","3","4","3","3","3","3","3","3","4","4","4","2","3","4","4","4","4","4","5","4","4","4","2","4","4","2","2","1","1","0","1","1","0","0","1","1","0","1","1","0","1","0","1","5","4","4","2","2","2","1","2","4","4","2","781469725959131138","路","130","","","","","","","","","","","","","","","","","","","","","","","","","","","","","","","","","","","","","","","","","",""
"929","<p style=""color:rgb(150, 250, 100); font-size: 35px;"">本人</p>","i","categorize-html","109","356313","0.0-6.0-1.0-8.0-1.0","4","3","4","3","3","3","3","3","3","4","4","4","2","3","4","4","4","4","4","5","4","4","4","2","4","4","2","2","1","1","0","1","1","0","0","1","1","0","1","1","0","1","0","1","5","4","4","2","2","2","1","2","4","4","2","781469725959131138","路","130","","","","","","","","","","","","","","","","","","","true","14","4","moral","929","self","本人","","","","","","","","","","","","","","","","",""
"null","","null","html-keyboard-response","110","356565","0.0-6.0-1.0-8.0-0.1","4","3","4","3","3","3","3","3","3","4","4","4","2","3","4","4","4","4","4","5","4","4","4","2","4","4","2","2","1","1","0","1","1","0","0","1","1","0","1","1","0","1","0","1","5","4","4","2","2","2","1","2","4","4","2","781469725959131138","路","130","","","","","","","","","","","","","","","","","","","","","","","","","","","","","","","","","","","","","","","","","",""
"864","<p style=""color:white; font-size: 35px;"">正直</p>","e","categorize-html","111","357431","0.0-6.0-1.0-8.0-1.1","4","3","4","3","3","3","3","3","3","4","4","4","2","3","4","4","4","4","4","5","4","4","4","2","4","4","2","2","1","1","0","1","1","0","0","1","1","0","1","1","0","1","0","1","5","4","4","2","2","2","1","2","4","4","2","781469725959131138","路","130","","","","","","","","","","","","","","","","","","","true","14","4","moral","864","positive","正直","","","","","","","","","","","","","","","","",""
"null","","null","html-keyboard-response","112","357683","0.0-6.0-1.0-8.0-0.2","4","3","4","3","3","3","3","3","3","4","4","4","2","3","4","4","4","4","4","5","4","4","4","2","4","4","2","2","1","1","0","1","1","0","0","1","1","0","1","1","0","1","0","1","5","4","4","2","2","2","1","2","4","4","2","781469725959131138","路","130","","","","","","","","","","","","","","","","","","","","","","","","","","","","","","","","","","","","","","","","","",""
"830","<p style=""color:rgb(150, 250, 100); font-size: 35px;"">他</p>","e","categorize-html","113","358515","0.0-6.0-1.0-8.0-1.2","4","3","4","3","3","3","3","3","3","4","4","4","2","3","4","4","4","4","4","5","4","4","4","2","4","4","2","2","1","1","0","1","1","0","0","1","1","0","1","1","0","1","0","1","5","4","4","2","2","2","1","2","4","4","2","781469725959131138","路","130","","","","","","","","","","","","","","","","","","","true","14","4","moral","830","other","他","","","","","","","","","","","","","","","","",""
"null","","null","html-keyboard-response","114","358766","0.0-6.0-1.0-8.0-0.3","4","3","4","3","3","3","3","3","3","4","4","4","2","3","4","4","4","4","4","5","4","4","4","2","4","4","2","2","1","1","0","1","1","0","0","1","1","0","1","1","0","1","0","1","5","4","4","2","2","2","1","2","4","4","2","781469725959131138","路","130","","","","","","","","","","","","","","","","","","","","","","","","","","","","","","","","","","","","","","","","","",""
"621","<p style=""color:white; font-size: 35px;"">黑心</p>","i","categorize-html","115","359392","0.0-6.0-1.0-8.0-1.3","4","3","4","3","3","3","3","3","3","4","4","4","2","3","4","4","4","4","4","5","4","4","4","2","4","4","2","2","1","1","0","1","1","0","0","1","1","0","1","1","0","1","0","1","5","4","4","2","2","2","1","2","4","4","2","781469725959131138","路","130","","","","","","","","","","","","","","","","","","","true","14","4","moral","621","negative","黑心","","","","","","","","","","","","","","","","",""
"null","","null","html-keyboard-response","116","359643","0.0-6.0-1.0-8.0-0.4","4","3","4","3","3","3","3","3","3","4","4","4","2","3","4","4","4","4","4","5","4","4","4","2","4","4","2","2","1","1","0","1","1","0","0","1","1","0","1","1","0","1","0","1","5","4","4","2","2","2","1","2","4","4","2","781469725959131138","路","130","","","","","","","","","","","","","","","","","","","","","","","","","","","","","","","","","","","","","","","","","",""
"648","<p style=""color:rgb(150, 250, 100); font-size: 35px;"">他人</p>","e","categorize-html","117","360293","0.0-6.0-1.0-8.0-1.4","4","3","4","3","3","3","3","3","3","4","4","4","2","3","4","4","4","4","4","5","4","4","4","2","4","4","2","2","1","1","0","1","1","0","0","1","1","0","1","1","0","1","0","1","5","4","4","2","2","2","1","2","4","4","2","781469725959131138","路","130","","","","","","","","","","","","","","","","","","","true","14","4","moral","648","other","他人","","","","","","","","","","","","","","","","",""
"null","","null","html-keyboard-response","118","360544","0.0-6.0-1.0-8.0-0.5","4","3","4","3","3","3","3","3","3","4","4","4","2","3","4","4","4","4","4","5","4","4","4","2","4","4","2","2","1","1","0","1","1","0","0","1","1","0","1","1","0","1","0","1","5","4","4","2","2","2","1","2","4","4","2","781469725959131138","路","130","","","","","","","","","","","","","","","","","","","","","","","","","","","","","","","","","","","","","","","","","",""
"1027","<p style=""color:white; font-size: 35px;"">小人</p>","i","categorize-html","119","361572","0.0-6.0-1.0-8.0-1.5","4","3","4","3","3","3","3","3","3","4","4","4","2","3","4","4","4","4","4","5","4","4","4","2","4","4","2","2","1","1","0","1","1","0","0","1","1","0","1","1","0","1","0","1","5","4","4","2","2","2","1","2","4","4","2","781469725959131138","路","130","","","","","","","","","","","","","","","","","","","true","14","4","moral","1027","negative","小人","","","","","","","","","","","","","","","","",""
"null","","null","html-keyboard-response","120","361823","0.0-6.0-1.0-8.0-0.6","4","3","4","3","3","3","3","3","3","4","4","4","2","3","4","4","4","4","4","5","4","4","4","2","4","4","2","2","1","1","0","1","1","0","0","1","1","0","1","1","0","1","0","1","5","4","4","2","2","2","1","2","4","4","2","781469725959131138","路","130","","","","","","","","","","","","","","","","","","","","","","","","","","","","","","","","","","","","","","","","","",""
"716","<p style=""color:rgb(150, 250, 100); font-size: 35px;"">本人的</p>","i","categorize-html","121","362541","0.0-6.0-1.0-8.0-1.6","4","3","4","3","3","3","3","3","3","4","4","4","2","3","4","4","4","4","4","5","4","4","4","2","4","4","2","2","1","1","0","1","1","0","0","1","1","0","1","1","0","1","0","1","5","4","4","2","2","2","1","2","4","4","2","781469725959131138","路","130","","","","","","","","","","","","","","","","","","","true","14","4","moral","716","self","本人的","","","","","","","","","","","","","","","","",""
"null","","null","html-keyboard-response","122","362792","0.0-6.0-1.0-8.0-0.7","4","3","4","3","3","3","3","3","3","4","4","4","2","3","4","4","4","4","4","5","4","4","4","2","4","4","2","2","1","1","0","1","1","0","0","1","1","0","1","1","0","1","0","1","5","4","4","2","2","2","1","2","4","4","2","781469725959131138","路","130","","","","","","","","","","","","","","","","","","","","","","","","","","","","","","","","","","","","","","","","","",""
"999","<p style=""color:white; font-size: 35px;"">诚信</p>","e","categorize-html","123","363792","0.0-6.0-1.0-8.0-1.7","4","3","4","3","3","3","3","3","3","4","4","4","2","3","4","4","4","4","4","5","4","4","4","2","4","4","2","2","1","1","0","1","1","0","0","1","1","0","1","1","0","1","0","1","5","4","4","2","2","2","1","2","4","4","2","781469725959131138","路","130","","","","","","","","","","","","","","","","","","","true","14","4","moral","999","positive","诚信","","","","","","","","","","","","","","","","",""
"null","","null","html-keyboard-response","124","364043","0.0-6.0-1.0-8.0-0.8","4","3","4","3","3","3","3","3","3","4","4","4","2","3","4","4","4","4","4","5","4","4","4","2","4","4","2","2","1","1","0","1","1","0","0","1","1","0","1","1","0","1","0","1","5","4","4","2","2","2","1","2","4","4","2","781469725959131138","路","130","","","","","","","","","","","","","","","","","","","","","","","","","","","","","","","","","","","","","","","","","",""
"663","<p style=""color:rgb(150, 250, 100); font-size: 35px;"">我的</p>","i","categorize-html","125","364708","0.0-6.0-1.0-8.0-1.8","4","3","4","3","3","3","3","3","3","4","4","4","2","3","4","4","4","4","4","5","4","4","4","2","4","4","2","2","1","1","0","1","1","0","0","1","1","0","1","1","0","1","0","1","5","4","4","2","2","2","1","2","4","4","2","781469725959131138","路","130","","","","","","","","","","","","","","","","","","","true","14","4","moral","663","self","我的","","","","","","","","","","","","","","","","",""
"null","","null","html-keyboard-response","126","364960","0.0-6.0-1.0-8.0-0.9","4","3","4","3","3","3","3","3","3","4","4","4","2","3","4","4","4","4","4","5","4","4","4","2","4","4","2","2","1","1","0","1","1","0","0","1","1","0","1","1","0","1","0","1","5","4","4","2","2","2","1","2","4","4","2","781469725959131138","路","130","","","","","","","","","","","","","","","","","","","","","","","","","","","","","","","","","","","","","","","","","",""
"649","<p style=""color:white; font-size: 35px;"">善良</p>","e","categorize-html","127","365611","0.0-6.0-1.0-8.0-1.9","4","3","4","3","3","3","3","3","3","4","4","4","2","3","4","4","4","4","4","5","4","4","4","2","4","4","2","2","1","1","0","1","1","0","0","1","1","0","1","1","0","1","0","1","5","4","4","2","2","2","1","2","4","4","2","781469725959131138","路","130","","","","","","","","","","","","","","","","","","","true","14","4","moral","649","positive","善良","","","","","","","","","","","","","","","","",""
"null","","null","html-keyboard-response","128","365863","0.0-6.0-1.0-8.0-0.10","4","3","4","3","3","3","3","3","3","4","4","4","2","3","4","4","4","4","4","5","4","4","4","2","4","4","2","2","1","1","0","1","1","0","0","1","1","0","1","1","0","1","0","1","5","4","4","2","2","2","1","2","4","4","2","781469725959131138","路","130","","","","","","","","","","","","","","","","","","","","","","","","","","","","","","","","","","","","","","","","","",""
"1044","<p style=""color:rgb(150, 250, 100); font-size: 35px;"">他的</p>","e","categorize-html","129","366910","0.0-6.0-1.0-8.0-1.10","4","3","4","3","3","3","3","3","3","4","4","4","2","3","4","4","4","4","4","5","4","4","4","2","4","4","2","2","1","1","0","1","1","0","0","1","1","0","1","1","0","1","0","1","5","4","4","2","2","2","1","2","4","4","2","781469725959131138","路","130","","","","","","","","","","","","","","","","","","","true","14","4","moral","1044","other","他的","","","","","","","","","","","","","","","","",""
"null","","null","html-keyboard-response","130","367161","0.0-6.0-1.0-8.0-0.11","4","3","4","3","3","3","3","3","3","4","4","4","2","3","4","4","4","4","4","5","4","4","4","2","4","4","2","2","1","1","0","1","1","0","0","1","1","0","1","1","0","1","0","1","5","4","4","2","2","2","1","2","4","4","2","781469725959131138","路","130","","","","","","","","","","","","","","","","","","","","","","","","","","","","","","","","","","","","","","","","","",""
"1077","<p style=""color:white; font-size: 35px;"">不孝</p>","i","categorize-html","131","368242","0.0-6.0-1.0-8.0-1.11","4","3","4","3","3","3","3","3","3","4","4","4","2","3","4","4","4","4","4","5","4","4","4","2","4","4","2","2","1","1","0","1","1","0","0","1","1","0","1","1","0","1","0","1","5","4","4","2","2","2","1","2","4","4","2","781469725959131138","路","130","","","","","","","","","","","","","","","","","","","true","14","4","moral","1077","negative","不孝","","","","","","","","","","","","","","","","",""
"null","","null","html-keyboard-response","132","368494","0.0-6.0-1.0-8.0-0.12","4","3","4","3","3","3","3","3","3","4","4","4","2","3","4","4","4","4","4","5","4","4","4","2","4","4","2","2","1","1","0","1","1","0","0","1","1","0","1","1","0","1","0","1","5","4","4","2","2","2","1","2","4","4","2","781469725959131138","路","130","","","","","","","","","","","","","","","","","","","","","","","","","","","","","","","","","","","","","","","","","",""
"643","<p style=""color:rgb(150, 250, 100); font-size: 35px;"">自己的</p>","i","categorize-html","133","369140","0.0-6.0-1.0-8.0-1.12","4","3","4","3","3","3","3","3","3","4","4","4","2","3","4","4","4","4","4","5","4","4","4","2","4","4","2","2","1","1","0","1","1","0","0","1","1","0","1","1","0","1","0","1","5","4","4","2","2","2","1","2","4","4","2","781469725959131138","路","130","","","","","","","","","","","","","","","","","","","true","14","4","moral","643","self","自己的","","","","","","","","","","","","","","","","",""
"null","","null","html-keyboard-response","134","369391","0.0-6.0-1.0-8.0-0.13","4","3","4","3","3","3","3","3","3","4","4","4","2","3","4","4","4","4","4","5","4","4","4","2","4","4","2","2","1","1","0","1","1","0","0","1","1","0","1","1","0","1","0","1","5","4","4","2","2","2","1","2","4","4","2","781469725959131138","路","130","","","","","","","","","","","","","","","","","","","","","","","","","","","","","","","","","","","","","","","","","",""
"1360","<p style=""color:white; font-size: 35px;"">缺德</p>","i","categorize-html","135","370753","0.0-6.0-1.0-8.0-1.13","4","3","4","3","3","3","3","3","3","4","4","4","2","3","4","4","4","4","4","5","4","4","4","2","4","4","2","2","1","1","0","1","1","0","0","1","1","0","1","1","0","1","0","1","5","4","4","2","2","2","1","2","4","4","2","781469725959131138","路","130","","","","","","","","","","","","","","","","","","","true","14","4","moral","1360","negative","缺德","","","","","","","","","","","","","","","","",""
"null","","null","html-keyboard-response","136","371005","0.0-6.0-1.0-8.0-0.14","4","3","4","3","3","3","3","3","3","4","4","4","2","3","4","4","4","4","4","5","4","4","4","2","4","4","2","2","1","1","0","1","1","0","0","1","1","0","1","1","0","1","0","1","5","4","4","2","2","2","1","2","4","4","2","781469725959131138","路","130","","","","","","","","","","","","","","","","","","","","","","","","","","","","","","","","","","","","","","","","","",""
"521","<p style=""color:rgb(150, 250, 100); font-size: 35px;"">他</p>","e","categorize-html","137","371528","0.0-6.0-1.0-8.0-1.14","4","3","4","3","3","3","3","3","3","4","4","4","2","3","4","4","4","4","4","5","4","4","4","2","4","4","2","2","1","1","0","1","1","0","0","1","1","0","1","1","0","1","0","1","5","4","4","2","2","2","1","2","4","4","2","781469725959131138","路","130","","","","","","","","","","","","","","","","","","","true","14","4","moral","521","other","他","","","","","","","","","","","","","","","","",""
"null","","null","html-keyboard-response","138","371779","0.0-6.0-1.0-8.0-0.15","4","3","4","3","3","3","3","3","3","4","4","4","2","3","4","4","4","4","4","5","4","4","4","2","4","4","2","2","1","1","0","1","1","0","0","1","1","0","1","1","0","1","0","1","5","4","4","2","2","2","1","2","4","4","2","781469725959131138","路","130","","","","","","","","","","","","","","","","","","","","","","","","","","","","","","","","","","","","","","","","","",""
"686","<p style=""color:white; font-size: 35px;"">诚信</p>","e","categorize-html","139","372467","0.0-6.0-1.0-8.0-1.15","4","3","4","3","3","3","3","3","3","4","4","4","2","3","4","4","4","4","4","5","4","4","4","2","4","4","2","2","1","1","0","1","1","0","0","1","1","0","1","1","0","1","0","1","5","4","4","2","2","2","1","2","4","4","2","781469725959131138","路","130","","","","","","","","","","","","","","","","","","","true","14","4","moral","686","positive","诚信","","","","","","","","","","","","","","","","",""
"null","","null","html-keyboard-response","140","372718","0.0-6.0-1.0-8.0-0.16","4","3","4","3","3","3","3","3","3","4","4","4","2","3","4","4","4","4","4","5","4","4","4","2","4","4","2","2","1","1","0","1","1","0","0","1","1","0","1","1","0","1","0","1","5","4","4","2","2","2","1","2","4","4","2","781469725959131138","路","130","","","","","","","","","","","","","","","","","","","","","","","","","","","","","","","","","","","","","","","","","",""
"562","<p style=""color:rgb(150, 250, 100); font-size: 35px;"">本人的</p>","i","categorize-html","141","373281","0.0-6.0-1.0-8.0-1.16","4","3","4","3","3","3","3","3","3","4","4","4","2","3","4","4","4","4","4","5","4","4","4","2","4","4","2","2","1","1","0","1","1","0","0","1","1","0","1","1","0","1","0","1","5","4","4","2","2","2","1","2","4","4","2","781469725959131138","路","130","","","","","","","","","","","","","","","","","","","true","14","4","moral","562","self","本人的","","","","","","","","","","","","","","","","",""
"null","","null","html-keyboard-response","142","373533","0.0-6.0-1.0-8.0-0.17","4","3","4","3","3","3","3","3","3","4","4","4","2","3","4","4","4","4","4","5","4","4","4","2","4","4","2","2","1","1","0","1","1","0","0","1","1","0","1","1","0","1","0","1","5","4","4","2","2","2","1","2","4","4","2","781469725959131138","路","130","","","","","","","","","","","","","","","","","","","","","","","","","","","","","","","","","","","","","","","","","",""
"1576","<p style=""color:white; font-size: 35px;"">高尚</p>","e","categorize-html","143","375110","0.0-6.0-1.0-8.0-1.17","4","3","4","3","3","3","3","3","3","4","4","4","2","3","4","4","4","4","4","5","4","4","4","2","4","4","2","2","1","1","0","1","1","0","0","1","1","0","1","1","0","1","0","1","5","4","4","2","2","2","1","2","4","4","2","781469725959131138","路","130","","","","","","","","","","","","","","","","","","","true","14","4","moral","1576","positive","高尚","","","","","","","","","","","","","","","","",""
"null","","null","html-keyboard-response","144","375362","0.0-6.0-1.0-8.0-0.18","4","3","4","3","3","3","3","3","3","4","4","4","2","3","4","4","4","4","4","5","4","4","4","2","4","4","2","2","1","1","0","1","1","0","0","1","1","0","1","1","0","1","0","1","5","4","4","2","2","2","1","2","4","4","2","781469725959131138","路","130","","","","","","","","","","","","","","","","","","","","","","","","","","","","","","","","","","","","","","","","","",""
"709","<p style=""color:rgb(150, 250, 100); font-size: 35px;"">他人的</p>","e","categorize-html","145","376074","0.0-6.0-1.0-8.0-1.18","4","3","4","3","3","3","3","3","3","4","4","4","2","3","4","4","4","4","4","5","4","4","4","2","4","4","2","2","1","1","0","1","1","0","0","1","1","0","1","1","0","1","0","1","5","4","4","2","2","2","1","2","4","4","2","781469725959131138","路","130","","","","","","","","","","","","","","","","","","","true","14","4","moral","709","other","他人的","","","","","","","","","","","","","","","","",""
"null","","null","html-keyboard-response","146","376325","0.0-6.0-1.0-8.0-0.19","4","3","4","3","3","3","3","3","3","4","4","4","2","3","4","4","4","4","4","5","4","4","4","2","4","4","2","2","1","1","0","1","1","0","0","1","1","0","1","1","0","1","0","1","5","4","4","2","2","2","1","2","4","4","2","781469725959131138","路","130","","","","","","","","","","","","","","","","","","","","","","","","","","","","","","","","","","","","","","","","","",""
"955","<p style=""color:white; font-size: 35px;"">小人</p>","i","categorize-html","147","377285","0.0-6.0-1.0-8.0-1.19","4","3","4","3","3","3","3","3","3","4","4","4","2","3","4","4","4","4","4","5","4","4","4","2","4","4","2","2","1","1","0","1","1","0","0","1","1","0","1","1","0","1","0","1","5","4","4","2","2","2","1","2","4","4","2","781469725959131138","路","130","","","","","","","","","","","","","","","","","","","true","14","4","moral","955","negative","小人","","","","","","","","","","","","","","","","",""
"null","","null","html-keyboard-response","148","377536","0.0-6.0-1.0-8.0-0.20","4","3","4","3","3","3","3","3","3","4","4","4","2","3","4","4","4","4","4","5","4","4","4","2","4","4","2","2","1","1","0","1","1","0","0","1","1","0","1","1","0","1","0","1","5","4","4","2","2","2","1","2","4","4","2","781469725959131138","路","130","","","","","","","","","","","","","","","","","","","","","","","","","","","","","","","","","","","","","","","","","",""
"561","<p style=""color:rgb(150, 250, 100); font-size: 35px;"">他的</p>","e","categorize-html","149","378099","0.0-6.0-1.0-8.0-1.20","4","3","4","3","3","3","3","3","3","4","4","4","2","3","4","4","4","4","4","5","4","4","4","2","4","4","2","2","1","1","0","1","1","0","0","1","1","0","1","1","0","1","0","1","5","4","4","2","2","2","1","2","4","4","2","781469725959131138","路","130","","","","","","","","","","","","","","","","","","","true","14","4","moral","561","other","他的","","","","","","","","","","","","","","","","",""
"null","","null","html-keyboard-response","150","378351","0.0-6.0-1.0-8.0-0.21","4","3","4","3","3","3","3","3","3","4","4","4","2","3","4","4","4","4","4","5","4","4","4","2","4","4","2","2","1","1","0","1","1","0","0","1","1","0","1","1","0","1","0","1","5","4","4","2","2","2","1","2","4","4","2","781469725959131138","路","130","","","","","","","","","","","","","","","","","","","","","","","","","","","","","","","","","","","","","","","","","",""
"648","<p style=""color:white; font-size: 35px;"">正直</p>","e","categorize-html","151","379001","0.0-6.0-1.0-8.0-1.21","4","3","4","3","3","3","3","3","3","4","4","4","2","3","4","4","4","4","4","5","4","4","4","2","4","4","2","2","1","1","0","1","1","0","0","1","1","0","1","1","0","1","0","1","5","4","4","2","2","2","1","2","4","4","2","781469725959131138","路","130","","","","","","","","","","","","","","","","","","","true","14","4","moral","648","positive","正直","","","","","","","","","","","","","","","","",""
"null","","null","html-keyboard-response","152","379253","0.0-6.0-1.0-8.0-0.22","4","3","4","3","3","3","3","3","3","4","4","4","2","3","4","4","4","4","4","5","4","4","4","2","4","4","2","2","1","1","0","1","1","0","0","1","1","0","1","1","0","1","0","1","5","4","4","2","2","2","1","2","4","4","2","781469725959131138","路","130","","","","","","","","","","","","","","","","","","","","","","","","","","","","","","","","","","","","","","","","","",""
"886","<p style=""color:rgb(150, 250, 100); font-size: 35px;"">本人</p>","i","categorize-html","153","380140","0.0-6.0-1.0-8.0-1.22","4","3","4","3","3","3","3","3","3","4","4","4","2","3","4","4","4","4","4","5","4","4","4","2","4","4","2","2","1","1","0","1","1","0","0","1","1","0","1","1","0","1","0","1","5","4","4","2","2","2","1","2","4","4","2","781469725959131138","路","130","","","","","","","","","","","","","","","","","","","true","14","4","moral","886","self","本人","","","","","","","","","","","","","","","","",""
"null","","null","html-keyboard-response","154","380392","0.0-6.0-1.0-8.0-0.23","4","3","4","3","3","3","3","3","3","4","4","4","2","3","4","4","4","4","4","5","4","4","4","2","4","4","2","2","1","1","0","1","1","0","0","1","1","0","1","1","0","1","0","1","5","4","4","2","2","2","1","2","4","4","2","781469725959131138","路","130","","","","","","","","","","","","","","","","","","","","","","","","","","","","","","","","","","","","","","","","","",""
"526","<p style=""color:white; font-size: 35px;"">卑鄙</p>","i","categorize-html","155","380920","0.0-6.0-1.0-8.0-1.23","4","3","4","3","3","3","3","3","3","4","4","4","2","3","4","4","4","4","4","5","4","4","4","2","4","4","2","2","1","1","0","1","1","0","0","1","1","0","1","1","0","1","0","1","5","4","4","2","2","2","1","2","4","4","2","781469725959131138","路","130","","","","","","","","","","","","","","","","","","","true","14","4","moral","526","negative","卑鄙","","","","","","","","","","","","","","","","",""
"null","","null","html-keyboard-response","156","381171","0.0-6.0-1.0-8.0-0.24","4","3","4","3","3","3","3","3","3","4","4","4","2","3","4","4","4","4","4","5","4","4","4","2","4","4","2","2","1","1","0","1","1","0","0","1","1","0","1","1","0","1","0","1","5","4","4","2","2","2","1","2","4","4","2","781469725959131138","路","130","","","","","","","","","","","","","","","","","","","","","","","","","","","","","","","","","","","","","","","","","",""
"579","<p style=""color:rgb(150, 250, 100); font-size: 35px;"">自己</p>","i","categorize-html","157","381751","0.0-6.0-1.0-8.0-1.24","4","3","4","3","3","3","3","3","3","4","4","4","2","3","4","4","4","4","4","5","4","4","4","2","4","4","2","2","1","1","0","1","1","0","0","1","1","0","1","1","0","1","0","1","5","4","4","2","2","2","1","2","4","4","2","781469725959131138","路","130","","","","","","","","","","","","","","","","","","","true","14","4","moral","579","self","自己","","","","","","","","","","","","","","","","",""
"null","","null","html-keyboard-response","158","382001","0.0-6.0-1.0-8.0-0.25","4","3","4","3","3","3","3","3","3","4","4","4","2","3","4","4","4","4","4","5","4","4","4","2","4","4","2","2","1","1","0","1","1","0","0","1","1","0","1","1","0","1","0","1","5","4","4","2","2","2","1","2","4","4","2","781469725959131138","路","130","","","","","","","","","","","","","","","","","","","","","","","","","","","","","","","","","","","","","","","","","",""
"614","<p style=""color:white; font-size: 35px;"">君子</p>","e","categorize-html","159","382616","0.0-6.0-1.0-8.0-1.25","4","3","4","3","3","3","3","3","3","4","4","4","2","3","4","4","4","4","4","5","4","4","4","2","4","4","2","2","1","1","0","1","1","0","0","1","1","0","1","1","0","1","0","1","5","4","4","2","2","2","1","2","4","4","2","781469725959131138","路","130","","","","","","","","","","","","","","","","","","","true","14","4","moral","614","positive","君子","","","","","","","","","","","","","","","","",""
"null","","null","html-keyboard-response","160","382867","0.0-6.0-1.0-8.0-0.26","4","3","4","3","3","3","3","3","3","4","4","4","2","3","4","4","4","4","4","5","4","4","4","2","4","4","2","2","1","1","0","1","1","0","0","1","1","0","1","1","0","1","0","1","5","4","4","2","2","2","1","2","4","4","2","781469725959131138","路","130","","","","","","","","","","","","","","","","","","","","","","","","","","","","","","","","","","","","","","","","","",""
"1740","<p style=""color:rgb(150, 250, 100); font-size: 35px;"">别人</p>","i","categorize-html","161","385265","0.0-6.0-1.0-8.0-1.26","4","3","4","3","3","3","3","3","3","4","4","4","2","3","4","4","4","4","4","5","4","4","4","2","4","4","2","2","1","1","0","1","1","0","0","1","1","0","1","1","0","1","0","1","5","4","4","2","2","2","1","2","4","4","2","781469725959131138","路","130","","","","","","","","","","","","","","","","","","","false","14","4","moral","1365.148936170213","other","别人","","","","","","","","","","","","","","","","",""
"null","","null","html-keyboard-response","162","385517","0.0-6.0-1.0-8.0-0.27","4","3","4","3","3","3","3","3","3","4","4","4","2","3","4","4","4","4","4","5","4","4","4","2","4","4","2","2","1","1","0","1","1","0","0","1","1","0","1","1","0","1","0","1","5","4","4","2","2","2","1","2","4","4","2","781469725959131138","路","130","","","","","","","","","","","","","","","","","","","","","","","","","","","","","","","","","","","","","","","","","",""
"1040","<p style=""color:white; font-size: 35px;"">缺德</p>","i","categorize-html","163","386558","0.0-6.0-1.0-8.0-1.27","4","3","4","3","3","3","3","3","3","4","4","4","2","3","4","4","4","4","4","5","4","4","4","2","4","4","2","2","1","1","0","1","1","0","0","1","1","0","1","1","0","1","0","1","5","4","4","2","2","2","1","2","4","4","2","781469725959131138","路","130","","","","","","","","","","","","","","","","","","","true","14","4","moral","1040","negative","缺德","","","","","","","","","","","","","","","","",""
"null","","null","html-keyboard-response","164","386809","0.0-6.0-1.0-8.0-0.28","4","3","4","3","3","3","3","3","3","4","4","4","2","3","4","4","4","4","4","5","4","4","4","2","4","4","2","2","1","1","0","1","1","0","0","1","1","0","1","1","0","1","0","1","5","4","4","2","2","2","1","2","4","4","2","781469725959131138","路","130","","","","","","","","","","","","","","","","","","","","","","","","","","","","","","","","","","","","","","","","","",""
"576","<p style=""color:rgb(150, 250, 100); font-size: 35px;"">自己</p>","i","categorize-html","165","387387","0.0-6.0-1.0-8.0-1.28","4","3","4","3","3","3","3","3","3","4","4","4","2","3","4","4","4","4","4","5","4","4","4","2","4","4","2","2","1","1","0","1","1","0","0","1","1","0","1","1","0","1","0","1","5","4","4","2","2","2","1","2","4","4","2","781469725959131138","路","130","","","","","","","","","","","","","","","","","","","true","14","4","moral","576","self","自己","","","","","","","","","","","","","","","","",""
"null","","null","html-keyboard-response","166","387639","0.0-6.0-1.0-8.0-0.29","4","3","4","3","3","3","3","3","3","4","4","4","2","3","4","4","4","4","4","5","4","4","4","2","4","4","2","2","1","1","0","1","1","0","0","1","1","0","1","1","0","1","0","1","5","4","4","2","2","2","1","2","4","4","2","781469725959131138","路","130","","","","","","","","","","","","","","","","","","","","","","","","","","","","","","","","","","","","","","","","","",""
"557","<p style=""color:white; font-size: 35px;"">卑鄙</p>","i","categorize-html","167","388198","0.0-6.0-1.0-8.0-1.29","4","3","4","3","3","3","3","3","3","4","4","4","2","3","4","4","4","4","4","5","4","4","4","2","4","4","2","2","1","1","0","1","1","0","0","1","1","0","1","1","0","1","0","1","5","4","4","2","2","2","1","2","4","4","2","781469725959131138","路","130","","","","","","","","","","","","","","","","","","","true","14","4","moral","557","negative","卑鄙","","","","","","","","","","","","","","","","",""
"null","","null","html-keyboard-response","168","388450","0.0-6.0-1.0-8.0-0.30","4","3","4","3","3","3","3","3","3","4","4","4","2","3","4","4","4","4","4","5","4","4","4","2","4","4","2","2","1","1","0","1","1","0","0","1","1","0","1","1","0","1","0","1","5","4","4","2","2","2","1","2","4","4","2","781469725959131138","路","130","","","","","","","","","","","","","","","","","","","","","","","","","","","","","","","","","","","","","","","","","",""
"498","<p style=""color:rgb(150, 250, 100); font-size: 35px;"">他人</p>","e","categorize-html","169","388949","0.0-6.0-1.0-8.0-1.30","4","3","4","3","3","3","3","3","3","4","4","4","2","3","4","4","4","4","4","5","4","4","4","2","4","4","2","2","1","1","0","1","1","0","0","1","1","0","1","1","0","1","0","1","5","4","4","2","2","2","1","2","4","4","2","781469725959131138","路","130","","","","","","","","","","","","","","","","","","","true","14","4","moral","498","other","他人","","","","","","","","","","","","","","","","",""
"null","","null","html-keyboard-response","170","389201","0.0-6.0-1.0-8.0-0.31","4","3","4","3","3","3","3","3","3","4","4","4","2","3","4","4","4","4","4","5","4","4","4","2","4","4","2","2","1","1","0","1","1","0","0","1","1","0","1","1","0","1","0","1","5","4","4","2","2","2","1","2","4","4","2","781469725959131138","路","130","","","","","","","","","","","","","","","","","","","","","","","","","","","","","","","","","","","","","","","","","",""
"903","<p style=""color:white; font-size: 35px;"">廉正</p>","e","categorize-html","171","390106","0.0-6.0-1.0-8.0-1.31","4","3","4","3","3","3","3","3","3","4","4","4","2","3","4","4","4","4","4","5","4","4","4","2","4","4","2","2","1","1","0","1","1","0","0","1","1","0","1","1","0","1","0","1","5","4","4","2","2","2","1","2","4","4","2","781469725959131138","路","130","","","","","","","","","","","","","","","","","","","true","14","4","moral","903","positive","廉正","","","","","","","","","","","","","","","","",""
"null","","null","html-keyboard-response","172","390358","0.0-6.0-1.0-8.0-0.32","4","3","4","3","3","3","3","3","3","4","4","4","2","3","4","4","4","4","4","5","4","4","4","2","4","4","2","2","1","1","0","1","1","0","0","1","1","0","1","1","0","1","0","1","5","4","4","2","2","2","1","2","4","4","2","781469725959131138","路","130","","","","","","","","","","","","","","","","","","","","","","","","","","","","","","","","","","","","","","","","","",""
"558","<p style=""color:rgb(150, 250, 100); font-size: 35px;"">我的</p>","i","categorize-html","173","390917","0.0-6.0-1.0-8.0-1.32","4","3","4","3","3","3","3","3","3","4","4","4","2","3","4","4","4","4","4","5","4","4","4","2","4","4","2","2","1","1","0","1","1","0","0","1","1","0","1","1","0","1","0","1","5","4","4","2","2","2","1","2","4","4","2","781469725959131138","路","130","","","","","","","","","","","","","","","","","","","true","14","4","moral","558","self","我的","","","","","","","","","","","","","","","","",""
"null","","null","html-keyboard-response","174","391169","0.0-6.0-1.0-8.0-0.33","4","3","4","3","3","3","3","3","3","4","4","4","2","3","4","4","4","4","4","5","4","4","4","2","4","4","2","2","1","1","0","1","1","0","0","1","1","0","1","1","0","1","0","1","5","4","4","2","2","2","1","2","4","4","2","781469725959131138","路","130","","","","","","","","","","","","","","","","","","","","","","","","","","","","","","","","","","","","","","","","","",""
"531","<p style=""color:white; font-size: 35px;"">不仁</p>","i","categorize-html","175","391701","0.0-6.0-1.0-8.0-1.33","4","3","4","3","3","3","3","3","3","4","4","4","2","3","4","4","4","4","4","5","4","4","4","2","4","4","2","2","1","1","0","1","1","0","0","1","1","0","1","1","0","1","0","1","5","4","4","2","2","2","1","2","4","4","2","781469725959131138","路","130","","","","","","","","","","","","","","","","","","","true","14","4","moral","531","negative","不仁","","","","","","","","","","","","","","","","",""
"null","","null","html-keyboard-response","176","391953","0.0-6.0-1.0-8.0-0.34","4","3","4","3","3","3","3","3","3","4","4","4","2","3","4","4","4","4","4","5","4","4","4","2","4","4","2","2","1","1","0","1","1","0","0","1","1","0","1","1","0","1","0","1","5","4","4","2","2","2","1","2","4","4","2","781469725959131138","路","130","","","","","","","","","","","","","","","","","","","","","","","","","","","","","","","","","","","","","","","","","",""
"691","<p style=""color:rgb(150, 250, 100); font-size: 35px;"">他人的</p>","e","categorize-html","177","392646","0.0-6.0-1.0-8.0-1.34","4","3","4","3","3","3","3","3","3","4","4","4","2","3","4","4","4","4","4","5","4","4","4","2","4","4","2","2","1","1","0","1","1","0","0","1","1","0","1","1","0","1","0","1","5","4","4","2","2","2","1","2","4","4","2","781469725959131138","路","130","","","","","","","","","","","","","","","","","","","true","14","4","moral","691","other","他人的","","","","","","","","","","","","","","","","",""
"null","","null","html-keyboard-response","178","392897","0.0-6.0-1.0-8.0-0.35","4","3","4","3","3","3","3","3","3","4","4","4","2","3","4","4","4","4","4","5","4","4","4","2","4","4","2","2","1","1","0","1","1","0","0","1","1","0","1","1","0","1","0","1","5","4","4","2","2","2","1","2","4","4","2","781469725959131138","路","130","","","","","","","","","","","","","","","","","","","","","","","","","","","","","","","","","","","","","","","","","",""
"834","<p style=""color:white; font-size: 35px;"">高尚</p>","e","categorize-html","179","393733","0.0-6.0-1.0-8.0-1.35","4","3","4","3","3","3","3","3","3","4","4","4","2","3","4","4","4","4","4","5","4","4","4","2","4","4","2","2","1","1","0","1","1","0","0","1","1","0","1","1","0","1","0","1","5","4","4","2","2","2","1","2","4","4","2","781469725959131138","路","130","","","","","","","","","","","","","","","","","","","true","14","4","moral","834","positive","高尚","","","","","","","","","","","","","","","","",""
"null","","null","html-keyboard-response","180","393986","0.0-6.0-1.0-8.0-0.36","4","3","4","3","3","3","3","3","3","4","4","4","2","3","4","4","4","4","4","5","4","4","4","2","4","4","2","2","1","1","0","1","1","0","0","1","1","0","1","1","0","1","0","1","5","4","4","2","2","2","1","2","4","4","2","781469725959131138","路","130","","","","","","","","","","","","","","","","","","","","","","","","","","","","","","","","","","","","","","","","","",""
"620","<p style=""color:rgb(150, 250, 100); font-size: 35px;"">自己的</p>","i","categorize-html","181","394607","0.0-6.0-1.0-8.0-1.36","4","3","4","3","3","3","3","3","3","4","4","4","2","3","4","4","4","4","4","5","4","4","4","2","4","4","2","2","1","1","0","1","1","0","0","1","1","0","1","1","0","1","0","1","5","4","4","2","2","2","1","2","4","4","2","781469725959131138","路","130","","","","","","","","","","","","","","","","","","","true","14","4","moral","620","self","自己的","","","","","","","","","","","","","","","","",""
"null","","null","html-keyboard-response","182","394858","0.0-6.0-1.0-8.0-0.37","4","3","4","3","3","3","3","3","3","4","4","4","2","3","4","4","4","4","4","5","4","4","4","2","4","4","2","2","1","1","0","1","1","0","0","1","1","0","1","1","0","1","0","1","5","4","4","2","2","2","1","2","4","4","2","781469725959131138","路","130","","","","","","","","","","","","","","","","","","","","","","","","","","","","","","","","","","","","","","","","","",""
"546","<p style=""color:white; font-size: 35px;"">不孝</p>","i","categorize-html","183","395406","0.0-6.0-1.0-8.0-1.37","4","3","4","3","3","3","3","3","3","4","4","4","2","3","4","4","4","4","4","5","4","4","4","2","4","4","2","2","1","1","0","1","1","0","0","1","1","0","1","1","0","1","0","1","5","4","4","2","2","2","1","2","4","4","2","781469725959131138","路","130","","","","","","","","","","","","","","","","","","","true","14","4","moral","546","negative","不孝","","","","","","","","","","","","","","","","",""
"null","","null","html-keyboard-response","184","395657","0.0-6.0-1.0-8.0-0.38","4","3","4","3","3","3","3","3","3","4","4","4","2","3","4","4","4","4","4","5","4","4","4","2","4","4","2","2","1","1","0","1","1","0","0","1","1","0","1","1","0","1","0","1","5","4","4","2","2","2","1","2","4","4","2","781469725959131138","路","130","","","","","","","","","","","","","","","","","","","","","","","","","","","","","","","","","","","","","","","","","",""
"567","<p style=""color:rgb(150, 250, 100); font-size: 35px;"">别人的</p>","e","categorize-html","185","396226","0.0-6.0-1.0-8.0-1.38","4","3","4","3","3","3","3","3","3","4","4","4","2","3","4","4","4","4","4","5","4","4","4","2","4","4","2","2","1","1","0","1","1","0","0","1","1","0","1","1","0","1","0","1","5","4","4","2","2","2","1","2","4","4","2","781469725959131138","路","130","","","","","","","","","","","","","","","","","","","true","14","4","moral","567","other","别人的","","","","","","","","","","","","","","","","",""
"null","","null","html-keyboard-response","186","396478","0.0-6.0-1.0-8.0-0.39","4","3","4","3","3","3","3","3","3","4","4","4","2","3","4","4","4","4","4","5","4","4","4","2","4","4","2","2","1","1","0","1","1","0","0","1","1","0","1","1","0","1","0","1","5","4","4","2","2","2","1","2","4","4","2","781469725959131138","路","130","","","","","","","","","","","","","","","","","","","","","","","","","","","","","","","","","","","","","","","","","",""
"722","<p style=""color:white; font-size: 35px;"">善良</p>","e","categorize-html","187","397202","0.0-6.0-1.0-8.0-1.39","4","3","4","3","3","3","3","3","3","4","4","4","2","3","4","4","4","4","4","5","4","4","4","2","4","4","2","2","1","1","0","1","1","0","0","1","1","0","1","1","0","1","0","1","5","4","4","2","2","2","1","2","4","4","2","781469725959131138","路","130","","","","","","","","","","","","","","","","","","","true","14","4","moral","722","positive","善良","","","","","","","","","","","","","","","","",""
"null","","null","html-keyboard-response","188","397454","0.0-6.0-1.0-8.0-0.40","4","3","4","3","3","3","3","3","3","4","4","4","2","3","4","4","4","4","4","5","4","4","4","2","4","4","2","2","1","1","0","1","1","0","0","1","1","0","1","1","0","1","0","1","5","4","4","2","2","2","1","2","4","4","2","781469725959131138","路","130","","","","","","","","","","","","","","","","","","","","","","","","","","","","","","","","","","","","","","","","","",""
"733","<p style=""color:rgb(150, 250, 100); font-size: 35px;"">别人</p>","e","categorize-html","189","398188","0.0-6.0-1.0-8.0-1.40","4","3","4","3","3","3","3","3","3","4","4","4","2","3","4","4","4","4","4","5","4","4","4","2","4","4","2","2","1","1","0","1","1","0","0","1","1","0","1","1","0","1","0","1","5","4","4","2","2","2","1","2","4","4","2","781469725959131138","路","130","","","","","","","","","","","","","","","","","","","true","14","4","moral","733","other","别人","","","","","","","","","","","","","","","","",""
"null","","null","html-keyboard-response","190","398439","0.0-6.0-1.0-8.0-0.41","4","3","4","3","3","3","3","3","3","4","4","4","2","3","4","4","4","4","4","5","4","4","4","2","4","4","2","2","1","1","0","1","1","0","0","1","1","0","1","1","0","1","0","1","5","4","4","2","2","2","1","2","4","4","2","781469725959131138","路","130","","","","","","","","","","","","","","","","","","","","","","","","","","","","","","","","","","","","","","","","","",""
"584","<p style=""color:white; font-size: 35px;"">不仁</p>","i","categorize-html","191","399026","0.0-6.0-1.0-8.0-1.41","4","3","4","3","3","3","3","3","3","4","4","4","2","3","4","4","4","4","4","5","4","4","4","2","4","4","2","2","1","1","0","1","1","0","0","1","1","0","1","1","0","1","0","1","5","4","4","2","2","2","1","2","4","4","2","781469725959131138","路","130","","","","","","","","","","","","","","","","","","","true","14","4","moral","584","negative","不仁","","","","","","","","","","","","","","","","",""
"null","","null","html-keyboard-response","192","399277","0.0-6.0-1.0-8.0-0.42","4","3","4","3","3","3","3","3","3","4","4","4","2","3","4","4","4","4","4","5","4","4","4","2","4","4","2","2","1","1","0","1","1","0","0","1","1","0","1","1","0","1","0","1","5","4","4","2","2","2","1","2","4","4","2","781469725959131138","路","130","","","","","","","","","","","","","","","","","","","","","","","","","","","","","","","","","","","","","","","","","",""
