"rt","stimulus","response","trial_type","trial_index","time_elapsed","internal_node_id","ses_1","ses_2","ses_3","ses_4","ses_5","ses_6","ses_7","ses_8","ses_9","ses_10","coreself_1","coreself_2","coreself_3","coreself_4","coreself_5","coreself_6","coreself_7","coreself_8","coreself_9","coreself_10","SGPS_1","SGPS_2","SGPS_3","SGPS_4","SGPS_5","SGPS_6","SGPS_7","SGPS_8","SGPS_9","NPI1","NPI2","NPI3","NPI4","NPI5","NPI6","NPI7","NPI8","NPI9","NPI10","NPI11","NPI12","NPI13","NPI14","NPI15","hsns_1","hsns_2","hsns_3","hsns_4","hsns_5","trap1","hsns_6","hsns_7","hsns_8","hsns_9","hsns_10","subj_idx","friend_name","ParticipantID","value","success","user_agent","responses","item_order","radio_event_ids","radio_event_times","key_event_times","mouse_event_times","straightlining","zigzagging","honeypot","timeout","failed_images","failed_audio","failed_video","view_history","response_type","key_press","avg_frame_time","center_x","center_y","correct_response","correct","identity","Image","word","condition","task_id","screen_id","time_stamp","version_attrib2","version_target2","IAT","RT","varname","summary","version_attrib","version_target","question_order","correct_answer","trap1_item"
"11401","
   <p><div style = ""color: white;font-size:25px;"">您好，欢迎参加本次实验。</div> </p>
   <p><div style = ""color: white;font-size:25px;"">为充分保障您的权利，请确保您已经知晓并同意《参与实验同意书》以及《数据公开知情同意书》。</div></p>
   <p><div style = ""color: white;font-size:25px;"">如果您未见过上述内容，请咨询实验员。</div></p>
   <p><div style = ""color: white;font-size:25px;"">如果您选择继续实验，则表示您已经清楚两份知情同意书的内容并同意。</div></p>
   <p><div style = ""color: pink;font-size:30px;"">请确保您记得day0的实验编号，您将在本次实验输入该编号，若您忘记，请咨询实验员后作答。</div></p>
   <p><div style = ""color: lightblue;font-size:25px;"">请您尽可能认真地作答，我们将依据您在各问卷和按键任务中的作答质量发放报酬。</div></p>
   <p> <div style = ""color: green;font-size:25px;""><按空格键至下页></div> </p>
   "," ","html-keyboard-response","0","11403","0.0-0.0","3","3","4","3","4","3","3","4","4","4","4","5","2","4","4","4","5","5","4","5","1","1","2","1","2","2","1","1","1","1","1","0","0","1","1","0","1","0","0","1","0","1","0","0","4","1","1","1","1","1","1","4","4","1","1","776085809274294274","张","313","","","","","","","","","","","","","","","","","","","","","","","","","","","","","","","","","","","","","","","","","",""
"","","","call-function","1","11404","0.0-1.0-0.0","3","3","4","3","4","3","3","4","4","4","4","5","2","4","4","4","5","5","4","5","1","1","2","1","2","2","1","1","1","1","1","0","0","1","1","0","1","0","0","1","0","1","0","0","4","1","1","1","1","1","1","4","4","1","1","776085809274294274","张","313","","","","","","","","","","","","","","","","","","","","","","","","","","","","","","","","","","","","","","","","","",""
"60304","","{""friend_name"":""张"",""ParticipantID"":""313""}","survey-html-form","2","71707","0.0-1.0-1.0","3","3","4","3","4","3","3","4","4","4","4","5","2","4","4","4","5","5","4","5","1","1","2","1","2","2","1","1","1","1","1","0","0","1","1","0","1","0","0","1","0","1","0","0","4","1","1","1","1","1","1","4","4","1","1","776085809274294274","张","313","","","","","","","","","","","","","","","","","","","","","","","","","","","","","","","","","","","","","","","","","",""
"","","","fullscreen","3","75831","0.0-2.0","3","3","4","3","4","3","3","4","4","4","4","5","2","4","4","4","5","5","4","5","1","1","2","1","2","2","1","1","1","1","1","0","0","1","1","0","1","0","0","1","0","1","0","0","4","1","1","1","1","1","1","4","4","1","1","776085809274294274","张","313","","true","{}","","","","","","","","","","","","","","","","","","","","","","","","","","","","","","","","","","","","","","",""
"24181.400000000373","","{""Q01"":""3"",""Q02"":""3"",""Q03"":""4"",""Q04"":""3"",""Q05"":""4"",""Q06"":""3"",""Q07"":""3"",""Q08"":""4"",""Q09"":""4"",""Q10"":""4""}","survey-template","4","100015","0.0-3.0","3","3","4","3","4","3","3","4","4","4","4","5","2","4","4","4","5","5","4","5","1","1","2","1","2","2","1","1","1","1","1","0","0","1","1","0","1","0","0","1","0","1","0","0","4","1","1","1","1","1","1","4","4","1","1","776085809274294274","张","313","","","","{""Q01"":""3"",""Q02"":""3"",""Q03"":""4"",""Q04"":""3"",""Q05"":""4"",""Q06"":""3"",""Q07"":""3"",""Q08"":""4"",""Q09"":""4"",""Q10"":""4""}","[0,1,2,3,4,5,6,7,8,9]","[""Q01"",""Q02"",""Q03"",""Q04"",""Q05"",""Q06"",""Q07"",""Q08"",""Q09"",""Q10""]","[5771.200000000186,7769.299999999814,9552.299999999814,11837.400000000373,13348.700000000186,14227.700000000186,17150,19156.200000000186,21797.5,23539.799999999814]","[]","[5019.799999999814,5338.9000000003725,5771.200000000186,7769.299999999814,9552.299999999814,11837.400000000373,13348.700000000186,14227.700000000186,17150,19156.200000000186,21797.5,22877.400000000373,23291.5,23539.799999999814,24179.5]","0.5","0","0","","","","","","","","","","","","","","","","","","","","","","","","","","","","","",""
"23899.200000000186","","{""Q01"":""4"",""Q02"":""5"",""Q03"":""2"",""Q04"":""4"",""Q05"":""4"",""Q06"":""4"",""Q07"":""5"",""Q08"":""5"",""Q09"":""4"",""Q10"":""5""}","survey-template","5","123919","0.0-4.0","3","3","4","3","4","3","3","4","4","4","4","5","2","4","4","4","5","5","4","5","1","1","2","1","2","2","1","1","1","1","1","0","0","1","1","0","1","0","0","1","0","1","0","0","4","1","1","1","1","1","1","4","4","1","1","776085809274294274","张","313","","","","{""Q01"":""4"",""Q02"":""5"",""Q03"":""2"",""Q04"":""4"",""Q05"":""4"",""Q06"":""4"",""Q07"":""5"",""Q08"":""5"",""Q09"":""4"",""Q10"":""5""}","[0,1,2,3,4,5,6,7,8,9]","[""Q01"",""Q02"",""Q03"",""Q04"",""Q05"",""Q06"",""Q07"",""Q08"",""Q09"",""Q10""]","[5240.200000000186,7468.4000000003725,9603.5,14201,15615.200000000186,17030.60000000056,19029.60000000056,20076.700000000186,21580,23155]","[]","[4000.9000000003725,5240.200000000186,7468.4000000003725,9603.5,11667.600000000559,14201,15615.200000000186,17030.60000000056,19029.60000000056,20076.700000000186,21580,23155,23896.800000000745]","0.5","0","0","","","","","","","","","","","","","","","","","","","","","","","","","","","","","",""
"","","","preload","6","124201","0.0-5.0","3","3","4","3","4","3","3","4","4","4","4","5","2","4","4","4","5","5","4","5","1","1","2","1","2","2","1","1","1","1","1","0","0","1","1","0","1","0","0","1","0","1","0","0","4","1","1","1","1","1","1","4","4","1","1","776085809274294274","张","313","","true","","","","","","","","","","","false","[]","[]","[]","","","","","","","","","","","","","","","","","","","","","","","","","",""
"8215","","","instructions","7","132416","0.0-6.0","3","3","4","3","4","3","3","4","4","4","4","5","2","4","4","4","5","5","4","5","1","1","2","1","2","2","1","1","1","1","1","0","0","1","1","0","1","0","0","1","0","1","0","0","4","1","1","1","1","1","1","4","4","1","1","776085809274294274","张","313","","","","","","","","","","","","","","","","","[{""page_index"":0,""viewing_time"":8214}]","","","","","","","","","","","","","","","","","","","","","","","","",""
"25285","","","instructions","8","157701","0.0-7.0-1.0-0.0","3","3","4","3","4","3","3","4","4","4","4","5","2","4","4","4","5","5","4","5","1","1","2","1","2","2","1","1","1","1","1","0","0","1","1","0","1","0","0","1","0","1","0","0","4","1","1","1","1","1","1","4","4","1","1","776085809274294274","张","313","","","","","","","","","","","","","","","","","[{""page_index"":0,""viewing_time"":14778},{""page_index"":1,""viewing_time"":8061},{""page_index"":2,""viewing_time"":2445}]","","","","","","","","","","","","","","","","","","","","","","","","",""
"null","","null","psychophysics","9","159906","0.0-7.0-1.0-1.0-0.0-0.0","3","3","4","3","4","3","3","4","4","4","4","5","2","4","4","4","5","5","4","5","1","1","2","1","2","2","1","1","1","1","1","0","0","1","1","0","1","0","0","1","0","1","0","0","4","1","1","1","1","1","1","4","4","1","1","776085809274294274","张","313","","","","null","","","","","","","","","","","","","","key","null","6.988945686900984","960","536","f","false","nonmatch","img/pentagon.png","圆形","五边","ALT1_2","prac_ALT1_2","","","","","","","","","","","",""
"null","<span class='add_' style='color:yellow; font-size: 70px;'> 太慢! </span>","null","html-keyboard-response","10","160408","0.0-7.0-1.0-1.0-0.0-1.0","3","3","4","3","4","3","3","4","4","4","4","5","2","4","4","4","5","5","4","5","1","1","2","1","2","2","1","1","1","1","1","0","0","1","1","0","1","0","0","1","0","1","0","0","4","1","1","1","1","1","1","4","4","1","1","776085809274294274","张","313","","","","","","","","","","","","","","","","","","","","","","","","","","","","","","feedback_test","","","","","","","","","","","",""
"902","","j","psychophysics","11","162312","0.0-7.0-1.0-1.0-0.0-0.1","3","3","4","3","4","3","3","4","4","4","4","5","2","4","4","4","5","5","4","5","1","1","2","1","2","2","1","1","1","1","1","0","0","1","1","0","1","0","0","1","0","1","0","0","4","1","1","1","1","1","1","4","4","1","1","776085809274294274","张","313","","","","match","","","","","","","","","","","","","","key","j","6.9446153846154015","960","536","j","true","match","img/pentagon.png","五边","五边","ALT1_2","prac_ALT1_2","","","","","","","","","","","",""
"null","<span style='color:GreenYellow; font-size: 70px;'>正确! </span>","null","html-keyboard-response","12","162813","0.0-7.0-1.0-1.0-0.0-1.1","3","3","4","3","4","3","3","4","4","4","4","5","2","4","4","4","5","5","4","5","1","1","2","1","2","2","1","1","1","1","1","0","0","1","1","0","1","0","0","1","0","1","0","0","4","1","1","1","1","1","1","4","4","1","1","776085809274294274","张","313","","","","","","","","","","","","","","","","","","","","","","","","","","","","","","feedback_test","","","","","","","","","","","",""
"946","","f","psychophysics","13","164760","0.0-7.0-1.0-1.0-0.0-0.2","3","3","4","3","4","3","3","4","4","4","4","5","2","4","4","4","5","5","4","5","1","1","2","1","2","2","1","1","1","1","1","0","0","1","1","0","1","0","0","1","0","1","0","0","4","1","1","1","1","1","1","4","4","1","1","776085809274294274","张","313","","","","nonmatch","","","","","","","","","","","","","","key","f","6.944577060931939","960","536","f","true","nonmatch","img/triangle.png","五边","三角","ALT1_2","prac_ALT1_2","","","","","","","","","","","",""
"null","<span style='color:GreenYellow; font-size: 70px;'>正确! </span>","null","html-keyboard-response","14","165262","0.0-7.0-1.0-1.0-0.0-1.2","3","3","4","3","4","3","3","4","4","4","4","5","2","4","4","4","5","5","4","5","1","1","2","1","2","2","1","1","1","1","1","0","0","1","1","0","1","0","0","1","0","1","0","0","4","1","1","1","1","1","1","4","4","1","1","776085809274294274","张","313","","","","","","","","","","","","","","","","","","","","","","","","","","","","","","feedback_test","","","","","","","","","","","",""
"757","","j","psychophysics","15","167019","0.0-7.0-1.0-1.0-0.0-0.3","3","3","4","3","4","3","3","4","4","4","4","5","2","4","4","4","5","5","4","5","1","1","2","1","2","2","1","1","1","1","1","0","0","1","1","0","1","0","0","1","0","1","0","0","4","1","1","1","1","1","1","4","4","1","1","776085809274294274","张","313","","","","match","","","","","","","","","","","","","","key","j","6.944670634920637","960","536","f","false","nonmatch","img/trapezoid.png","五边","梯形","ALT1_2","prac_ALT1_2","","","","","","","","","","","",""
"null","<span style='color:red; font-size: 70px;'>错误! </span>","null","html-keyboard-response","16","167520","0.0-7.0-1.0-1.0-0.0-1.3","3","3","4","3","4","3","3","4","4","4","4","5","2","4","4","4","5","5","4","5","1","1","2","1","2","2","1","1","1","1","1","0","0","1","1","0","1","0","0","1","0","1","0","0","4","1","1","1","1","1","1","4","4","1","1","776085809274294274","张","313","","","","","","","","","","","","","","","","","","","","","","","","","","","","","","feedback_test","","","","","","","","","","","",""
"819","","f","psychophysics","17","169341","0.0-7.0-1.0-1.0-0.0-0.4","3","3","4","3","4","3","3","4","4","4","4","5","2","4","4","4","5","5","4","5","1","1","2","1","2","2","1","1","1","1","1","0","0","1","1","0","1","0","0","1","0","1","0","0","4","1","1","1","1","1","1","4","4","1","1","776085809274294274","张","313","","","","nonmatch","","","","","","","","","","","","","","key","f","6.9713269230769725","960","536","f","true","nonmatch","img/triangle.png","圆形","三角","ALT1_2","prac_ALT1_2","","","","","","","","","","","",""
"null","<span style='color:GreenYellow; font-size: 70px;'>正确! </span>","null","html-keyboard-response","18","169842","0.0-7.0-1.0-1.0-0.0-1.4","3","3","4","3","4","3","3","4","4","4","4","5","2","4","4","4","5","5","4","5","1","1","2","1","2","2","1","1","1","1","1","0","0","1","1","0","1","0","0","1","0","1","0","0","4","1","1","1","1","1","1","4","4","1","1","776085809274294274","张","313","","","","","","","","","","","","","","","","","","","","","","","","","","","","","","feedback_test","","","","","","","","","","","",""
"828","","f","psychophysics","19","171672","0.0-7.0-1.0-1.0-0.0-0.5","3","3","4","3","4","3","3","4","4","4","4","5","2","4","4","4","5","5","4","5","1","1","2","1","2","2","1","1","1","1","1","0","0","1","1","0","1","0","0","1","0","1","0","0","4","1","1","1","1","1","1","4","4","1","1","776085809274294274","张","313","","","","nonmatch","","","","","","","","","","","","","","key","f","6.944581749049496","960","536","f","true","nonmatch","img/trapezoid.png","三角","梯形","ALT1_2","prac_ALT1_2","","","","","","","","","","","",""
"null","<span style='color:GreenYellow; font-size: 70px;'>正确! </span>","null","html-keyboard-response","20","172172","0.0-7.0-1.0-1.0-0.0-1.5","3","3","4","3","4","3","3","4","4","4","4","5","2","4","4","4","5","5","4","5","1","1","2","1","2","2","1","1","1","1","1","0","0","1","1","0","1","0","0","1","0","1","0","0","4","1","1","1","1","1","1","4","4","1","1","776085809274294274","张","313","","","","","","","","","","","","","","","","","","","","","","","","","","","","","","feedback_test","","","","","","","","","","","",""
"832","","j","psychophysics","21","174006","0.0-7.0-1.0-1.0-0.0-0.6","3","3","4","3","4","3","3","4","4","4","4","5","2","4","4","4","5","5","4","5","1","1","2","1","2","2","1","1","1","1","1","0","0","1","1","0","1","0","0","1","0","1","0","0","4","1","1","1","1","1","1","4","4","1","1","776085809274294274","张","313","","","","match","","","","","","","","","","","","","","key","j","6.944619771863109","960","536","j","true","match","img/trapezoid.png","梯形","梯形","ALT1_2","prac_ALT1_2","","","","","","","","","","","",""
"null","<span style='color:GreenYellow; font-size: 70px;'>正确! </span>","null","html-keyboard-response","22","174507","0.0-7.0-1.0-1.0-0.0-1.6","3","3","4","3","4","3","3","4","4","4","4","5","2","4","4","4","5","5","4","5","1","1","2","1","2","2","1","1","1","1","1","0","0","1","1","0","1","0","0","1","0","1","0","0","4","1","1","1","1","1","1","4","4","1","1","776085809274294274","张","313","","","","","","","","","","","","","","","","","","","","","","","","","","","","","","feedback_test","","","","","","","","","","","",""
"679","","f","psychophysics","23","176187","0.0-7.0-1.0-1.0-0.0-0.7","3","3","4","3","4","3","3","4","4","4","4","5","2","4","4","4","5","5","4","5","1","1","2","1","2","2","1","1","1","1","1","0","0","1","1","0","1","0","0","1","0","1","0","0","4","1","1","1","1","1","1","4","4","1","1","776085809274294274","张","313","","","","nonmatch","","","","","","","","","","","","","","key","f","6.9445850622407415","960","536","f","true","nonmatch","img/trapezoid.png","圆形","梯形","ALT1_2","prac_ALT1_2","","","","","","","","","","","",""
"null","<span style='color:GreenYellow; font-size: 70px;'>正确! </span>","null","html-keyboard-response","24","176688","0.0-7.0-1.0-1.0-0.0-1.7","3","3","4","3","4","3","3","4","4","4","4","5","2","4","4","4","5","5","4","5","1","1","2","1","2","2","1","1","1","1","1","0","0","1","1","0","1","0","0","1","0","1","0","0","4","1","1","1","1","1","1","4","4","1","1","776085809274294274","张","313","","","","","","","","","","","","","","","","","","","","","","","","","","","","","","feedback_test","","","","","","","","","","","",""
"587","","j","psychophysics","25","178276","0.0-7.0-1.0-1.0-0.0-0.8","3","3","4","3","4","3","3","4","4","4","4","5","2","4","4","4","5","5","4","5","1","1","2","1","2","2","1","1","1","1","1","0","0","1","1","0","1","0","0","1","0","1","0","0","4","1","1","1","1","1","1","4","4","1","1","776085809274294274","张","313","","","","match","","","","","","","","","","","","","","key","j","6.944587719298285","960","536","j","true","match","img/circle.png","圆形","圆形","ALT1_2","prac_ALT1_2","","","","","","","","","","","",""
"null","<span style='color:GreenYellow; font-size: 70px;'>正确! </span>","null","html-keyboard-response","26","178777","0.0-7.0-1.0-1.0-0.0-1.8","3","3","4","3","4","3","3","4","4","4","4","5","2","4","4","4","5","5","4","5","1","1","2","1","2","2","1","1","1","1","1","0","0","1","1","0","1","0","0","1","0","1","0","0","4","1","1","1","1","1","1","4","4","1","1","776085809274294274","张","313","","","","","","","","","","","","","","","","","","","","","","","","","","","","","","feedback_test","","","","","","","","","","","",""
"833","","f","psychophysics","27","180611","0.0-7.0-1.0-1.0-0.0-0.9","3","3","4","3","4","3","3","4","4","4","4","5","2","4","4","4","5","5","4","5","1","1","2","1","2","2","1","1","1","1","1","0","0","1","1","0","1","0","0","1","0","1","0","0","4","1","1","1","1","1","1","4","4","1","1","776085809274294274","张","313","","","","nonmatch","","","","","","","","","","","","","","key","f","6.944498098859282","960","536","j","false","match","img/pentagon.png","五边","五边","ALT1_2","prac_ALT1_2","","","","","","","","","","","",""
"null","<span style='color:red; font-size: 70px;'>错误! </span>","null","html-keyboard-response","28","181112","0.0-7.0-1.0-1.0-0.0-1.9","3","3","4","3","4","3","3","4","4","4","4","5","2","4","4","4","5","5","4","5","1","1","2","1","2","2","1","1","1","1","1","0","0","1","1","0","1","0","0","1","0","1","0","0","4","1","1","1","1","1","1","4","4","1","1","776085809274294274","张","313","","","","","","","","","","","","","","","","","","","","","","","","","","","","","","feedback_test","","","","","","","","","","","",""
"793","","j","psychophysics","29","182906","0.0-7.0-1.0-1.0-0.0-0.10","3","3","4","3","4","3","3","4","4","4","4","5","2","4","4","4","5","5","4","5","1","1","2","1","2","2","1","1","1","1","1","0","0","1","1","0","1","0","0","1","0","1","0","0","4","1","1","1","1","1","1","4","4","1","1","776085809274294274","张","313","","","","match","","","","","","","","","","","","","","key","j","6.944614785992231","960","536","f","false","nonmatch","img/triangle.png","梯形","三角","ALT1_2","prac_ALT1_2","","","","","","","","","","","",""
"null","<span style='color:red; font-size: 70px;'>错误! </span>","null","html-keyboard-response","30","183409","0.0-7.0-1.0-1.0-0.0-1.10","3","3","4","3","4","3","3","4","4","4","4","5","2","4","4","4","5","5","4","5","1","1","2","1","2","2","1","1","1","1","1","0","0","1","1","0","1","0","0","1","0","1","0","0","4","1","1","1","1","1","1","4","4","1","1","776085809274294274","张","313","","","","","","","","","","","","","","","","","","","","","","","","","","","","","","feedback_test","","","","","","","","","","","",""
"609","","f","psychophysics","31","185020","0.0-7.0-1.0-1.0-0.0-0.11","3","3","4","3","4","3","3","4","4","4","4","5","2","4","4","4","5","5","4","5","1","1","2","1","2","2","1","1","1","1","1","0","0","1","1","0","1","0","0","1","0","1","0","0","4","1","1","1","1","1","1","4","4","1","1","776085809274294274","张","313","","","","nonmatch","","","","","","","","","","","","","","key","f","6.944623376623308","960","536","j","false","match","img/circle.png","圆形","圆形","ALT1_2","prac_ALT1_2","","","","","","","","","","","",""
"null","<span style='color:red; font-size: 70px;'>错误! </span>","null","html-keyboard-response","32","185521","0.0-7.0-1.0-1.0-0.0-1.11","3","3","4","3","4","3","3","4","4","4","4","5","2","4","4","4","5","5","4","5","1","1","2","1","2","2","1","1","1","1","1","0","0","1","1","0","1","0","0","1","0","1","0","0","4","1","1","1","1","1","1","4","4","1","1","776085809274294274","张","313","","","","","","","","","","","","","","","","","","","","","","","","","","","","","","feedback_test","","","","","","","","","","","",""
"794","","j","psychophysics","33","187316","0.0-7.0-1.0-1.0-0.0-0.12","3","3","4","3","4","3","3","4","4","4","4","5","2","4","4","4","5","5","4","5","1","1","2","1","2","2","1","1","1","1","1","0","0","1","1","0","1","0","0","1","0","1","0","0","4","1","1","1","1","1","1","4","4","1","1","776085809274294274","张","313","","","","match","","","","","","","","","","","","","","key","j","6.944579766537013","960","536","j","true","match","img/pentagon.png","五边","五边","ALT1_2","prac_ALT1_2","","","","","","","","","","","",""
"null","<span style='color:GreenYellow; font-size: 70px;'>正确! </span>","null","html-keyboard-response","34","187817","0.0-7.0-1.0-1.0-0.0-1.12","3","3","4","3","4","3","3","4","4","4","4","5","2","4","4","4","5","5","4","5","1","1","2","1","2","2","1","1","1","1","1","0","0","1","1","0","1","0","0","1","0","1","0","0","4","1","1","1","1","1","1","4","4","1","1","776085809274294274","张","313","","","","","","","","","","","","","","","","","","","","","","","","","","","","","","feedback_test","","","","","","","","","","","",""
"781","","f","psychophysics","35","189598","0.0-7.0-1.0-1.0-0.0-0.13","3","3","4","3","4","3","3","4","4","4","4","5","2","4","4","4","5","5","4","5","1","1","2","1","2","2","1","1","1","1","1","0","0","1","1","0","1","0","0","1","0","1","0","0","4","1","1","1","1","1","1","4","4","1","1","776085809274294274","张","313","","","","nonmatch","","","","","","","","","","","","","","key","f","6.944596078431385","960","536","f","true","nonmatch","img/circle.png","五边","圆形","ALT1_2","prac_ALT1_2","","","","","","","","","","","",""
"null","<span style='color:GreenYellow; font-size: 70px;'>正确! </span>","null","html-keyboard-response","36","190099","0.0-7.0-1.0-1.0-0.0-1.13","3","3","4","3","4","3","3","4","4","4","4","5","2","4","4","4","5","5","4","5","1","1","2","1","2","2","1","1","1","1","1","0","0","1","1","0","1","0","0","1","0","1","0","0","4","1","1","1","1","1","1","4","4","1","1","776085809274294274","张","313","","","","","","","","","","","","","","","","","","","","","","","","","","","","","","feedback_test","","","","","","","","","","","",""
"724","","j","psychophysics","37","191824","0.0-7.0-1.0-1.0-0.0-0.14","3","3","4","3","4","3","3","4","4","4","4","5","2","4","4","4","5","5","4","5","1","1","2","1","2","2","1","1","1","1","1","0","0","1","1","0","1","0","0","1","0","1","0","0","4","1","1","1","1","1","1","4","4","1","1","776085809274294274","张","313","","","","match","","","","","","","","","","","","","","key","j","6.9446194331983655","960","536","j","true","match","img/trapezoid.png","梯形","梯形","ALT1_2","prac_ALT1_2","","","","","","","","","","","",""
"null","<span style='color:GreenYellow; font-size: 70px;'>正确! </span>","null","html-keyboard-response","38","192325","0.0-7.0-1.0-1.0-0.0-1.14","3","3","4","3","4","3","3","4","4","4","4","5","2","4","4","4","5","5","4","5","1","1","2","1","2","2","1","1","1","1","1","0","0","1","1","0","1","0","0","1","0","1","0","0","4","1","1","1","1","1","1","4","4","1","1","776085809274294274","张","313","","","","","","","","","","","","","","","","","","","","","","","","","","","","","","feedback_test","","","","","","","","","","","",""
"661","","j","psychophysics","39","193987","0.0-7.0-1.0-1.0-0.0-0.15","3","3","4","3","4","3","3","4","4","4","4","5","2","4","4","4","5","5","4","5","1","1","2","1","2","2","1","1","1","1","1","0","0","1","1","0","1","0","0","1","0","1","0","0","4","1","1","1","1","1","1","4","4","1","1","776085809274294274","张","313","","","","match","","","","","","","","","","","","","","key","j","6.944558823529382","960","536","j","true","match","img/triangle.png","三角","三角","ALT1_2","prac_ALT1_2","","","","","","","","","","","",""
"null","<span style='color:GreenYellow; font-size: 70px;'>正确! </span>","null","html-keyboard-response","40","194488","0.0-7.0-1.0-1.0-0.0-1.15","3","3","4","3","4","3","3","4","4","4","4","5","2","4","4","4","5","5","4","5","1","1","2","1","2","2","1","1","1","1","1","0","0","1","1","0","1","0","0","1","0","1","0","0","4","1","1","1","1","1","1","4","4","1","1","776085809274294274","张","313","","","","","","","","","","","","","","","","","","","","","","","","","","","","","","feedback_test","","","","","","","","","","","",""
"728","","j","psychophysics","41","196216","0.0-7.0-1.0-1.0-0.0-0.16","3","3","4","3","4","3","3","4","4","4","4","5","2","4","4","4","5","5","4","5","1","1","2","1","2","2","1","1","1","1","1","0","0","1","1","0","1","0","0","1","0","1","0","0","4","1","1","1","1","1","1","4","4","1","1","776085809274294274","张","313","","","","match","","","","","","","","","","","","","","key","j","6.944536290322562","960","536","f","false","nonmatch","img/circle.png","梯形","圆形","ALT1_2","prac_ALT1_2","","","","","","","","","","","",""
"null","<span style='color:red; font-size: 70px;'>错误! </span>","null","html-keyboard-response","42","196717","0.0-7.0-1.0-1.0-0.0-1.16","3","3","4","3","4","3","3","4","4","4","4","5","2","4","4","4","5","5","4","5","1","1","2","1","2","2","1","1","1","1","1","0","0","1","1","0","1","0","0","1","0","1","0","0","4","1","1","1","1","1","1","4","4","1","1","776085809274294274","张","313","","","","","","","","","","","","","","","","","","","","","","","","","","","","","","feedback_test","","","","","","","","","","","",""
"847","","j","psychophysics","43","198565","0.0-7.0-1.0-1.0-0.0-0.17","3","3","4","3","4","3","3","4","4","4","4","5","2","4","4","4","5","5","4","5","1","1","2","1","2","2","1","1","1","1","1","0","0","1","1","0","1","0","0","1","0","1","0","0","4","1","1","1","1","1","1","4","4","1","1","776085809274294274","张","313","","","","match","","","","","","","","","","","","","","key","j","6.944592452830227","960","536","j","true","match","img/trapezoid.png","梯形","梯形","ALT1_2","prac_ALT1_2","","","","","","","","","","","",""
"null","<span style='color:GreenYellow; font-size: 70px;'>正确! </span>","null","html-keyboard-response","44","199066","0.0-7.0-1.0-1.0-0.0-1.17","3","3","4","3","4","3","3","4","4","4","4","5","2","4","4","4","5","5","4","5","1","1","2","1","2","2","1","1","1","1","1","0","0","1","1","0","1","0","0","1","0","1","0","0","4","1","1","1","1","1","1","4","4","1","1","776085809274294274","张","313","","","","","","","","","","","","","","","","","","","","","","","","","","","","","","feedback_test","","","","","","","","","","","",""
"676","","j","psychophysics","45","200742","0.0-7.0-1.0-1.0-0.0-0.18","3","3","4","3","4","3","3","4","4","4","4","5","2","4","4","4","5","5","4","5","1","1","2","1","2","2","1","1","1","1","1","0","0","1","1","0","1","0","0","1","0","1","0","0","4","1","1","1","1","1","1","4","4","1","1","776085809274294274","张","313","","","","match","","","","","","","","","","","","","","key","j","6.944601659751058","960","536","f","false","nonmatch","img/circle.png","三角","圆形","ALT1_2","prac_ALT1_2","","","","","","","","","","","",""
"null","<span style='color:red; font-size: 70px;'>错误! </span>","null","html-keyboard-response","46","201243","0.0-7.0-1.0-1.0-0.0-1.18","3","3","4","3","4","3","3","4","4","4","4","5","2","4","4","4","5","5","4","5","1","1","2","1","2","2","1","1","1","1","1","0","0","1","1","0","1","0","0","1","0","1","0","0","4","1","1","1","1","1","1","4","4","1","1","776085809274294274","张","313","","","","","","","","","","","","","","","","","","","","","","","","","","","","","","feedback_test","","","","","","","","","","","",""
"825","","f","psychophysics","47","203069","0.0-7.0-1.0-1.0-0.0-0.19","3","3","4","3","4","3","3","4","4","4","4","5","2","4","4","4","5","5","4","5","1","1","2","1","2","2","1","1","1","1","1","0","0","1","1","0","1","0","0","1","0","1","0","0","4","1","1","1","1","1","1","4","4","1","1","776085809274294274","张","313","","","","nonmatch","","","","","","","","","","","","","","key","f","6.944610687022947","960","536","f","true","nonmatch","img/pentagon.png","梯形","五边","ALT1_2","prac_ALT1_2","","","","","","","","","","","",""
"null","<span style='color:GreenYellow; font-size: 70px;'>正确! </span>","null","html-keyboard-response","48","203569","0.0-7.0-1.0-1.0-0.0-1.19","3","3","4","3","4","3","3","4","4","4","4","5","2","4","4","4","5","5","4","5","1","1","2","1","2","2","1","1","1","1","1","0","0","1","1","0","1","0","0","1","0","1","0","0","4","1","1","1","1","1","1","4","4","1","1","776085809274294274","张","313","","","","","","","","","","","","","","","","","","","","","","","","","","","","","","feedback_test","","","","","","","","","","","",""
"756","","f","psychophysics","49","205326","0.0-7.0-1.0-1.0-0.0-0.20","3","3","4","3","4","3","3","4","4","4","4","5","2","4","4","4","5","5","4","5","1","1","2","1","2","2","1","1","1","1","1","0","0","1","1","0","1","0","0","1","0","1","0","0","4","1","1","1","1","1","1","4","4","1","1","776085809274294274","张","313","","","","nonmatch","","","","","","","","","","","","","","key","f","6.944591269841315","960","536","f","true","nonmatch","img/pentagon.png","三角","五边","ALT1_2","prac_ALT1_2","","","","","","","","","","","",""
"null","<span style='color:GreenYellow; font-size: 70px;'>正确! </span>","null","html-keyboard-response","50","205828","0.0-7.0-1.0-1.0-0.0-1.20","3","3","4","3","4","3","3","4","4","4","4","5","2","4","4","4","5","5","4","5","1","1","2","1","2","2","1","1","1","1","1","0","0","1","1","0","1","0","0","1","0","1","0","0","4","1","1","1","1","1","1","4","4","1","1","776085809274294274","张","313","","","","","","","","","","","","","","","","","","","","","","","","","","","","","","feedback_test","","","","","","","","","","","",""
"802","","f","psychophysics","51","207630","0.0-7.0-1.0-1.0-0.0-0.21","3","3","4","3","4","3","3","4","4","4","4","5","2","4","4","4","5","5","4","5","1","1","2","1","2","2","1","1","1","1","1","0","0","1","1","0","1","0","0","1","0","1","0","0","4","1","1","1","1","1","1","4","4","1","1","776085809274294274","张","313","","","","nonmatch","","","","","","","","","","","","","","key","f","6.944589147286926","960","536","j","false","match","img/circle.png","圆形","圆形","ALT1_2","prac_ALT1_2","","","","","","","","","","","",""
"null","<span style='color:red; font-size: 70px;'>错误! </span>","null","html-keyboard-response","52","208131","0.0-7.0-1.0-1.0-0.0-1.21","3","3","4","3","4","3","3","4","4","4","4","5","2","4","4","4","5","5","4","5","1","1","2","1","2","2","1","1","1","1","1","0","0","1","1","0","1","0","0","1","0","1","0","0","4","1","1","1","1","1","1","4","4","1","1","776085809274294274","张","313","","","","","","","","","","","","","","","","","","","","","","","","","","","","","","feedback_test","","","","","","","","","","","",""
"719","","j","psychophysics","53","209850","0.0-7.0-1.0-1.0-0.0-0.22","3","3","4","3","4","3","3","4","4","4","4","5","2","4","4","4","5","5","4","5","1","1","2","1","2","2","1","1","1","1","1","0","0","1","1","0","1","0","0","1","0","1","0","0","4","1","1","1","1","1","1","4","4","1","1","776085809274294274","张","313","","","","match","","","","","","","","","","","","","","key","j","6.943943089430861","960","536","j","true","match","img/triangle.png","三角","三角","ALT1_2","prac_ALT1_2","","","","","","","","","","","",""
"null","<span style='color:GreenYellow; font-size: 70px;'>正确! </span>","null","html-keyboard-response","54","210352","0.0-7.0-1.0-1.0-0.0-1.22","3","3","4","3","4","3","3","4","4","4","4","5","2","4","4","4","5","5","4","5","1","1","2","1","2","2","1","1","1","1","1","0","0","1","1","0","1","0","0","1","0","1","0","0","4","1","1","1","1","1","1","4","4","1","1","776085809274294274","张","313","","","","","","","","","","","","","","","","","","","","","","","","","","","","","","feedback_test","","","","","","","","","","","",""
"698","","j","psychophysics","55","212050","0.0-7.0-1.0-1.0-0.0-0.23","3","3","4","3","4","3","3","4","4","4","4","5","2","4","4","4","5","5","4","5","1","1","2","1","2","2","1","1","1","1","1","0","0","1","1","0","1","0","0","1","0","1","0","0","4","1","1","1","1","1","1","4","4","1","1","776085809274294274","张","313","","","","match","","","","","","","","","","","","","","key","j","6.929371900826429","960","536","j","true","match","img/triangle.png","三角","三角","ALT1_2","prac_ALT1_2","","","","","","","","","","","",""
"null","<span style='color:GreenYellow; font-size: 70px;'>正确! </span>","null","html-keyboard-response","56","212551","0.0-7.0-1.0-1.0-0.0-1.23","3","3","4","3","4","3","3","4","4","4","4","5","2","4","4","4","5","5","4","5","1","1","2","1","2","2","1","1","1","1","1","0","0","1","1","0","1","0","0","1","0","1","0","0","4","1","1","1","1","1","1","4","4","1","1","776085809274294274","张","313","","","","","","","","","","","","","","","","","","","","","","","","","","","","","","feedback_test","","","","","","","","","","","",""
"727","","j","psychophysics","57","214280","0.0-7.0-1.0-1.0-0.0-0.24","3","3","4","3","4","3","3","4","4","4","4","5","2","4","4","4","5","5","4","5","1","1","2","1","2","2","1","1","1","1","1","0","0","1","1","0","1","0","0","1","0","1","0","0","4","1","1","1","1","1","1","4","4","1","1","776085809274294274","张","313","","","","match","","","","","","","","","","","","","","key","j","6.944592741935565","960","536","j","true","match","img/pentagon.png","五边","五边","ALT1_2","prac_ALT1_2","","","","","","","","","","","",""
"null","<span style='color:GreenYellow; font-size: 70px;'>正确! </span>","null","html-keyboard-response","58","214781","0.0-7.0-1.0-1.0-0.0-1.24","3","3","4","3","4","3","3","4","4","4","4","5","2","4","4","4","5","5","4","5","1","1","2","1","2","2","1","1","1","1","1","0","0","1","1","0","1","0","0","1","0","1","0","0","4","1","1","1","1","1","1","4","4","1","1","776085809274294274","张","313","","","","","","","","","","","","","","","","","","","","","","","","","","","","","","feedback_test","","","","","","","","","","","",""
"720","","j","psychophysics","59","216502","0.0-7.0-1.0-1.0-0.0-0.25","3","3","4","3","4","3","3","4","4","4","4","5","2","4","4","4","5","5","4","5","1","1","2","1","2","2","1","1","1","1","1","0","0","1","1","0","1","0","0","1","0","1","0","0","4","1","1","1","1","1","1","4","4","1","1","776085809274294274","张","313","","","","match","","","","","","","","","","","","","","key","j","6.972934959349611","960","536","j","true","match","img/pentagon.png","五边","五边","ALT1_2","prac_ALT1_2","","","","","","","","","","","",""
"null","<span style='color:GreenYellow; font-size: 70px;'>正确! </span>","null","html-keyboard-response","60","217002","0.0-7.0-1.0-1.0-0.0-1.25","3","3","4","3","4","3","3","4","4","4","4","5","2","4","4","4","5","5","4","5","1","1","2","1","2","2","1","1","1","1","1","0","0","1","1","0","1","0","0","1","0","1","0","0","4","1","1","1","1","1","1","4","4","1","1","776085809274294274","张","313","","","","","","","","","","","","","","","","","","","","","","","","","","","","","","feedback_test","","","","","","","","","","","",""
"718","","f","psychophysics","61","218722","0.0-7.0-1.0-1.0-0.0-0.26","3","3","4","3","4","3","3","4","4","4","4","5","2","4","4","4","5","5","4","5","1","1","2","1","2","2","1","1","1","1","1","0","0","1","1","0","1","0","0","1","0","1","0","0","4","1","1","1","1","1","1","4","4","1","1","776085809274294274","张","313","","","","nonmatch","","","","","","","","","","","","","","key","f","6.944591093117344","960","536","f","true","nonmatch","img/triangle.png","梯形","三角","ALT1_2","prac_ALT1_2","","","","","","","","","","","",""
"null","<span style='color:GreenYellow; font-size: 70px;'>正确! </span>","null","html-keyboard-response","62","219223","0.0-7.0-1.0-1.0-0.0-1.26","3","3","4","3","4","3","3","4","4","4","4","5","2","4","4","4","5","5","4","5","1","1","2","1","2","2","1","1","1","1","1","0","0","1","1","0","1","0","0","1","0","1","0","0","4","1","1","1","1","1","1","4","4","1","1","776085809274294274","张","313","","","","","","","","","","","","","","","","","","","","","","","","","","","","","","feedback_test","","","","","","","","","","","",""
"659","","j","psychophysics","63","220883","0.0-7.0-1.0-1.0-0.0-0.27","3","3","4","3","4","3","3","4","4","4","4","5","2","4","4","4","5","5","4","5","1","1","2","1","2","2","1","1","1","1","1","0","0","1","1","0","1","0","0","1","0","1","0","0","4","1","1","1","1","1","1","4","4","1","1","776085809274294274","张","313","","","","match","","","","","","","","","","","","","","key","j","6.94458823529414","960","536","j","true","match","img/trapezoid.png","梯形","梯形","ALT1_2","prac_ALT1_2","","","","","","","","","","","",""
"null","<span style='color:GreenYellow; font-size: 70px;'>正确! </span>","null","html-keyboard-response","64","221385","0.0-7.0-1.0-1.0-0.0-1.27","3","3","4","3","4","3","3","4","4","4","4","5","2","4","4","4","5","5","4","5","1","1","2","1","2","2","1","1","1","1","1","0","0","1","1","0","1","0","0","1","0","1","0","0","4","1","1","1","1","1","1","4","4","1","1","776085809274294274","张","313","","","","","","","","","","","","","","","","","","","","","","","","","","","","","","feedback_test","","","","","","","","","","","",""
"613","","f","psychophysics","65","222999","0.0-7.0-1.0-1.0-0.0-0.28","3","3","4","3","4","3","3","4","4","4","4","5","2","4","4","4","5","5","4","5","1","1","2","1","2","2","1","1","1","1","1","0","0","1","1","0","1","0","0","1","0","1","0","0","4","1","1","1","1","1","1","4","4","1","1","776085809274294274","张","313","","","","nonmatch","","","","","","","","","","","","","","key","f","6.9444094827586325","960","536","j","false","match","img/circle.png","圆形","圆形","ALT1_2","prac_ALT1_2","","","","","","","","","","","",""
"null","<span style='color:red; font-size: 70px;'>错误! </span>","null","html-keyboard-response","66","223500","0.0-7.0-1.0-1.0-0.0-1.28","3","3","4","3","4","3","3","4","4","4","4","5","2","4","4","4","5","5","4","5","1","1","2","1","2","2","1","1","1","1","1","0","0","1","1","0","1","0","0","1","0","1","0","0","4","1","1","1","1","1","1","4","4","1","1","776085809274294274","张","313","","","","","","","","","","","","","","","","","","","","","","","","","","","","","","feedback_test","","","","","","","","","","","",""
"722","","f","psychophysics","67","225223","0.0-7.0-1.0-1.0-0.0-0.29","3","3","4","3","4","3","3","4","4","4","4","5","2","4","4","4","5","5","4","5","1","1","2","1","2","2","1","1","1","1","1","0","0","1","1","0","1","0","0","1","0","1","0","0","4","1","1","1","1","1","1","4","4","1","1","776085809274294274","张","313","","","","nonmatch","","","","","","","","","","","","","","key","f","6.944599190283367","960","536","f","true","nonmatch","img/trapezoid.png","三角","梯形","ALT1_2","prac_ALT1_2","","","","","","","","","","","",""
"null","<span style='color:GreenYellow; font-size: 70px;'>正确! </span>","null","html-keyboard-response","68","225725","0.0-7.0-1.0-1.0-0.0-1.29","3","3","4","3","4","3","3","4","4","4","4","5","2","4","4","4","5","5","4","5","1","1","2","1","2","2","1","1","1","1","1","0","0","1","1","0","1","0","0","1","0","1","0","0","4","1","1","1","1","1","1","4","4","1","1","776085809274294274","张","313","","","","","","","","","","","","","","","","","","","","","","","","","","","","","","feedback_test","","","","","","","","","","","",""
"656","","j","psychophysics","69","227381","0.0-7.0-1.0-1.0-0.0-0.30","3","3","4","3","4","3","3","4","4","4","4","5","2","4","4","4","5","5","4","5","1","1","2","1","2","2","1","1","1","1","1","0","0","1","1","0","1","0","0","1","0","1","0","0","4","1","1","1","1","1","1","4","4","1","1","776085809274294274","张","313","","","","match","","","","","","","","","","","","","","key","j","6.944466386554605","960","536","j","true","match","img/triangle.png","三角","三角","ALT1_2","prac_ALT1_2","","","","","","","","","","","",""
"null","<span style='color:GreenYellow; font-size: 70px;'>正确! </span>","null","html-keyboard-response","70","227883","0.0-7.0-1.0-1.0-0.0-1.30","3","3","4","3","4","3","3","4","4","4","4","5","2","4","4","4","5","5","4","5","1","1","2","1","2","2","1","1","1","1","1","0","0","1","1","0","1","0","0","1","0","1","0","0","4","1","1","1","1","1","1","4","4","1","1","776085809274294274","张","313","","","","","","","","","","","","","","","","","","","","","","","","","","","","","","feedback_test","","","","","","","","","","","",""
"711","","f","psychophysics","71","229595","0.0-7.0-1.0-1.0-0.0-0.31","3","3","4","3","4","3","3","4","4","4","4","5","2","4","4","4","5","5","4","5","1","1","2","1","2","2","1","1","1","1","1","0","0","1","1","0","1","0","0","1","0","1","0","0","4","1","1","1","1","1","1","4","4","1","1","776085809274294274","张","313","","","","nonmatch","","","","","","","","","","","","","","key","f","6.944551020408078","960","536","f","true","nonmatch","img/triangle.png","五边","三角","ALT1_2","prac_ALT1_2","","","","","","","","","","","",""
"null","<span style='color:GreenYellow; font-size: 70px;'>正确! </span>","null","html-keyboard-response","72","230097","0.0-7.0-1.0-1.0-0.0-1.31","3","3","4","3","4","3","3","4","4","4","4","5","2","4","4","4","5","5","4","5","1","1","2","1","2","2","1","1","1","1","1","0","0","1","1","0","1","0","0","1","0","1","0","0","4","1","1","1","1","1","1","4","4","1","1","776085809274294274","张","313","","","","","","","","","","","","","","","","","","","","","","","","","","","","","","feedback_test","","","","","","","","","","","",""
"1116","","f","psychophysics","73","232213","0.0-7.0-1.0-1.0-0.0-0.32","3","3","4","3","4","3","3","4","4","4","4","5","2","4","4","4","5","5","4","5","1","1","2","1","2","2","1","1","1","1","1","0","0","1","1","0","1","0","0","1","0","1","0","0","4","1","1","1","1","1","1","4","4","1","1","776085809274294274","张","313","","","","nonmatch","","","","","","","","","","","","","","key","f","6.944554455445487","960","536","f","true","nonmatch","img/trapezoid.png","五边","梯形","ALT1_2","prac_ALT1_2","","","","","","","","","","","",""
"null","<span style='color:GreenYellow; font-size: 70px;'>正确! </span>","null","html-keyboard-response","74","232715","0.0-7.0-1.0-1.0-0.0-1.32","3","3","4","3","4","3","3","4","4","4","4","5","2","4","4","4","5","5","4","5","1","1","2","1","2","2","1","1","1","1","1","0","0","1","1","0","1","0","0","1","0","1","0","0","4","1","1","1","1","1","1","4","4","1","1","776085809274294274","张","313","","","","","","","","","","","","","","","","","","","","","","","","","","","","","","feedback_test","","","","","","","","","","","",""
"767","","f","psychophysics","75","234484","0.0-7.0-1.0-1.0-0.0-0.33","3","3","4","3","4","3","3","4","4","4","4","5","2","4","4","4","5","5","4","5","1","1","2","1","2","2","1","1","1","1","1","0","0","1","1","0","1","0","0","1","0","1","0","0","4","1","1","1","1","1","1","4","4","1","1","776085809274294274","张","313","","","","nonmatch","","","","","","","","","","","","","","key","f","6.944600790513821","960","536","f","true","nonmatch","img/pentagon.png","三角","五边","ALT1_2","prac_ALT1_2","","","","","","","","","","","",""
"null","<span style='color:GreenYellow; font-size: 70px;'>正确! </span>","null","html-keyboard-response","76","234985","0.0-7.0-1.0-1.0-0.0-1.33","3","3","4","3","4","3","3","4","4","4","4","5","2","4","4","4","5","5","4","5","1","1","2","1","2","2","1","1","1","1","1","0","0","1","1","0","1","0","0","1","0","1","0","0","4","1","1","1","1","1","1","4","4","1","1","776085809274294274","张","313","","","","","","","","","","","","","","","","","","","","","","","","","","","","","","feedback_test","","","","","","","","","","","",""
"521","","j","psychophysics","77","236507","0.0-7.0-1.0-1.0-0.0-0.34","3","3","4","3","4","3","3","4","4","4","4","5","2","4","4","4","5","5","4","5","1","1","2","1","2","2","1","1","1","1","1","0","0","1","1","0","1","0","0","1","0","1","0","0","4","1","1","1","1","1","1","4","4","1","1","776085809274294274","张","313","","","","match","","","","","","","","","","","","","","key","j","6.94467889908258","960","536","j","true","match","img/triangle.png","三角","三角","ALT1_2","prac_ALT1_2","","","","","","","","","","","",""
"null","<span style='color:GreenYellow; font-size: 70px;'>正确! </span>","null","html-keyboard-response","78","237007","0.0-7.0-1.0-1.0-0.0-1.34","3","3","4","3","4","3","3","4","4","4","4","5","2","4","4","4","5","5","4","5","1","1","2","1","2","2","1","1","1","1","1","0","0","1","1","0","1","0","0","1","0","1","0","0","4","1","1","1","1","1","1","4","4","1","1","776085809274294274","张","313","","","","","","","","","","","","","","","","","","","","","","","","","","","","","","feedback_test","","","","","","","","","","","",""
"569","","f","psychophysics","79","238578","0.0-7.0-1.0-1.0-0.0-0.35","3","3","4","3","4","3","3","4","4","4","4","5","2","4","4","4","5","5","4","5","1","1","2","1","2","2","1","1","1","1","1","0","0","1","1","0","1","0","0","1","0","1","0","0","4","1","1","1","1","1","1","4","4","1","1","776085809274294274","张","313","","","","nonmatch","","","","","","","","","","","","","","key","f","6.9446133333333355","960","536","j","false","match","img/circle.png","圆形","圆形","ALT1_2","prac_ALT1_2","","","","","","","","","","","",""
"null","<span style='color:red; font-size: 70px;'>错误! </span>","null","html-keyboard-response","80","239078","0.0-7.0-1.0-1.0-0.0-1.35","3","3","4","3","4","3","3","4","4","4","4","5","2","4","4","4","5","5","4","5","1","1","2","1","2","2","1","1","1","1","1","0","0","1","1","0","1","0","0","1","0","1","0","0","4","1","1","1","1","1","1","4","4","1","1","776085809274294274","张","313","","","","","","","","","","","","","","","","","","","","","","","","","","","","","","feedback_test","","","","","","","","","","","",""
"829","","f","psychophysics","81","240908","0.0-7.0-1.0-1.0-0.0-0.36","3","3","4","3","4","3","3","4","4","4","4","5","2","4","4","4","5","5","4","5","1","1","2","1","2","2","1","1","1","1","1","0","0","1","1","0","1","0","0","1","0","1","0","0","4","1","1","1","1","1","1","4","4","1","1","776085809274294274","张","313","","","","nonmatch","","","","","","","","","","","","","","key","f","6.944606870228983","960","536","f","true","nonmatch","img/pentagon.png","圆形","五边","ALT1_2","prac_ALT1_2","","","","","","","","","","","",""
"null","<span style='color:GreenYellow; font-size: 70px;'>正确! </span>","null","html-keyboard-response","82","241408","0.0-7.0-1.0-1.0-0.0-1.36","3","3","4","3","4","3","3","4","4","4","4","5","2","4","4","4","5","5","4","5","1","1","2","1","2","2","1","1","1","1","1","0","0","1","1","0","1","0","0","1","0","1","0","0","4","1","1","1","1","1","1","4","4","1","1","776085809274294274","张","313","","","","","","","","","","","","","","","","","","","","","","","","","","","","","","feedback_test","","","","","","","","","","","",""
"816","","j","psychophysics","83","243225","0.0-7.0-1.0-1.0-0.0-0.37","3","3","4","3","4","3","3","4","4","4","4","5","2","4","4","4","5","5","4","5","1","1","2","1","2","2","1","1","1","1","1","0","0","1","1","0","1","0","0","1","0","1","0","0","4","1","1","1","1","1","1","4","4","1","1","776085809274294274","张","313","","","","match","","","","","","","","","","","","","","key","j","6.944592307692242","960","536","j","true","match","img/trapezoid.png","梯形","梯形","ALT1_2","prac_ALT1_2","","","","","","","","","","","",""
"null","<span style='color:GreenYellow; font-size: 70px;'>正确! </span>","null","html-keyboard-response","84","243728","0.0-7.0-1.0-1.0-0.0-1.37","3","3","4","3","4","3","3","4","4","4","4","5","2","4","4","4","5","5","4","5","1","1","2","1","2","2","1","1","1","1","1","0","0","1","1","0","1","0","0","1","0","1","0","0","4","1","1","1","1","1","1","4","4","1","1","776085809274294274","张","313","","","","","","","","","","","","","","","","","","","","","","","","","","","","","","feedback_test","","","","","","","","","","","",""
"745","","j","psychophysics","85","245473","0.0-7.0-1.0-1.0-0.0-0.38","3","3","4","3","4","3","3","4","4","4","4","5","2","4","4","4","5","5","4","5","1","1","2","1","2","2","1","1","1","1","1","0","0","1","1","0","1","0","0","1","0","1","0","0","4","1","1","1","1","1","1","4","4","1","1","776085809274294274","张","313","","","","match","","","","","","","","","","","","","","key","j","6.9370200803212825","960","536","j","true","match","img/trapezoid.png","梯形","梯形","ALT1_2","prac_ALT1_2","","","","","","","","","","","",""
"null","<span style='color:GreenYellow; font-size: 70px;'>正确! </span>","null","html-keyboard-response","86","245974","0.0-7.0-1.0-1.0-0.0-1.38","3","3","4","3","4","3","3","4","4","4","4","5","2","4","4","4","5","5","4","5","1","1","2","1","2","2","1","1","1","1","1","0","0","1","1","0","1","0","0","1","0","1","0","0","4","1","1","1","1","1","1","4","4","1","1","776085809274294274","张","313","","","","","","","","","","","","","","","","","","","","","","","","","","","","","","feedback_test","","","","","","","","","","","",""
"699","","f","psychophysics","87","247673","0.0-7.0-1.0-1.0-0.0-0.39","3","3","4","3","4","3","3","4","4","4","4","5","2","4","4","4","5","5","4","5","1","1","2","1","2","2","1","1","1","1","1","0","0","1","1","0","1","0","0","1","0","1","0","0","4","1","1","1","1","1","1","4","4","1","1","776085809274294274","张","313","","","","nonmatch","","","","","","","","","","","","","","key","f","6.944586065573738","960","536","f","true","nonmatch","img/triangle.png","圆形","三角","ALT1_2","prac_ALT1_2","","","","","","","","","","","",""
"null","<span style='color:GreenYellow; font-size: 70px;'>正确! </span>","null","html-keyboard-response","88","248173","0.0-7.0-1.0-1.0-0.0-1.39","3","3","4","3","4","3","3","4","4","4","4","5","2","4","4","4","5","5","4","5","1","1","2","1","2","2","1","1","1","1","1","0","0","1","1","0","1","0","0","1","0","1","0","0","4","1","1","1","1","1","1","4","4","1","1","776085809274294274","张","313","","","","","","","","","","","","","","","","","","","","","","","","","","","","","","feedback_test","","","","","","","","","","","",""
"611","","f","psychophysics","89","249785","0.0-7.0-1.0-1.0-0.0-0.40","3","3","4","3","4","3","3","4","4","4","4","5","2","4","4","4","5","5","4","5","1","1","2","1","2","2","1","1","1","1","1","0","0","1","1","0","1","0","0","1","0","1","0","0","4","1","1","1","1","1","1","4","4","1","1","776085809274294274","张","313","","","","nonmatch","","","","","","","","","","","","","","key","f","6.944571428571413","960","536","f","true","nonmatch","img/circle.png","三角","圆形","ALT1_2","prac_ALT1_2","","","","","","","","","","","",""
"null","<span style='color:GreenYellow; font-size: 70px;'>正确! </span>","null","html-keyboard-response","90","250286","0.0-7.0-1.0-1.0-0.0-1.40","3","3","4","3","4","3","3","4","4","4","4","5","2","4","4","4","5","5","4","5","1","1","2","1","2","2","1","1","1","1","1","0","0","1","1","0","1","0","0","1","0","1","0","0","4","1","1","1","1","1","1","4","4","1","1","776085809274294274","张","313","","","","","","","","","","","","","","","","","","","","","","","","","","","","","","feedback_test","","","","","","","","","","","",""
"819","","f","psychophysics","91","252105","0.0-7.0-1.0-1.0-0.0-0.41","3","3","4","3","4","3","3","4","4","4","4","5","2","4","4","4","5","5","4","5","1","1","2","1","2","2","1","1","1","1","1","0","0","1","1","0","1","0","0","1","0","1","0","0","4","1","1","1","1","1","1","4","4","1","1","776085809274294274","张","313","","","","nonmatch","","","","","","","","","","","","","","key","f","6.944605363984624","960","536","j","false","match","img/circle.png","圆形","圆形","ALT1_2","prac_ALT1_2","","","","","","","","","","","",""
"null","<span style='color:red; font-size: 70px;'>错误! </span>","null","html-keyboard-response","92","252607","0.0-7.0-1.0-1.0-0.0-1.41","3","3","4","3","4","3","3","4","4","4","4","5","2","4","4","4","5","5","4","5","1","1","2","1","2","2","1","1","1","1","1","0","0","1","1","0","1","0","0","1","0","1","0","0","4","1","1","1","1","1","1","4","4","1","1","776085809274294274","张","313","","","","","","","","","","","","","","","","","","","","","","","","","","","","","","feedback_test","","","","","","","","","","","",""
"794","","f","psychophysics","93","254402","0.0-7.0-1.0-1.0-0.0-0.42","3","3","4","3","4","3","3","4","4","4","4","5","2","4","4","4","5","5","4","5","1","1","2","1","2","2","1","1","1","1","1","0","0","1","1","0","1","0","0","1","0","1","0","0","4","1","1","1","1","1","1","4","4","1","1","776085809274294274","张","313","","","","nonmatch","","","","","","","","","","","","","","key","f","6.944618677042772","960","536","f","true","nonmatch","img/trapezoid.png","圆形","梯形","ALT1_2","prac_ALT1_2","","","","","","","","","","","",""
"null","<span style='color:GreenYellow; font-size: 70px;'>正确! </span>","null","html-keyboard-response","94","254904","0.0-7.0-1.0-1.0-0.0-1.42","3","3","4","3","4","3","3","4","4","4","4","5","2","4","4","4","5","5","4","5","1","1","2","1","2","2","1","1","1","1","1","0","0","1","1","0","1","0","0","1","0","1","0","0","4","1","1","1","1","1","1","4","4","1","1","776085809274294274","张","313","","","","","","","","","","","","","","","","","","","","","","","","","","","","","","feedback_test","","","","","","","","","","","",""
"638","","j","psychophysics","95","256542","0.0-7.0-1.0-1.0-0.0-0.43","3","3","4","3","4","3","3","4","4","4","4","5","2","4","4","4","5","5","4","5","1","1","2","1","2","2","1","1","1","1","1","0","0","1","1","0","1","0","0","1","0","1","0","0","4","1","1","1","1","1","1","4","4","1","1","776085809274294274","张","313","","","","match","","","","","","","","","","","","","","key","j","6.944612765957433","960","536","j","true","match","img/triangle.png","三角","三角","ALT1_2","prac_ALT1_2","","","","","","","","","","","",""
"null","<span style='color:GreenYellow; font-size: 70px;'>正确! </span>","null","html-keyboard-response","96","257043","0.0-7.0-1.0-1.0-0.0-1.43","3","3","4","3","4","3","3","4","4","4","4","5","2","4","4","4","5","5","4","5","1","1","2","1","2","2","1","1","1","1","1","0","0","1","1","0","1","0","0","1","0","1","0","0","4","1","1","1","1","1","1","4","4","1","1","776085809274294274","张","313","","","","","","","","","","","","","","","","","","","","","","","","","","","","","","feedback_test","","","","","","","","","","","",""
"605","","f","psychophysics","97","258650","0.0-7.0-1.0-1.0-0.0-0.44","3","3","4","3","4","3","3","4","4","4","4","5","2","4","4","4","5","5","4","5","1","1","2","1","2","2","1","1","1","1","1","0","0","1","1","0","1","0","0","1","0","1","0","0","4","1","1","1","1","1","1","4","4","1","1","776085809274294274","张","313","","","","nonmatch","","","","","","","","","","","","","","key","f","6.9445391304348085","960","536","f","true","nonmatch","img/circle.png","五边","圆形","ALT1_2","prac_ALT1_2","","","","","","","","","","","",""
"null","<span style='color:GreenYellow; font-size: 70px;'>正确! </span>","null","html-keyboard-response","98","259151","0.0-7.0-1.0-1.0-0.0-1.44","3","3","4","3","4","3","3","4","4","4","4","5","2","4","4","4","5","5","4","5","1","1","2","1","2","2","1","1","1","1","1","0","0","1","1","0","1","0","0","1","0","1","0","0","4","1","1","1","1","1","1","4","4","1","1","776085809274294274","张","313","","","","","","","","","","","","","","","","","","","","","","","","","","","","","","feedback_test","","","","","","","","","","","",""
"710","","f","psychophysics","99","260862","0.0-7.0-1.0-1.0-0.0-0.45","3","3","4","3","4","3","3","4","4","4","4","5","2","4","4","4","5","5","4","5","1","1","2","1","2","2","1","1","1","1","1","0","0","1","1","0","1","0","0","1","0","1","0","0","4","1","1","1","1","1","1","4","4","1","1","776085809274294274","张","313","","","","nonmatch","","","","","","","","","","","","","","key","f","6.976209876543258","960","536","f","true","nonmatch","img/circle.png","梯形","圆形","ALT1_2","prac_ALT1_2","","","","","","","","","","","",""
"null","<span style='color:GreenYellow; font-size: 70px;'>正确! </span>","null","html-keyboard-response","100","261363","0.0-7.0-1.0-1.0-0.0-1.45","3","3","4","3","4","3","3","4","4","4","4","5","2","4","4","4","5","5","4","5","1","1","2","1","2","2","1","1","1","1","1","0","0","1","1","0","1","0","0","1","0","1","0","0","4","1","1","1","1","1","1","4","4","1","1","776085809274294274","张","313","","","","","","","","","","","","","","","","","","","","","","","","","","","","","","feedback_test","","","","","","","","","","","",""
"685","","j","psychophysics","101","263048","0.0-7.0-1.0-1.0-0.0-0.46","3","3","4","3","4","3","3","4","4","4","4","5","2","4","4","4","5","5","4","5","1","1","2","1","2","2","1","1","1","1","1","0","0","1","1","0","1","0","0","1","0","1","0","0","4","1","1","1","1","1","1","4","4","1","1","776085809274294274","张","313","","","","match","","","","","","","","","","","","","","key","j","6.94463636363642","960","536","j","true","match","img/pentagon.png","五边","五边","ALT1_2","prac_ALT1_2","","","","","","","","","","","",""
"null","<span style='color:GreenYellow; font-size: 70px;'>正确! </span>","null","html-keyboard-response","102","263549","0.0-7.0-1.0-1.0-0.0-1.46","3","3","4","3","4","3","3","4","4","4","4","5","2","4","4","4","5","5","4","5","1","1","2","1","2","2","1","1","1","1","1","0","0","1","1","0","1","0","0","1","0","1","0","0","4","1","1","1","1","1","1","4","4","1","1","776085809274294274","张","313","","","","","","","","","","","","","","","","","","","","","","","","","","","","","","feedback_test","","","","","","","","","","","",""
"883","","f","psychophysics","103","265433","0.0-7.0-1.0-1.0-0.0-0.47","3","3","4","3","4","3","3","4","4","4","4","5","2","4","4","4","5","5","4","5","1","1","2","1","2","2","1","1","1","1","1","0","0","1","1","0","1","0","0","1","0","1","0","0","4","1","1","1","1","1","1","4","4","1","1","776085809274294274","张","313","","","","nonmatch","","","","","","","","","","","","","","key","f","6.944585185185187","960","536","f","true","nonmatch","img/pentagon.png","梯形","五边","ALT1_2","prac_ALT1_2","","","","","","","","","","","",""
"null","<span style='color:GreenYellow; font-size: 70px;'>正确! </span>","null","html-keyboard-response","104","265934","0.0-7.0-1.0-1.0-0.0-1.47","3","3","4","3","4","3","3","4","4","4","4","5","2","4","4","4","5","5","4","5","1","1","2","1","2","2","1","1","1","1","1","0","0","1","1","0","1","0","0","1","0","1","0","0","4","1","1","1","1","1","1","4","4","1","1","776085809274294274","张","313","","","","","","","","","","","","","","","","","","","","","","","","","","","","","","feedback_test","","","","","","","","","","","",""
"27402","<style>.context{color:white; font-size: 35px; line-height:40px}</style>                          <div><p class='context'>您正确回答了77% 的试次。</p><p class='context'>您的平均反应时为749毫秒。</p><p class='context'>恭喜您完成练习。按空格键进入正式实验。</p><p class='footer' style='font-size: 35px; line-height:40px;'>请在进入正式实验实验之前将您的<span style='color: lightgreen;'>食指</span>放在电脑键盘的相应键位上进行按键。</p>"," ","html-keyboard-response","105","293338","0.0-7.0-1.0-2.0","3","3","4","3","4","3","3","4","4","4","4","5","2","4","4","4","5","5","4","5","1","1","2","1","2","2","1","1","1","1","1","0","0","1","1","0","1","0","0","1","0","1","0","0","4","1","1","1","1","1","1","4","4","1","1","776085809274294274","张","313","","","","","","","","","","","","","","","","","","","","","","","","","","","","","","","","","","","","","","","","","",""
"1430","
  <p style='color: white; font-size: 22px'>请您将手指放在按键上，准备进入正式的匹配任务。</p>
  <p> <div style = ""color: green""><按空格键进入下一阶段的匹配任务></div></p>
  "," ","html-keyboard-response","106","294771","0.0-7.0-1.0-3.0","3","3","4","3","4","3","3","4","4","4","4","5","2","4","4","4","5","5","4","5","1","1","2","1","2","2","1","1","1","1","1","0","0","1","1","0","1","0","0","1","0","1","0","0","4","1","1","1","1","1","1","4","4","1","1","776085809274294274","张","313","","","","","","","","","","","","","","","","","","","","","","","","","","","","","","","","","","","","","","","","","",""
"758","","f","psychophysics","107","296530","0.0-7.0-1.0-4.0-0.0-0.0","3","3","4","3","4","3","3","4","4","4","4","5","2","4","4","4","5","5","4","5","1","1","2","1","2","2","1","1","1","1","1","0","0","1","1","0","1","0","0","1","0","1","0","0","4","1","1","1","1","1","1","4","4","1","1","776085809274294274","张","313","","","","nonmatch","","","","","","","","","","","","","","key","f","6.944607142857017","960","536","f","true","nonmatch","img/circle.png","三角","圆形","ALT1","formal_ALT1_2","","","","","","","","","","","",""
"null","<span style='color:GreenYellow; font-size: 70px;'>正确! </span>","null","html-keyboard-response","108","297032","0.0-7.0-1.0-4.0-0.0-1.0","3","3","4","3","4","3","3","4","4","4","4","5","2","4","4","4","5","5","4","5","1","1","2","1","2","2","1","1","1","1","1","0","0","1","1","0","1","0","0","1","0","1","0","0","4","1","1","1","1","1","1","4","4","1","1","776085809274294274","张","313","","","","","","","","","","","","","","","","","","","","","","","","","","","","","","feedback_test","","","","","","","","","","","",""
"625","","j","psychophysics","109","298657","0.0-7.0-1.0-4.0-0.0-0.1","3","3","4","3","4","3","3","4","4","4","4","5","2","4","4","4","5","5","4","5","1","1","2","1","2","2","1","1","1","1","1","0","0","1","1","0","1","0","0","1","0","1","0","0","4","1","1","1","1","1","1","4","4","1","1","776085809274294274","张","313","","","","match","","","","","","","","","","","","","","key","j","6.944536480686653","960","536","j","true","match","img/triangle.png","三角","三角","ALT1","formal_ALT1_2","","","","","","","","","","","",""
"null","<span style='color:GreenYellow; font-size: 70px;'>正确! </span>","null","html-keyboard-response","110","299158","0.0-7.0-1.0-4.0-0.0-1.1","3","3","4","3","4","3","3","4","4","4","4","5","2","4","4","4","5","5","4","5","1","1","2","1","2","2","1","1","1","1","1","0","0","1","1","0","1","0","0","1","0","1","0","0","4","1","1","1","1","1","1","4","4","1","1","776085809274294274","张","313","","","","","","","","","","","","","","","","","","","","","","","","","","","","","","feedback_test","","","","","","","","","","","",""
"690","","j","psychophysics","111","300849","0.0-7.0-1.0-4.0-0.0-0.2","3","3","4","3","4","3","3","4","4","4","4","5","2","4","4","4","5","5","4","5","1","1","2","1","2","2","1","1","1","1","1","0","0","1","1","0","1","0","0","1","0","1","0","0","4","1","1","1","1","1","1","4","4","1","1","776085809274294274","张","313","","","","match","","","","","","","","","","","","","","key","j","6.94462551440327","960","536","j","true","match","img/triangle.png","三角","三角","ALT1","formal_ALT1_2","","","","","","","","","","","",""
"null","<span style='color:GreenYellow; font-size: 70px;'>正确! </span>","null","html-keyboard-response","112","301350","0.0-7.0-1.0-4.0-0.0-1.2","3","3","4","3","4","3","3","4","4","4","4","5","2","4","4","4","5","5","4","5","1","1","2","1","2","2","1","1","1","1","1","0","0","1","1","0","1","0","0","1","0","1","0","0","4","1","1","1","1","1","1","4","4","1","1","776085809274294274","张","313","","","","","","","","","","","","","","","","","","","","","","","","","","","","","","feedback_test","","","","","","","","","","","",""
"null","","null","psychophysics","113","303552","0.0-7.0-1.0-4.0-0.0-0.3","3","3","4","3","4","3","3","4","4","4","4","5","2","4","4","4","5","5","4","5","1","1","2","1","2","2","1","1","1","1","1","0","0","1","1","0","1","0","0","1","0","1","0","0","4","1","1","1","1","1","1","4","4","1","1","776085809274294274","张","313","","","","null","","","","","","","","","","","","","","key","null","6.944648734177094","960","536","f","false","nonmatch","img/triangle.png","圆形","三角","ALT1","formal_ALT1_2","","","","","","","","","","","",""
"null","<span class='add_' style='color:yellow; font-size: 70px;'> 太慢! </span>","null","html-keyboard-response","114","304053","0.0-7.0-1.0-4.0-0.0-1.3","3","3","4","3","4","3","3","4","4","4","4","5","2","4","4","4","5","5","4","5","1","1","2","1","2","2","1","1","1","1","1","0","0","1","1","0","1","0","0","1","0","1","0","0","4","1","1","1","1","1","1","4","4","1","1","776085809274294274","张","313","","","","","","","","","","","","","","","","","","","","","","","","","","","","","","feedback_test","","","","","","","","","","","",""
"1028","","f","psychophysics","115","306081","0.0-7.0-1.0-4.0-0.0-0.4","3","3","4","3","4","3","3","4","4","4","4","5","2","4","4","4","5","5","4","5","1","1","2","1","2","2","1","1","1","1","1","0","0","1","1","0","1","0","0","1","0","1","0","0","4","1","1","1","1","1","1","4","4","1","1","776085809274294274","张","313","","","","nonmatch","","","","","","","","","","","","","","key","f","6.944560137456939","960","536","f","true","nonmatch","img/pentagon.png","圆形","五边","ALT1","formal_ALT1_2","","","","","","","","","","","",""
"null","<span style='color:GreenYellow; font-size: 70px;'>正确! </span>","null","html-keyboard-response","116","306582","0.0-7.0-1.0-4.0-0.0-1.4","3","3","4","3","4","3","3","4","4","4","4","5","2","4","4","4","5","5","4","5","1","1","2","1","2","2","1","1","1","1","1","0","0","1","1","0","1","0","0","1","0","1","0","0","4","1","1","1","1","1","1","4","4","1","1","776085809274294274","张","313","","","","","","","","","","","","","","","","","","","","","","","","","","","","","","feedback_test","","","","","","","","","","","",""
"786","","f","psychophysics","117","308369","0.0-7.0-1.0-4.0-0.0-0.5","3","3","4","3","4","3","3","4","4","4","4","5","2","4","4","4","5","5","4","5","1","1","2","1","2","2","1","1","1","1","1","0","0","1","1","0","1","0","0","1","0","1","0","0","4","1","1","1","1","1","1","4","4","1","1","776085809274294274","张","313","","","","nonmatch","","","","","","","","","","","","","","key","f","6.971893700787304","960","536","f","true","nonmatch","img/pentagon.png","梯形","五边","ALT1","formal_ALT1_2","","","","","","","","","","","",""
"null","<span style='color:GreenYellow; font-size: 70px;'>正确! </span>","null","html-keyboard-response","118","308870","0.0-7.0-1.0-4.0-0.0-1.5","3","3","4","3","4","3","3","4","4","4","4","5","2","4","4","4","5","5","4","5","1","1","2","1","2","2","1","1","1","1","1","0","0","1","1","0","1","0","0","1","0","1","0","0","4","1","1","1","1","1","1","4","4","1","1","776085809274294274","张","313","","","","","","","","","","","","","","","","","","","","","","","","","","","","","","feedback_test","","","","","","","","","","","",""
"722","","j","psychophysics","119","310593","0.0-7.0-1.0-4.0-0.0-0.6","3","3","4","3","4","3","3","4","4","4","4","5","2","4","4","4","5","5","4","5","1","1","2","1","2","2","1","1","1","1","1","0","0","1","1","0","1","0","0","1","0","1","0","0","4","1","1","1","1","1","1","4","4","1","1","776085809274294274","张","313","","","","match","","","","","","","","","","","","","","key","j","6.944684210526314","960","536","j","true","match","img/circle.png","圆形","圆形","ALT1","formal_ALT1_2","","","","","","","","","","","",""
"null","<span style='color:GreenYellow; font-size: 70px;'>正确! </span>","null","html-keyboard-response","120","311094","0.0-7.0-1.0-4.0-0.0-1.6","3","3","4","3","4","3","3","4","4","4","4","5","2","4","4","4","5","5","4","5","1","1","2","1","2","2","1","1","1","1","1","0","0","1","1","0","1","0","0","1","0","1","0","0","4","1","1","1","1","1","1","4","4","1","1","776085809274294274","张","313","","","","","","","","","","","","","","","","","","","","","","","","","","","","","","feedback_test","","","","","","","","","","","",""
"721","","f","psychophysics","121","312815","0.0-7.0-1.0-4.0-0.0-0.7","3","3","4","3","4","3","3","4","4","4","4","5","2","4","4","4","5","5","4","5","1","1","2","1","2","2","1","1","1","1","1","0","0","1","1","0","1","0","0","1","0","1","0","0","4","1","1","1","1","1","1","4","4","1","1","776085809274294274","张","313","","","","nonmatch","","","","","","","","","","","","","","key","f","6.9445748987856515","960","536","f","true","nonmatch","img/triangle.png","五边","三角","ALT1","formal_ALT1_2","","","","","","","","","","","",""
"null","<span style='color:GreenYellow; font-size: 70px;'>正确! </span>","null","html-keyboard-response","122","313323","0.0-7.0-1.0-4.0-0.0-1.7","3","3","4","3","4","3","3","4","4","4","4","5","2","4","4","4","5","5","4","5","1","1","2","1","2","2","1","1","1","1","1","0","0","1","1","0","1","0","0","1","0","1","0","0","4","1","1","1","1","1","1","4","4","1","1","776085809274294274","张","313","","","","","","","","","","","","","","","","","","","","","","","","","","","","","","feedback_test","","","","","","","","","","","",""
"638","","f","psychophysics","123","314962","0.0-7.0-1.0-4.0-0.0-0.8","3","3","4","3","4","3","3","4","4","4","4","5","2","4","4","4","5","5","4","5","1","1","2","1","2","2","1","1","1","1","1","0","0","1","1","0","1","0","0","1","0","1","0","0","4","1","1","1","1","1","1","4","4","1","1","776085809274294274","张","313","","","","nonmatch","","","","","","","","","","","","","","key","f","6.9445617021276975","960","536","f","true","nonmatch","img/circle.png","五边","圆形","ALT1","formal_ALT1_2","","","","","","","","","","","",""
"null","<span style='color:GreenYellow; font-size: 70px;'>正确! </span>","null","html-keyboard-response","124","315463","0.0-7.0-1.0-4.0-0.0-1.8","3","3","4","3","4","3","3","4","4","4","4","5","2","4","4","4","5","5","4","5","1","1","2","1","2","2","1","1","1","1","1","0","0","1","1","0","1","0","0","1","0","1","0","0","4","1","1","1","1","1","1","4","4","1","1","776085809274294274","张","313","","","","","","","","","","","","","","","","","","","","","","","","","","","","","","feedback_test","","","","","","","","","","","",""
"575","","f","psychophysics","125","317039","0.0-7.0-1.0-4.0-0.0-0.9","3","3","4","3","4","3","3","4","4","4","4","5","2","4","4","4","5","5","4","5","1","1","2","1","2","2","1","1","1","1","1","0","0","1","1","0","1","0","0","1","0","1","0","0","4","1","1","1","1","1","1","4","4","1","1","776085809274294274","张","313","","","","nonmatch","","","","","","","","","","","","","","key","f","6.94461504424782","960","536","j","false","match","img/circle.png","圆形","圆形","ALT1","formal_ALT1_2","","","","","","","","","","","",""
"null","<span style='color:red; font-size: 70px;'>错误! </span>","null","html-keyboard-response","126","317539","0.0-7.0-1.0-4.0-0.0-1.9","3","3","4","3","4","3","3","4","4","4","4","5","2","4","4","4","5","5","4","5","1","1","2","1","2","2","1","1","1","1","1","0","0","1","1","0","1","0","0","1","0","1","0","0","4","1","1","1","1","1","1","4","4","1","1","776085809274294274","张","313","","","","","","","","","","","","","","","","","","","","","","","","","","","","","","feedback_test","","","","","","","","","","","",""
"636","","j","psychophysics","127","319175","0.0-7.0-1.0-4.0-0.0-0.10","3","3","4","3","4","3","3","4","4","4","4","5","2","4","4","4","5","5","4","5","1","1","2","1","2","2","1","1","1","1","1","0","0","1","1","0","1","0","0","1","0","1","0","0","4","1","1","1","1","1","1","4","4","1","1","776085809274294274","张","313","","","","match","","","","","","","","","","","","","","key","j","6.944510638297961","960","536","j","true","match","img/pentagon.png","五边","五边","ALT1","formal_ALT1_2","","","","","","","","","","","",""
"null","<span style='color:GreenYellow; font-size: 70px;'>正确! </span>","null","html-keyboard-response","128","319676","0.0-7.0-1.0-4.0-0.0-1.10","3","3","4","3","4","3","3","4","4","4","4","5","2","4","4","4","5","5","4","5","1","1","2","1","2","2","1","1","1","1","1","0","0","1","1","0","1","0","0","1","0","1","0","0","4","1","1","1","1","1","1","4","4","1","1","776085809274294274","张","313","","","","","","","","","","","","","","","","","","","","","","","","","","","","","","feedback_test","","","","","","","","","","","",""
"628","","f","psychophysics","129","321305","0.0-7.0-1.0-4.0-0.0-0.11","3","3","4","3","4","3","3","4","4","4","4","5","2","4","4","4","5","5","4","5","1","1","2","1","2","2","1","1","1","1","1","0","0","1","1","0","1","0","0","1","0","1","0","0","4","1","1","1","1","1","1","4","4","1","1","776085809274294274","张","313","","","","nonmatch","","","","","","","","","","","","","","key","f","6.9446094420600115","960","536","f","true","nonmatch","img/triangle.png","梯形","三角","ALT1","formal_ALT1_2","","","","","","","","","","","",""
"null","<span style='color:GreenYellow; font-size: 70px;'>正确! </span>","null","html-keyboard-response","130","321806","0.0-7.0-1.0-4.0-0.0-1.11","3","3","4","3","4","3","3","4","4","4","4","5","2","4","4","4","5","5","4","5","1","1","2","1","2","2","1","1","1","1","1","0","0","1","1","0","1","0","0","1","0","1","0","0","4","1","1","1","1","1","1","4","4","1","1","776085809274294274","张","313","","","","","","","","","","","","","","","","","","","","","","","","","","","","","","feedback_test","","","","","","","","","","","",""
"700","","f","psychophysics","131","323506","0.0-7.0-1.0-4.0-0.0-0.12","3","3","4","3","4","3","3","4","4","4","4","5","2","4","4","4","5","5","4","5","1","1","2","1","2","2","1","1","1","1","1","0","0","1","1","0","1","0","0","1","0","1","0","0","4","1","1","1","1","1","1","4","4","1","1","776085809274294274","张","313","","","","nonmatch","","","","","","","","","","","","","","key","f","6.920801652892452","960","536","f","true","nonmatch","img/circle.png","梯形","圆形","ALT1","formal_ALT1_2","","","","","","","","","","","",""
"null","<span style='color:GreenYellow; font-size: 70px;'>正确! </span>","null","html-keyboard-response","132","324020","0.0-7.0-1.0-4.0-0.0-1.12","3","3","4","3","4","3","3","4","4","4","4","5","2","4","4","4","5","5","4","5","1","1","2","1","2","2","1","1","1","1","1","0","0","1","1","0","1","0","0","1","0","1","0","0","4","1","1","1","1","1","1","4","4","1","1","776085809274294274","张","313","","","","","","","","","","","","","","","","","","","","","","","","","","","","","","feedback_test","","","","","","","","","","","",""
"620","","j","psychophysics","133","325641","0.0-7.0-1.0-4.0-0.0-0.13","3","3","4","3","4","3","3","4","4","4","4","5","2","4","4","4","5","5","4","5","1","1","2","1","2","2","1","1","1","1","1","0","0","1","1","0","1","0","0","1","0","1","0","0","4","1","1","1","1","1","1","4","4","1","1","776085809274294274","张","313","","","","match","","","","","","","","","","","","","","key","j","6.944549356222996","960","536","j","true","match","img/pentagon.png","五边","五边","ALT1","formal_ALT1_2","","","","","","","","","","","",""
"null","<span style='color:GreenYellow; font-size: 70px;'>正确! </span>","null","html-keyboard-response","134","326141","0.0-7.0-1.0-4.0-0.0-1.13","3","3","4","3","4","3","3","4","4","4","4","5","2","4","4","4","5","5","4","5","1","1","2","1","2","2","1","1","1","1","1","0","0","1","1","0","1","0","0","1","0","1","0","0","4","1","1","1","1","1","1","4","4","1","1","776085809274294274","张","313","","","","","","","","","","","","","","","","","","","","","","","","","","","","","","feedback_test","","","","","","","","","","","",""
"623","","j","psychophysics","135","327765","0.0-7.0-1.0-4.0-0.0-0.14","3","3","4","3","4","3","3","4","4","4","4","5","2","4","4","4","5","5","4","5","1","1","2","1","2","2","1","1","1","1","1","0","0","1","1","0","1","0","0","1","0","1","0","0","4","1","1","1","1","1","1","4","4","1","1","776085809274294274","张","313","","","","match","","","","","","","","","","","","","","key","j","6.944587982832524","960","536","j","true","match","img/trapezoid.png","梯形","梯形","ALT1","formal_ALT1_2","","","","","","","","","","","",""
"null","<span style='color:GreenYellow; font-size: 70px;'>正确! </span>","null","html-keyboard-response","136","328266","0.0-7.0-1.0-4.0-0.0-1.14","3","3","4","3","4","3","3","4","4","4","4","5","2","4","4","4","5","5","4","5","1","1","2","1","2","2","1","1","1","1","1","0","0","1","1","0","1","0","0","1","0","1","0","0","4","1","1","1","1","1","1","4","4","1","1","776085809274294274","张","313","","","","","","","","","","","","","","","","","","","","","","","","","","","","","","feedback_test","","","","","","","","","","","",""
"773","","j","psychophysics","137","330040","0.0-7.0-1.0-4.0-0.0-0.15","3","3","4","3","4","3","3","4","4","4","4","5","2","4","4","4","5","5","4","5","1","1","2","1","2","2","1","1","1","1","1","0","0","1","1","0","1","0","0","1","0","1","0","0","4","1","1","1","1","1","1","4","4","1","1","776085809274294274","张","313","","","","match","","","","","","","","","","","","","","key","j","6.944633858267623","960","536","j","true","match","img/pentagon.png","五边","五边","ALT1","formal_ALT1_2","","","","","","","","","","","",""
"null","<span style='color:GreenYellow; font-size: 70px;'>正确! </span>","null","html-keyboard-response","138","330541","0.0-7.0-1.0-4.0-0.0-1.15","3","3","4","3","4","3","3","4","4","4","4","5","2","4","4","4","5","5","4","5","1","1","2","1","2","2","1","1","1","1","1","0","0","1","1","0","1","0","0","1","0","1","0","0","4","1","1","1","1","1","1","4","4","1","1","776085809274294274","张","313","","","","","","","","","","","","","","","","","","","","","","","","","","","","","","feedback_test","","","","","","","","","","","",""
"678","","f","psychophysics","139","332219","0.0-7.0-1.0-4.0-0.0-0.16","3","3","4","3","4","3","3","4","4","4","4","5","2","4","4","4","5","5","4","5","1","1","2","1","2","2","1","1","1","1","1","0","0","1","1","0","1","0","0","1","0","1","0","0","4","1","1","1","1","1","1","4","4","1","1","776085809274294274","张","313","","","","nonmatch","","","","","","","","","","","","","","key","f","6.944597510373388","960","536","f","true","nonmatch","img/trapezoid.png","三角","梯形","ALT1","formal_ALT1_2","","","","","","","","","","","",""
"null","<span style='color:GreenYellow; font-size: 70px;'>正确! </span>","null","html-keyboard-response","140","332720","0.0-7.0-1.0-4.0-0.0-1.16","3","3","4","3","4","3","3","4","4","4","4","5","2","4","4","4","5","5","4","5","1","1","2","1","2","2","1","1","1","1","1","0","0","1","1","0","1","0","0","1","0","1","0","0","4","1","1","1","1","1","1","4","4","1","1","776085809274294274","张","313","","","","","","","","","","","","","","","","","","","","","","","","","","","","","","feedback_test","","","","","","","","","","","",""
"630","","j","psychophysics","141","334350","0.0-7.0-1.0-4.0-0.0-0.17","3","3","4","3","4","3","3","4","4","4","4","5","2","4","4","4","5","5","4","5","1","1","2","1","2","2","1","1","1","1","1","0","0","1","1","0","1","0","0","1","0","1","0","0","4","1","1","1","1","1","1","4","4","1","1","776085809274294274","张","313","","","","match","","","","","","","","","","","","","","key","j","6.9445982905983845","960","536","j","true","match","img/trapezoid.png","梯形","梯形","ALT1","formal_ALT1_2","","","","","","","","","","","",""
"null","<span style='color:GreenYellow; font-size: 70px;'>正确! </span>","null","html-keyboard-response","142","334851","0.0-7.0-1.0-4.0-0.0-1.17","3","3","4","3","4","3","3","4","4","4","4","5","2","4","4","4","5","5","4","5","1","1","2","1","2","2","1","1","1","1","1","0","0","1","1","0","1","0","0","1","0","1","0","0","4","1","1","1","1","1","1","4","4","1","1","776085809274294274","张","313","","","","","","","","","","","","","","","","","","","","","","","","","","","","","","feedback_test","","","","","","","","","","","",""
"761","","f","psychophysics","143","336614","0.0-7.0-1.0-4.0-0.0-0.18","3","3","4","3","4","3","3","4","4","4","4","5","2","4","4","4","5","5","4","5","1","1","2","1","2","2","1","1","1","1","1","0","0","1","1","0","1","0","0","1","0","1","0","0","4","1","1","1","1","1","1","4","4","1","1","776085809274294274","张","313","","","","nonmatch","","","","","","","","","","","","","","key","f","6.944664031620554","960","536","f","true","nonmatch","img/trapezoid.png","圆形","梯形","ALT1","formal_ALT1_2","","","","","","","","","","","",""
"null","<span style='color:GreenYellow; font-size: 70px;'>正确! </span>","null","html-keyboard-response","144","337115","0.0-7.0-1.0-4.0-0.0-1.18","3","3","4","3","4","3","3","4","4","4","4","5","2","4","4","4","5","5","4","5","1","1","2","1","2","2","1","1","1","1","1","0","0","1","1","0","1","0","0","1","0","1","0","0","4","1","1","1","1","1","1","4","4","1","1","776085809274294274","张","313","","","","","","","","","","","","","","","","","","","","","","","","","","","","","","feedback_test","","","","","","","","","","","",""
"916","","j","psychophysics","145","339031","0.0-7.0-1.0-4.0-0.0-0.19","3","3","4","3","4","3","3","4","4","4","4","5","2","4","4","4","5","5","4","5","1","1","2","1","2","2","1","1","1","1","1","0","0","1","1","0","1","0","0","1","0","1","0","0","4","1","1","1","1","1","1","4","4","1","1","776085809274294274","张","313","","","","match","","","","","","","","","","","","","","key","j","6.944603636363648","960","536","j","true","match","img/circle.png","圆形","圆形","ALT1","formal_ALT1_2","","","","","","","","","","","",""
"null","<span style='color:GreenYellow; font-size: 70px;'>正确! </span>","null","html-keyboard-response","146","339541","0.0-7.0-1.0-4.0-0.0-1.19","3","3","4","3","4","3","3","4","4","4","4","5","2","4","4","4","5","5","4","5","1","1","2","1","2","2","1","1","1","1","1","0","0","1","1","0","1","0","0","1","0","1","0","0","4","1","1","1","1","1","1","4","4","1","1","776085809274294274","张","313","","","","","","","","","","","","","","","","","","","","","","","","","","","","","","feedback_test","","","","","","","","","","","",""
"934","","j","psychophysics","147","341476","0.0-7.0-1.0-4.0-0.0-0.20","3","3","4","3","4","3","3","4","4","4","4","5","2","4","4","4","5","5","4","5","1","1","2","1","2","2","1","1","1","1","1","0","0","1","1","0","1","0","0","1","0","1","0","0","4","1","1","1","1","1","1","4","4","1","1","776085809274294274","张","313","","","","match","","","","","","","","","","","","","","key","j","6.9446007194244155","960","536","f","false","nonmatch","img/trapezoid.png","五边","梯形","ALT1","formal_ALT1_2","","","","","","","","","","","",""
"null","<span style='color:red; font-size: 70px;'>错误! </span>","null","html-keyboard-response","148","341988","0.0-7.0-1.0-4.0-0.0-1.20","3","3","4","3","4","3","3","4","4","4","4","5","2","4","4","4","5","5","4","5","1","1","2","1","2","2","1","1","1","1","1","0","0","1","1","0","1","0","0","1","0","1","0","0","4","1","1","1","1","1","1","4","4","1","1","776085809274294274","张","313","","","","","","","","","","","","","","","","","","","","","","","","","","","","","","feedback_test","","","","","","","","","","","",""
"632","","j","psychophysics","149","343620","0.0-7.0-1.0-4.0-0.0-0.21","3","3","4","3","4","3","3","4","4","4","4","5","2","4","4","4","5","5","4","5","1","1","2","1","2","2","1","1","1","1","1","0","0","1","1","0","1","0","0","1","0","1","0","0","4","1","1","1","1","1","1","4","4","1","1","776085809274294274","张","313","","","","match","","","","","","","","","","","","","","key","j","6.9446025641026115","960","536","j","true","match","img/triangle.png","三角","三角","ALT1","formal_ALT1_2","","","","","","","","","","","",""
"null","<span style='color:GreenYellow; font-size: 70px;'>正确! </span>","null","html-keyboard-response","150","344122","0.0-7.0-1.0-4.0-0.0-1.21","3","3","4","3","4","3","3","4","4","4","4","5","2","4","4","4","5","5","4","5","1","1","2","1","2","2","1","1","1","1","1","0","0","1","1","0","1","0","0","1","0","1","0","0","4","1","1","1","1","1","1","4","4","1","1","776085809274294274","张","313","","","","","","","","","","","","","","","","","","","","","","","","","","","","","","feedback_test","","","","","","","","","","","",""
"718","","f","psychophysics","151","345841","0.0-7.0-1.0-4.0-0.0-0.22","3","3","4","3","4","3","3","4","4","4","4","5","2","4","4","4","5","5","4","5","1","1","2","1","2","2","1","1","1","1","1","0","0","1","1","0","1","0","0","1","0","1","0","0","4","1","1","1","1","1","1","4","4","1","1","776085809274294274","张","313","","","","nonmatch","","","","","","","","","","","","","","key","f","6.972881632652942","960","536","f","true","nonmatch","img/pentagon.png","三角","五边","ALT1","formal_ALT1_2","","","","","","","","","","","",""
"null","<span style='color:GreenYellow; font-size: 70px;'>正确! </span>","null","html-keyboard-response","152","346341","0.0-7.0-1.0-4.0-0.0-1.22","3","3","4","3","4","3","3","4","4","4","4","5","2","4","4","4","5","5","4","5","1","1","2","1","2","2","1","1","1","1","1","0","0","1","1","0","1","0","0","1","0","1","0","0","4","1","1","1","1","1","1","4","4","1","1","776085809274294274","张","313","","","","","","","","","","","","","","","","","","","","","","","","","","","","","","feedback_test","","","","","","","","","","","",""
"689","","j","psychophysics","153","348032","0.0-7.0-1.0-4.0-0.0-0.23","3","3","4","3","4","3","3","4","4","4","4","5","2","4","4","4","5","5","4","5","1","1","2","1","2","2","1","1","1","1","1","0","0","1","1","0","1","0","0","1","0","1","0","0","4","1","1","1","1","1","1","4","4","1","1","776085809274294274","张","313","","","","match","","","","","","","","","","","","","","key","j","6.944582644628008","960","536","j","true","match","img/trapezoid.png","梯形","梯形","ALT1","formal_ALT1_2","","","","","","","","","","","",""
"null","<span style='color:GreenYellow; font-size: 70px;'>正确! </span>","null","html-keyboard-response","154","348540","0.0-7.0-1.0-4.0-0.0-1.23","3","3","4","3","4","3","3","4","4","4","4","5","2","4","4","4","5","5","4","5","1","1","2","1","2","2","1","1","1","1","1","0","0","1","1","0","1","0","0","1","0","1","0","0","4","1","1","1","1","1","1","4","4","1","1","776085809274294274","张","313","","","","","","","","","","","","","","","","","","","","","","","","","","","","","","feedback_test","","","","","","","","","","","",""
"915","","f","psychophysics","155","350457","0.0-7.0-1.0-4.0-0.0-0.24","3","3","4","3","4","3","3","4","4","4","4","5","2","4","4","4","5","5","4","5","1","1","2","1","2","2","1","1","1","1","1","0","0","1","1","0","1","0","0","1","0","1","0","0","4","1","1","1","1","1","1","4","4","1","1","776085809274294274","张","313","","","","nonmatch","","","","","","","","","","","","","","key","f","6.9444654545454645","960","536","f","true","nonmatch","img/triangle.png","梯形","三角","ALT1","formal_ALT1_2","","","","","","","","","","","",""
"null","<span style='color:GreenYellow; font-size: 70px;'>正确! </span>","null","html-keyboard-response","156","350958","0.0-7.0-1.0-4.0-0.0-1.24","3","3","4","3","4","3","3","4","4","4","4","5","2","4","4","4","5","5","4","5","1","1","2","1","2","2","1","1","1","1","1","0","0","1","1","0","1","0","0","1","0","1","0","0","4","1","1","1","1","1","1","4","4","1","1","776085809274294274","张","313","","","","","","","","","","","","","","","","","","","","","","","","","","","","","","feedback_test","","","","","","","","","","","",""
"695","","f","psychophysics","157","352653","0.0-7.0-1.0-4.0-0.0-0.25","3","3","4","3","4","3","3","4","4","4","4","5","2","4","4","4","5","5","4","5","1","1","2","1","2","2","1","1","1","1","1","0","0","1","1","0","1","0","0","1","0","1","0","0","4","1","1","1","1","1","1","4","4","1","1","776085809274294274","张","313","","","","nonmatch","","","","","","","","","","","","","","key","f","6.944629629629563","960","536","f","true","nonmatch","img/triangle.png","圆形","三角","ALT1","formal_ALT1_2","","","","","","","","","","","",""
"null","<span style='color:GreenYellow; font-size: 70px;'>正确! </span>","null","html-keyboard-response","158","353154","0.0-7.0-1.0-4.0-0.0-1.25","3","3","4","3","4","3","3","4","4","4","4","5","2","4","4","4","5","5","4","5","1","1","2","1","2","2","1","1","1","1","1","0","0","1","1","0","1","0","0","1","0","1","0","0","4","1","1","1","1","1","1","4","4","1","1","776085809274294274","张","313","","","","","","","","","","","","","","","","","","","","","","","","","","","","","","feedback_test","","","","","","","","","","","",""
"1007","","f","psychophysics","159","355161","0.0-7.0-1.0-4.0-0.0-0.26","3","3","4","3","4","3","3","4","4","4","4","5","2","4","4","4","5","5","4","5","1","1","2","1","2","2","1","1","1","1","1","0","0","1","1","0","1","0","0","1","0","1","0","0","4","1","1","1","1","1","1","4","4","1","1","776085809274294274","张","313","","","","nonmatch","","","","","","","","","","","","","","key","f","6.969020979021028","960","536","f","true","nonmatch","img/trapezoid.png","三角","梯形","ALT1","formal_ALT1_2","","","","","","","","","","","",""
"null","<span style='color:GreenYellow; font-size: 70px;'>正确! </span>","null","html-keyboard-response","160","355662","0.0-7.0-1.0-4.0-0.0-1.26","3","3","4","3","4","3","3","4","4","4","4","5","2","4","4","4","5","5","4","5","1","1","2","1","2","2","1","1","1","1","1","0","0","1","1","0","1","0","0","1","0","1","0","0","4","1","1","1","1","1","1","4","4","1","1","776085809274294274","张","313","","","","","","","","","","","","","","","","","","","","","","","","","","","","","","feedback_test","","","","","","","","","","","",""
"785","","j","psychophysics","161","357448","0.0-7.0-1.0-4.0-0.0-0.27","3","3","4","3","4","3","3","4","4","4","4","5","2","4","4","4","5","5","4","5","1","1","2","1","2","2","1","1","1","1","1","0","0","1","1","0","1","0","0","1","0","1","0","0","4","1","1","1","1","1","1","4","4","1","1","776085809274294274","张","313","","","","match","","","","","","","","","","","","","","key","j","6.944574218749949","960","536","j","true","match","img/pentagon.png","五边","五边","ALT1","formal_ALT1_2","","","","","","","","","","","",""
"null","<span style='color:GreenYellow; font-size: 70px;'>正确! </span>","null","html-keyboard-response","162","357948","0.0-7.0-1.0-4.0-0.0-1.27","3","3","4","3","4","3","3","4","4","4","4","5","2","4","4","4","5","5","4","5","1","1","2","1","2","2","1","1","1","1","1","0","0","1","1","0","1","0","0","1","0","1","0","0","4","1","1","1","1","1","1","4","4","1","1","776085809274294274","张","313","","","","","","","","","","","","","","","","","","","","","","","","","","","","","","feedback_test","","","","","","","","","","","",""
"860","","j","psychophysics","163","359809","0.0-7.0-1.0-4.0-0.0-0.28","3","3","4","3","4","3","3","4","4","4","4","5","2","4","4","4","5","5","4","5","1","1","2","1","2","2","1","1","1","1","1","0","0","1","1","0","1","0","0","1","0","1","0","0","4","1","1","1","1","1","1","4","4","1","1","776085809274294274","张","313","","","","match","","","","","","","","","","","","","","key","j","6.944558052434403","960","536","j","true","match","img/pentagon.png","五边","五边","ALT1","formal_ALT1_2","","","","","","","","","","","",""
"null","<span style='color:GreenYellow; font-size: 70px;'>正确! </span>","null","html-keyboard-response","164","360310","0.0-7.0-1.0-4.0-0.0-1.28","3","3","4","3","4","3","3","4","4","4","4","5","2","4","4","4","5","5","4","5","1","1","2","1","2","2","1","1","1","1","1","0","0","1","1","0","1","0","0","1","0","1","0","0","4","1","1","1","1","1","1","4","4","1","1","776085809274294274","张","313","","","","","","","","","","","","","","","","","","","","","","","","","","","","","","feedback_test","","","","","","","","","","","",""
"816","","j","psychophysics","165","362126","0.0-7.0-1.0-4.0-0.0-0.29","3","3","4","3","4","3","3","4","4","4","4","5","2","4","4","4","5","5","4","5","1","1","2","1","2","2","1","1","1","1","1","0","0","1","1","0","1","0","0","1","0","1","0","0","4","1","1","1","1","1","1","4","4","1","1","776085809274294274","张","313","","","","match","","","","","","","","","","","","","","key","j","6.944674329501907","960","536","j","true","match","img/triangle.png","三角","三角","ALT1","formal_ALT1_2","","","","","","","","","","","",""
"null","<span style='color:GreenYellow; font-size: 70px;'>正确! </span>","null","html-keyboard-response","166","362627","0.0-7.0-1.0-4.0-0.0-1.29","3","3","4","3","4","3","3","4","4","4","4","5","2","4","4","4","5","5","4","5","1","1","2","1","2","2","1","1","1","1","1","0","0","1","1","0","1","0","0","1","0","1","0","0","4","1","1","1","1","1","1","4","4","1","1","776085809274294274","张","313","","","","","","","","","","","","","","","","","","","","","","","","","","","","","","feedback_test","","","","","","","","","","","",""
"652","","f","psychophysics","167","364280","0.0-7.0-1.0-4.0-0.0-0.30","3","3","4","3","4","3","3","4","4","4","4","5","2","4","4","4","5","5","4","5","1","1","2","1","2","2","1","1","1","1","1","0","0","1","1","0","1","0","0","1","0","1","0","0","4","1","1","1","1","1","1","4","4","1","1","776085809274294274","张","313","","","","nonmatch","","","","","","","","","","","","","","key","f","6.944611814346082","960","536","j","false","match","img/circle.png","圆形","圆形","ALT1","formal_ALT1_2","","","","","","","","","","","",""
"null","<span style='color:red; font-size: 70px;'>错误! </span>","null","html-keyboard-response","168","364782","0.0-7.0-1.0-4.0-0.0-1.30","3","3","4","3","4","3","3","4","4","4","4","5","2","4","4","4","5","5","4","5","1","1","2","1","2","2","1","1","1","1","1","0","0","1","1","0","1","0","0","1","0","1","0","0","4","1","1","1","1","1","1","4","4","1","1","776085809274294274","张","313","","","","","","","","","","","","","","","","","","","","","","","","","","","","","","feedback_test","","","","","","","","","","","",""
"913","","f","psychophysics","169","366695","0.0-7.0-1.0-4.0-0.0-0.31","3","3","4","3","4","3","3","4","4","4","4","5","2","4","4","4","5","5","4","5","1","1","2","1","2","2","1","1","1","1","1","0","0","1","1","0","1","0","0","1","0","1","0","0","4","1","1","1","1","1","1","4","4","1","1","776085809274294274","张","313","","","","nonmatch","","","","","","","","","","","","","","key","f","6.9446181818182495","960","536","f","true","nonmatch","img/pentagon.png","梯形","五边","ALT1","formal_ALT1_2","","","","","","","","","","","",""
"null","<span style='color:GreenYellow; font-size: 70px;'>正确! </span>","null","html-keyboard-response","170","367196","0.0-7.0-1.0-4.0-0.0-1.31","3","3","4","3","4","3","3","4","4","4","4","5","2","4","4","4","5","5","4","5","1","1","2","1","2","2","1","1","1","1","1","0","0","1","1","0","1","0","0","1","0","1","0","0","4","1","1","1","1","1","1","4","4","1","1","776085809274294274","张","313","","","","","","","","","","","","","","","","","","","","","","","","","","","","","","feedback_test","","","","","","","","","","","",""
"589","","j","psychophysics","171","368785","0.0-7.0-1.0-4.0-0.0-0.32","3","3","4","3","4","3","3","4","4","4","4","5","2","4","4","4","5","5","4","5","1","1","2","1","2","2","1","1","1","1","1","0","0","1","1","0","1","0","0","1","0","1","0","0","4","1","1","1","1","1","1","4","4","1","1","776085809274294274","张","313","","","","match","","","","","","","","","","","","","","key","j","6.944634361233355","960","536","j","true","match","img/triangle.png","三角","三角","ALT1","formal_ALT1_2","","","","","","","","","","","",""
"null","<span style='color:GreenYellow; font-size: 70px;'>正确! </span>","null","html-keyboard-response","172","369294","0.0-7.0-1.0-4.0-0.0-1.32","3","3","4","3","4","3","3","4","4","4","4","5","2","4","4","4","5","5","4","5","1","1","2","1","2","2","1","1","1","1","1","0","0","1","1","0","1","0","0","1","0","1","0","0","4","1","1","1","1","1","1","4","4","1","1","776085809274294274","张","313","","","","","","","","","","","","","","","","","","","","","","","","","","","","","","feedback_test","","","","","","","","","","","",""
"561","","j","psychophysics","173","370857","0.0-7.0-1.0-4.0-0.0-0.33","3","3","4","3","4","3","3","4","4","4","4","5","2","4","4","4","5","5","4","5","1","1","2","1","2","2","1","1","1","1","1","0","0","1","1","0","1","0","0","1","0","1","0","0","4","1","1","1","1","1","1","4","4","1","1","776085809274294274","张","313","","","","match","","","","","","","","","","","","","","key","j","6.944598214285569","960","536","j","true","match","img/trapezoid.png","梯形","梯形","ALT1","formal_ALT1_2","","","","","","","","","","","",""
"null","<span style='color:GreenYellow; font-size: 70px;'>正确! </span>","null","html-keyboard-response","174","371359","0.0-7.0-1.0-4.0-0.0-1.33","3","3","4","3","4","3","3","4","4","4","4","5","2","4","4","4","5","5","4","5","1","1","2","1","2","2","1","1","1","1","1","0","0","1","1","0","1","0","0","1","0","1","0","0","4","1","1","1","1","1","1","4","4","1","1","776085809274294274","张","313","","","","","","","","","","","","","","","","","","","","","","","","","","","","","","feedback_test","","","","","","","","","","","",""
"905","","j","psychophysics","175","373265","0.0-7.0-1.0-4.0-0.0-0.34","3","3","4","3","4","3","3","4","4","4","4","5","2","4","4","4","5","5","4","5","1","1","2","1","2","2","1","1","1","1","1","0","0","1","1","0","1","0","0","1","0","1","0","0","4","1","1","1","1","1","1","4","4","1","1","776085809274294274","张","313","","","","match","","","","","","","","","","","","","","key","j","6.944664233576601","960","536","j","true","match","img/circle.png","圆形","圆形","ALT1","formal_ALT1_2","","","","","","","","","","","",""
"null","<span style='color:GreenYellow; font-size: 70px;'>正确! </span>","null","html-keyboard-response","176","373766","0.0-7.0-1.0-4.0-0.0-1.34","3","3","4","3","4","3","3","4","4","4","4","5","2","4","4","4","5","5","4","5","1","1","2","1","2","2","1","1","1","1","1","0","0","1","1","0","1","0","0","1","0","1","0","0","4","1","1","1","1","1","1","4","4","1","1","776085809274294274","张","313","","","","","","","","","","","","","","","","","","","","","","","","","","","","","","feedback_test","","","","","","","","","","","",""
"622","","j","psychophysics","177","375389","0.0-7.0-1.0-4.0-0.0-0.35","3","3","4","3","4","3","3","4","4","4","4","5","2","4","4","4","5","5","4","5","1","1","2","1","2","2","1","1","1","1","1","0","0","1","1","0","1","0","0","1","0","1","0","0","4","1","1","1","1","1","1","4","4","1","1","776085809274294274","张","313","","","","match","","","","","","","","","","","","","","key","j","6.944599137931274","960","536","j","true","match","img/trapezoid.png","梯形","梯形","ALT1","formal_ALT1_2","","","","","","","","","","","",""
"null","<span style='color:GreenYellow; font-size: 70px;'>正确! </span>","null","html-keyboard-response","178","375889","0.0-7.0-1.0-4.0-0.0-1.35","3","3","4","3","4","3","3","4","4","4","4","5","2","4","4","4","5","5","4","5","1","1","2","1","2","2","1","1","1","1","1","0","0","1","1","0","1","0","0","1","0","1","0","0","4","1","1","1","1","1","1","4","4","1","1","776085809274294274","张","313","","","","","","","","","","","","","","","","","","","","","","","","","","","","","","feedback_test","","","","","","","","","","","",""
"568","","j","psychophysics","179","377458","0.0-7.0-1.0-4.0-0.0-0.36","3","3","4","3","4","3","3","4","4","4","4","5","2","4","4","4","5","5","4","5","1","1","2","1","2","2","1","1","1","1","1","0","0","1","1","0","1","0","0","1","0","1","0","0","4","1","1","1","1","1","1","4","4","1","1","776085809274294274","张","313","","","","match","","","","","","","","","","","","","","key","j","6.944602678571495","960","536","j","true","match","img/trapezoid.png","梯形","梯形","ALT1","formal_ALT1_2","","","","","","","","","","","",""
"null","<span style='color:GreenYellow; font-size: 70px;'>正确! </span>","null","html-keyboard-response","180","377959","0.0-7.0-1.0-4.0-0.0-1.36","3","3","4","3","4","3","3","4","4","4","4","5","2","4","4","4","5","5","4","5","1","1","2","1","2","2","1","1","1","1","1","0","0","1","1","0","1","0","0","1","0","1","0","0","4","1","1","1","1","1","1","4","4","1","1","776085809274294274","张","313","","","","","","","","","","","","","","","","","","","","","","","","","","","","","","feedback_test","","","","","","","","","","","",""
"742","","f","psychophysics","181","379701","0.0-7.0-1.0-4.0-0.0-0.37","3","3","4","3","4","3","3","4","4","4","4","5","2","4","4","4","5","5","4","5","1","1","2","1","2","2","1","1","1","1","1","0","0","1","1","0","1","0","0","1","0","1","0","0","4","1","1","1","1","1","1","4","4","1","1","776085809274294274","张","313","","","","nonmatch","","","","","","","","","","","","","","key","f","6.944642570281184","960","536","f","true","nonmatch","img/pentagon.png","三角","五边","ALT1","formal_ALT1_2","","","","","","","","","","","",""
