"rt","stimulus","response","trial_type","trial_index","time_elapsed","internal_node_id","ses_1","ses_2","ses_3","ses_4","ses_5","ses_6","ses_7","ses_8","ses_9","ses_10","coreself_1","coreself_2","coreself_3","coreself_4","coreself_5","coreself_6","coreself_7","coreself_8","coreself_9","coreself_10","SGPS_1","SGPS_2","SGPS_3","SGPS_4","SGPS_5","SGPS_6","SGPS_7","SGPS_8","SGPS_9","NPI1","NPI2","NPI3","NPI4","NPI5","NPI6","NPI7","NPI8","NPI9","NPI10","NPI11","NPI12","NPI13","NPI14","NPI15","hsns_1","hsns_2","hsns_3","hsns_4","hsns_5","trap1","hsns_6","hsns_7","hsns_8","hsns_9","hsns_10","subj_idx","friend_name","ParticipantID","value","success","user_agent","responses","item_order","radio_event_ids","radio_event_times","key_event_times","mouse_event_times","straightlining","zigzagging","honeypot","timeout","failed_images","failed_audio","failed_video","view_history","response_type","key_press","avg_frame_time","center_x","center_y","correct_response","correct","identity","Image","word","condition","task_id","screen_id","time_stamp","version_attrib2","version_target2","IAT","RT","varname","summary","version_attrib","version_target","question_order","correct_answer","trap1_item"
"1555","
   <p><div style = ""color: white;font-size:25px;"">您好，欢迎参加本次实验。</div> </p>
   <p><div style = ""color: white;font-size:25px;"">为充分保障您的权利，请确保您已经知晓并同意《参与实验同意书》以及《数据公开知情同意书》。</div></p>
   <p><div style = ""color: white;font-size:25px;"">如果您未见过上述内容，请咨询实验员。</div></p>
   <p><div style = ""color: white;font-size:25px;"">如果您选择继续实验，则表示您已经清楚两份知情同意书的内容并同意。</div></p>
   <p><div style = ""color: pink;font-size:30px;"">请确保您记得day0的实验编号，您将在本次实验输入该编号，若您忘记，请咨询实验员后作答。</div></p>
   <p><div style = ""color: lightblue;font-size:25px;"">请您尽可能认真地作答，我们将依据您在各问卷和按键任务中的作答质量发放报酬。</div></p>
   <p> <div style = ""color: green;font-size:25px;""><按空格键至下页></div> </p>
   "," ","html-keyboard-response","0","1556","0.0-0.0","4","4","4","4","4","4","4","3","4","4","5","5","5","5","5","5","5","5","5","5","1","1","1","1","1","1","1","1","1","0","0","1","1","0","0","0","0","0","1","0","0","1","0","0","5","1","2","1","1","1","1","2","2","5","1","598908778728914944","黄","249","","","","","","","","","","","","","","","","","","","","","","","","","","","","","","","","","","","","","","","","","",""
"","","","call-function","1","1557","0.0-1.0-0.0","4","4","4","4","4","4","4","3","4","4","5","5","5","5","5","5","5","5","5","5","1","1","1","1","1","1","1","1","1","0","0","1","1","0","0","0","0","0","1","0","0","1","0","0","5","1","2","1","1","1","1","2","2","5","1","598908778728914944","黄","249","","","","","","","","","","","","","","","","","","","","","","","","","","","","","","","","","","","","","","","","","",""
"11679","","{""friend_name"":""黄"",""ParticipantID"":""249""}","survey-html-form","2","13236","0.0-1.0-1.0","4","4","4","4","4","4","4","3","4","4","5","5","5","5","5","5","5","5","5","5","1","1","1","1","1","1","1","1","1","0","0","1","1","0","0","0","0","0","1","0","0","1","0","0","5","1","2","1","1","1","1","2","2","5","1","598908778728914944","黄","249","","","","","","","","","","","","","","","","","","","","","","","","","","","","","","","","","","","","","","","","","",""
"","","","fullscreen","3","14361","0.0-2.0","4","4","4","4","4","4","4","3","4","4","5","5","5","5","5","5","5","5","5","5","1","1","1","1","1","1","1","1","1","0","0","1","1","0","0","0","0","0","1","0","0","1","0","0","5","1","2","1","1","1","1","2","2","5","1","598908778728914944","黄","249","","true","{}","","","","","","","","","","","","","","","","","","","","","","","","","","","","","","","","","","","","","","",""
"19138.29999923706","","{""Q01"":""4"",""Q02"":""4"",""Q03"":""4"",""Q04"":""4"",""Q05"":""4"",""Q06"":""4"",""Q07"":""4"",""Q08"":""3"",""Q09"":""4"",""Q10"":""4""}","survey-template","4","33501","0.0-3.0","4","4","4","4","4","4","4","3","4","4","5","5","5","5","5","5","5","5","5","5","1","1","1","1","1","1","1","1","1","0","0","1","1","0","0","0","0","0","1","0","0","1","0","0","5","1","2","1","1","1","1","2","2","5","1","598908778728914944","黄","249","","","","{""Q01"":""4"",""Q02"":""4"",""Q03"":""4"",""Q04"":""4"",""Q05"":""4"",""Q06"":""4"",""Q07"":""4"",""Q08"":""3"",""Q09"":""4"",""Q10"":""4""}","[0,1,2,3,4,5,6,7,8,9]","[""Q09"",""Q08"",""Q10"",""Q08"",""Q07"",""Q06"",""Q04"",""Q05"",""Q03"",""Q02"",""Q01""]","[5073.700000762939,5633.299999237061,6395.200000762939,7833.299999237061,8906.29999923706,12377.79999923706,12905.60000038147,13745.60000038147,14841.70000076294,15883.10000038147,16506.29999923706]","[]","[4329.700000762939,4873.700000762939,5073.700000762939,5633.299999237061,6395.200000762939,7417.60000038147,7833.299999237061,8561.5,8906.29999923706,9577.60000038147,10729.70000076294,11345.20000076294,11569.60000038147,12377.79999923706,12905.60000038147,13745.60000038147,14841.70000076294,15883.10000038147,16506.29999923706,19137.5]","0.5","0.5555555555555556","0","","","","","","","","","","","","","","","","","","","","","","","","","","","","","",""
"15476.20000076294","","{""Q01"":""5"",""Q02"":""5"",""Q03"":""5"",""Q04"":""5"",""Q05"":""5"",""Q06"":""5"",""Q07"":""5"",""Q08"":""5"",""Q09"":""5"",""Q10"":""5""}","survey-template","5","48981","0.0-4.0","4","4","4","4","4","4","4","3","4","4","5","5","5","5","5","5","5","5","5","5","1","1","1","1","1","1","1","1","1","0","0","1","1","0","0","0","0","0","1","0","0","1","0","0","5","1","2","1","1","1","1","2","2","5","1","598908778728914944","黄","249","","","","{""Q01"":""5"",""Q02"":""5"",""Q03"":""5"",""Q04"":""5"",""Q05"":""5"",""Q06"":""5"",""Q07"":""5"",""Q08"":""5"",""Q09"":""5"",""Q10"":""5""}","[0,1,2,3,4,5,6,7,8,9]","[""Q06"",""Q07"",""Q08"",""Q09"",""Q10"",""Q05"",""Q04"",""Q02"",""Q03"",""Q01""]","[2043.6000003814697,3043.800001144409,3907.6000003814697,5667.60000038147,6851.800001144409,7859.700000762939,9051.80000114441,11859.80000114441,12419.70000076294,13571.70000076294]","[]","[1307.7000007629395,2043.6000003814697,3043.800001144409,3907.6000003814697,5667.60000038147,6851.800001144409,7859.700000762939,9051.80000114441,10020,10787.900001525879,11516.10000038147,11859.80000114441,12419.70000076294,13571.70000076294,15475.5]","0.6","0.7777777777777778","0","","","","","","","","","","","","","","","","","","","","","","","","","","","","","",""
"","","","preload","6","49677","0.0-5.0","4","4","4","4","4","4","4","3","4","4","5","5","5","5","5","5","5","5","5","5","1","1","1","1","1","1","1","1","1","0","0","1","1","0","0","0","0","0","1","0","0","1","0","0","5","1","2","1","1","1","1","2","2","5","1","598908778728914944","黄","249","","true","","","","","","","","","","","false","[]","[]","[]","","","","","","","","","","","","","","","","","","","","","","","","","",""
"1505","","","instructions","7","51182","0.0-6.0","4","4","4","4","4","4","4","3","4","4","5","5","5","5","5","5","5","5","5","5","1","1","1","1","1","1","1","1","1","0","0","1","1","0","0","0","0","0","1","0","0","1","0","0","5","1","2","1","1","1","1","2","2","5","1","598908778728914944","黄","249","","","","","","","","","","","","","","","","","[{""page_index"":0,""viewing_time"":1505}]","","","","","","","","","","","","","","","","","","","","","","","","",""
"108022","","","instructions","8","159205","0.0-7.0-1.0-0.0","4","4","4","4","4","4","4","3","4","4","5","5","5","5","5","5","5","5","5","5","1","1","1","1","1","1","1","1","1","0","0","1","1","0","0","0","0","0","1","0","0","1","0","0","5","1","2","1","1","1","1","2","2","5","1","598908778728914944","黄","249","","","","","","","","","","","","","","","","","[{""page_index"":0,""viewing_time"":102166},{""page_index"":1,""viewing_time"":4896},{""page_index"":2,""viewing_time"":960}]","","","","","","","","","","","","","","","","","","","","","","","","",""
"621","","f","psychophysics","9","160829","0.0-7.0-1.0-1.0-0.0-0.0","4","4","4","4","4","4","4","3","4","4","5","5","5","5","5","5","5","5","5","5","1","1","1","1","1","1","1","1","1","0","0","1","1","0","0","0","0","0","1","0","0","1","0","0","5","1","2","1","1","1","1","2","2","5","1","598908778728914944","黄","249","","","","nonmatch","","","","","","","","","","","","","","key","f","16.651041666666668","768","428","f","true","nonmatch","img/ellipse.png","三角","椭圆","ALT1_2","prac_ALT1_2","","","","","","","","","","","",""
"null","<span style='color:GreenYellow; font-size: 70px;'>正确! </span>","null","html-keyboard-response","10","161330","0.0-7.0-1.0-1.0-0.0-1.0","4","4","4","4","4","4","4","3","4","4","5","5","5","5","5","5","5","5","5","5","1","1","1","1","1","1","1","1","1","0","0","1","1","0","0","0","0","0","1","0","0","1","0","0","5","1","2","1","1","1","1","2","2","5","1","598908778728914944","黄","249","","","","","","","","","","","","","","","","","","","","","","","","","","","","","","feedback_test","","","","","","","","","","","",""
"697","","j","psychophysics","11","163028","0.0-7.0-1.0-1.0-0.0-0.1","4","4","4","4","4","4","4","3","4","4","5","5","5","5","5","5","5","5","5","5","1","1","1","1","1","1","1","1","1","0","0","1","1","0","0","0","0","0","1","0","0","1","0","0","5","1","2","1","1","1","1","2","2","5","1","598908778728914944","黄","249","","","","match","","","","","","","","","","","","","","key","j","16.646000000000058","768","428","j","true","match","img/hexagon.png","六边","六边","ALT1_2","prac_ALT1_2","","","","","","","","","","","",""
"null","<span style='color:GreenYellow; font-size: 70px;'>正确! </span>","null","html-keyboard-response","12","163529","0.0-7.0-1.0-1.0-0.0-1.1","4","4","4","4","4","4","4","3","4","4","5","5","5","5","5","5","5","5","5","5","1","1","1","1","1","1","1","1","1","0","0","1","1","0","0","0","0","0","1","0","0","1","0","0","5","1","2","1","1","1","1","2","2","5","1","598908778728914944","黄","249","","","","","","","","","","","","","","","","","","","","","","","","","","","","","","feedback_test","","","","","","","","","","","",""
"562","","j","psychophysics","13","165092","0.0-7.0-1.0-1.0-0.0-0.2","4","4","4","4","4","4","4","3","4","4","5","5","5","5","5","5","5","5","5","5","1","1","1","1","1","1","1","1","1","0","0","1","1","0","0","0","0","0","1","0","0","1","0","0","5","1","2","1","1","1","1","2","2","5","1","598908778728914944","黄","249","","","","match","","","","","","","","","","","","","","key","j","16.651086956521993","768","428","j","true","match","img/triangle.png","三角","三角","ALT1_2","prac_ALT1_2","","","","","","","","","","","",""
"null","<span style='color:GreenYellow; font-size: 70px;'>正确! </span>","null","html-keyboard-response","14","165593","0.0-7.0-1.0-1.0-0.0-1.2","4","4","4","4","4","4","4","3","4","4","5","5","5","5","5","5","5","5","5","5","1","1","1","1","1","1","1","1","1","0","0","1","1","0","0","0","0","0","1","0","0","1","0","0","5","1","2","1","1","1","1","2","2","5","1","598908778728914944","黄","249","","","","","","","","","","","","","","","","","","","","","","","","","","","","","","feedback_test","","","","","","","","","","","",""
"528","","j","psychophysics","15","167124","0.0-7.0-1.0-1.0-0.0-0.3","4","4","4","4","4","4","4","3","4","4","5","5","5","5","5","5","5","5","5","5","1","1","1","1","1","1","1","1","1","0","0","1","1","0","0","0","0","0","1","0","0","1","0","0","5","1","2","1","1","1","1","2","2","5","1","598908778728914944","黄","249","","","","match","","","","","","","","","","","","","","key","j","16.65222222222203","768","428","j","true","match","img/triangle.png","三角","三角","ALT1_2","prac_ALT1_2","","","","","","","","","","","",""
"null","<span style='color:GreenYellow; font-size: 70px;'>正确! </span>","null","html-keyboard-response","16","167625","0.0-7.0-1.0-1.0-0.0-1.3","4","4","4","4","4","4","4","3","4","4","5","5","5","5","5","5","5","5","5","5","1","1","1","1","1","1","1","1","1","0","0","1","1","0","0","0","0","0","1","0","0","1","0","0","5","1","2","1","1","1","1","2","2","5","1","598908778728914944","黄","249","","","","","","","","","","","","","","","","","","","","","","","","","","","","","","feedback_test","","","","","","","","","","","",""
"571","","j","psychophysics","17","169198","0.0-7.0-1.0-1.0-0.0-0.4","4","4","4","4","4","4","4","3","4","4","5","5","5","5","5","5","5","5","5","5","1","1","1","1","1","1","1","1","1","0","0","1","1","0","0","0","0","0","1","0","0","1","0","0","5","1","2","1","1","1","1","2","2","5","1","598908778728914944","黄","249","","","","match","","","","","","","","","","","","","","key","j","16.651612903225555","768","428","j","true","match","img/triangle.png","三角","三角","ALT1_2","prac_ALT1_2","","","","","","","","","","","",""
"null","<span style='color:GreenYellow; font-size: 70px;'>正确! </span>","null","html-keyboard-response","18","169699","0.0-7.0-1.0-1.0-0.0-1.4","4","4","4","4","4","4","4","3","4","4","5","5","5","5","5","5","5","5","5","5","1","1","1","1","1","1","1","1","1","0","0","1","1","0","0","0","0","0","1","0","0","1","0","0","5","1","2","1","1","1","1","2","2","5","1","598908778728914944","黄","249","","","","","","","","","","","","","","","","","","","","","","","","","","","","","","feedback_test","","","","","","","","","","","",""
"576","","f","psychophysics","19","171276","0.0-7.0-1.0-1.0-0.0-0.5","4","4","4","4","4","4","4","3","4","4","5","5","5","5","5","5","5","5","5","5","1","1","1","1","1","1","1","1","1","0","0","1","1","0","0","0","0","0","1","0","0","1","0","0","5","1","2","1","1","1","1","2","2","5","1","598908778728914944","黄","249","","","","nonmatch","","","","","","","","","","","","","","key","f","16.652127659574653","768","428","f","true","nonmatch","img/ellipse.png","菱形","椭圆","ALT1_2","prac_ALT1_2","","","","","","","","","","","",""
"null","<span style='color:GreenYellow; font-size: 70px;'>正确! </span>","null","html-keyboard-response","20","171777","0.0-7.0-1.0-1.0-0.0-1.5","4","4","4","4","4","4","4","3","4","4","5","5","5","5","5","5","5","5","5","5","1","1","1","1","1","1","1","1","1","0","0","1","1","0","0","0","0","0","1","0","0","1","0","0","5","1","2","1","1","1","1","2","2","5","1","598908778728914944","黄","249","","","","","","","","","","","","","","","","","","","","","","","","","","","","","","feedback_test","","","","","","","","","","","",""
"625","","f","psychophysics","21","173404","0.0-7.0-1.0-1.0-0.0-0.6","4","4","4","4","4","4","4","3","4","4","5","5","5","5","5","5","5","5","5","5","1","1","1","1","1","1","1","1","1","0","0","1","1","0","0","0","0","0","1","0","0","1","0","0","5","1","2","1","1","1","1","2","2","5","1","598908778728914944","黄","249","","","","nonmatch","","","","","","","","","","","","","","key","f","16.645360824742028","768","428","f","true","nonmatch","img/triangle.png","椭圆","三角","ALT1_2","prac_ALT1_2","","","","","","","","","","","",""
"null","<span style='color:GreenYellow; font-size: 70px;'>正确! </span>","null","html-keyboard-response","22","173905","0.0-7.0-1.0-1.0-0.0-1.6","4","4","4","4","4","4","4","3","4","4","5","5","5","5","5","5","5","5","5","5","1","1","1","1","1","1","1","1","1","0","0","1","1","0","0","0","0","0","1","0","0","1","0","0","5","1","2","1","1","1","1","2","2","5","1","598908778728914944","黄","249","","","","","","","","","","","","","","","","","","","","","","","","","","","","","","feedback_test","","","","","","","","","","","",""
"570","","j","psychophysics","23","175476","0.0-7.0-1.0-1.0-0.0-0.7","4","4","4","4","4","4","4","3","4","4","5","5","5","5","5","5","5","5","5","5","1","1","1","1","1","1","1","1","1","0","0","1","1","0","0","0","0","0","1","0","0","1","0","0","5","1","2","1","1","1","1","2","2","5","1","598908778728914944","黄","249","","","","match","","","","","","","","","","","","","","key","j","16.647311827957115","768","428","j","true","match","img/ellipse.png","椭圆","椭圆","ALT1_2","prac_ALT1_2","","","","","","","","","","","",""
"null","<span style='color:GreenYellow; font-size: 70px;'>正确! </span>","null","html-keyboard-response","24","175977","0.0-7.0-1.0-1.0-0.0-1.7","4","4","4","4","4","4","4","3","4","4","5","5","5","5","5","5","5","5","5","5","1","1","1","1","1","1","1","1","1","0","0","1","1","0","0","0","0","0","1","0","0","1","0","0","5","1","2","1","1","1","1","2","2","5","1","598908778728914944","黄","249","","","","","","","","","","","","","","","","","","","","","","","","","","","","","","feedback_test","","","","","","","","","","","",""
"393","","j","psychophysics","25","177372","0.0-7.0-1.0-1.0-0.0-0.8","4","4","4","4","4","4","4","3","4","4","5","5","5","5","5","5","5","5","5","5","1","1","1","1","1","1","1","1","1","0","0","1","1","0","0","0","0","0","1","0","0","1","0","0","5","1","2","1","1","1","1","2","2","5","1","598908778728914944","黄","249","","","","match","","","","","","","","","","","","","","key","j","16.655421686747268","768","428","f","false","nonmatch","img/triangle.png","六边","三角","ALT1_2","prac_ALT1_2","","","","","","","","","","","",""
"null","<span style='color:red; font-size: 70px;'>错误! </span>","null","html-keyboard-response","26","177874","0.0-7.0-1.0-1.0-0.0-1.8","4","4","4","4","4","4","4","3","4","4","5","5","5","5","5","5","5","5","5","5","1","1","1","1","1","1","1","1","1","0","0","1","1","0","0","0","0","0","1","0","0","1","0","0","5","1","2","1","1","1","1","2","2","5","1","598908778728914944","黄","249","","","","","","","","","","","","","","","","","","","","","","","","","","","","","","feedback_test","","","","","","","","","","","",""
"665","","j","psychophysics","27","179540","0.0-7.0-1.0-1.0-0.0-0.9","4","4","4","4","4","4","4","3","4","4","5","5","5","5","5","5","5","5","5","5","1","1","1","1","1","1","1","1","1","0","0","1","1","0","0","0","0","0","1","0","0","1","0","0","5","1","2","1","1","1","1","2","2","5","1","598908778728914944","黄","249","","","","match","","","","","","","","","","","","","","key","j","16.65353535353547","768","428","j","true","match","img/diamond.png","菱形","菱形","ALT1_2","prac_ALT1_2","","","","","","","","","","","",""
"null","<span style='color:GreenYellow; font-size: 70px;'>正确! </span>","null","html-keyboard-response","28","180041","0.0-7.0-1.0-1.0-0.0-1.9","4","4","4","4","4","4","4","3","4","4","5","5","5","5","5","5","5","5","5","5","1","1","1","1","1","1","1","1","1","0","0","1","1","0","0","0","0","0","1","0","0","1","0","0","5","1","2","1","1","1","1","2","2","5","1","598908778728914944","黄","249","","","","","","","","","","","","","","","","","","","","","","","","","","","","","","feedback_test","","","","","","","","","","","",""
"506","","j","psychophysics","29","181548","0.0-7.0-1.0-1.0-0.0-0.10","4","4","4","4","4","4","4","3","4","4","5","5","5","5","5","5","5","5","5","5","1","1","1","1","1","1","1","1","1","0","0","1","1","0","0","0","0","0","1","0","0","1","0","0","5","1","2","1","1","1","1","2","2","5","1","598908778728914944","黄","249","","","","match","","","","","","","","","","","","","","key","j","16.65","768","428","f","false","nonmatch","img/triangle.png","菱形","三角","ALT1_2","prac_ALT1_2","","","","","","","","","","","",""
"null","<span style='color:red; font-size: 70px;'>错误! </span>","null","html-keyboard-response","30","182050","0.0-7.0-1.0-1.0-0.0-1.10","4","4","4","4","4","4","4","3","4","4","5","5","5","5","5","5","5","5","5","5","1","1","1","1","1","1","1","1","1","0","0","1","1","0","0","0","0","0","1","0","0","1","0","0","5","1","2","1","1","1","1","2","2","5","1","598908778728914944","黄","249","","","","","","","","","","","","","","","","","","","","","","","","","","","","","","feedback_test","","","","","","","","","","","",""
"609","","j","psychophysics","31","183660","0.0-7.0-1.0-1.0-0.0-0.11","4","4","4","4","4","4","4","3","4","4","5","5","5","5","5","5","5","5","5","5","1","1","1","1","1","1","1","1","1","0","0","1","1","0","0","0","0","0","1","0","0","1","0","0","5","1","2","1","1","1","1","2","2","5","1","598908778728914944","黄","249","","","","match","","","","","","","","","","","","","","key","j","16.651041666666668","768","428","j","true","match","img/hexagon.png","六边","六边","ALT1_2","prac_ALT1_2","","","","","","","","","","","",""
"null","<span style='color:GreenYellow; font-size: 70px;'>正确! </span>","null","html-keyboard-response","32","184162","0.0-7.0-1.0-1.0-0.0-1.11","4","4","4","4","4","4","4","3","4","4","5","5","5","5","5","5","5","5","5","5","1","1","1","1","1","1","1","1","1","0","0","1","1","0","0","0","0","0","1","0","0","1","0","0","5","1","2","1","1","1","1","2","2","5","1","598908778728914944","黄","249","","","","","","","","","","","","","","","","","","","","","","","","","","","","","","feedback_test","","","","","","","","","","","",""
"649","","f","psychophysics","33","185812","0.0-7.0-1.0-1.0-0.0-0.12","4","4","4","4","4","4","4","3","4","4","5","5","5","5","5","5","5","5","5","5","1","1","1","1","1","1","1","1","1","0","0","1","1","0","0","0","0","0","1","0","0","1","0","0","5","1","2","1","1","1","1","2","2","5","1","598908778728914944","黄","249","","","","nonmatch","","","","","","","","","","","","","","key","f","16.65510204081615","768","428","f","true","nonmatch","img/ellipse.png","六边","椭圆","ALT1_2","prac_ALT1_2","","","","","","","","","","","",""
"null","<span style='color:GreenYellow; font-size: 70px;'>正确! </span>","null","html-keyboard-response","34","186313","0.0-7.0-1.0-1.0-0.0-1.12","4","4","4","4","4","4","4","3","4","4","5","5","5","5","5","5","5","5","5","5","1","1","1","1","1","1","1","1","1","0","0","1","1","0","0","0","0","0","1","0","0","1","0","0","5","1","2","1","1","1","1","2","2","5","1","598908778728914944","黄","249","","","","","","","","","","","","","","","","","","","","","","","","","","","","","","feedback_test","","","","","","","","","","","",""
"658","","f","psychophysics","35","187972","0.0-7.0-1.0-1.0-0.0-0.13","4","4","4","4","4","4","4","3","4","4","5","5","5","5","5","5","5","5","5","5","1","1","1","1","1","1","1","1","1","0","0","1","1","0","0","0","0","0","1","0","0","1","0","0","5","1","2","1","1","1","1","2","2","5","1","598908778728914944","黄","249","","","","nonmatch","","","","","","","","","","","","","","key","f","16.648979591836795","768","428","f","true","nonmatch","img/hexagon.png","椭圆","六边","ALT1_2","prac_ALT1_2","","","","","","","","","","","",""
"null","<span style='color:GreenYellow; font-size: 70px;'>正确! </span>","null","html-keyboard-response","36","188473","0.0-7.0-1.0-1.0-0.0-1.13","4","4","4","4","4","4","4","3","4","4","5","5","5","5","5","5","5","5","5","5","1","1","1","1","1","1","1","1","1","0","0","1","1","0","0","0","0","0","1","0","0","1","0","0","5","1","2","1","1","1","1","2","2","5","1","598908778728914944","黄","249","","","","","","","","","","","","","","","","","","","","","","","","","","","","","","feedback_test","","","","","","","","","","","",""
"705","","j","psychophysics","37","190180","0.0-7.0-1.0-1.0-0.0-0.14","4","4","4","4","4","4","4","3","4","4","5","5","5","5","5","5","5","5","5","5","1","1","1","1","1","1","1","1","1","0","0","1","1","0","0","0","0","0","1","0","0","1","0","0","5","1","2","1","1","1","1","2","2","5","1","598908778728914944","黄","249","","","","match","","","","","","","","","","","","","","key","j","16.651485148515025","768","428","f","false","nonmatch","img/hexagon.png","菱形","六边","ALT1_2","prac_ALT1_2","","","","","","","","","","","",""
"null","<span style='color:red; font-size: 70px;'>错误! </span>","null","html-keyboard-response","38","190681","0.0-7.0-1.0-1.0-0.0-1.14","4","4","4","4","4","4","4","3","4","4","5","5","5","5","5","5","5","5","5","5","1","1","1","1","1","1","1","1","1","0","0","1","1","0","0","0","0","0","1","0","0","1","0","0","5","1","2","1","1","1","1","2","2","5","1","598908778728914944","黄","249","","","","","","","","","","","","","","","","","","","","","","","","","","","","","","feedback_test","","","","","","","","","","","",""
"609","","j","psychophysics","39","192292","0.0-7.0-1.0-1.0-0.0-0.15","4","4","4","4","4","4","4","3","4","4","5","5","5","5","5","5","5","5","5","5","1","1","1","1","1","1","1","1","1","0","0","1","1","0","0","0","0","0","1","0","0","1","0","0","5","1","2","1","1","1","1","2","2","5","1","598908778728914944","黄","249","","","","match","","","","","","","","","","","","","","key","j","16.651041666666668","768","428","j","true","match","img/ellipse.png","椭圆","椭圆","ALT1_2","prac_ALT1_2","","","","","","","","","","","",""
"null","<span style='color:GreenYellow; font-size: 70px;'>正确! </span>","null","html-keyboard-response","40","192795","0.0-7.0-1.0-1.0-0.0-1.15","4","4","4","4","4","4","4","3","4","4","5","5","5","5","5","5","5","5","5","5","1","1","1","1","1","1","1","1","1","0","0","1","1","0","0","0","0","0","1","0","0","1","0","0","5","1","2","1","1","1","1","2","2","5","1","598908778728914944","黄","249","","","","","","","","","","","","","","","","","","","","","","","","","","","","","","feedback_test","","","","","","","","","","","",""
"593","","j","psychophysics","41","194390","0.0-7.0-1.0-1.0-0.0-0.16","4","4","4","4","4","4","4","3","4","4","5","5","5","5","5","5","5","5","5","5","1","1","1","1","1","1","1","1","1","0","0","1","1","0","0","0","0","0","1","0","0","1","0","0","5","1","2","1","1","1","1","2","2","5","1","598908778728914944","黄","249","","","","match","","","","","","","","","","","","","","key","j","16.65157894736836","768","428","j","true","match","img/diamond.png","菱形","菱形","ALT1_2","prac_ALT1_2","","","","","","","","","","","",""
"null","<span style='color:GreenYellow; font-size: 70px;'>正确! </span>","null","html-keyboard-response","42","194891","0.0-7.0-1.0-1.0-0.0-1.16","4","4","4","4","4","4","4","3","4","4","5","5","5","5","5","5","5","5","5","5","1","1","1","1","1","1","1","1","1","0","0","1","1","0","0","0","0","0","1","0","0","1","0","0","5","1","2","1","1","1","1","2","2","5","1","598908778728914944","黄","249","","","","","","","","","","","","","","","","","","","","","","","","","","","","","","feedback_test","","","","","","","","","","","",""
"584","","f","psychophysics","43","196477","0.0-7.0-1.0-1.0-0.0-0.17","4","4","4","4","4","4","4","3","4","4","5","5","5","5","5","5","5","5","5","5","1","1","1","1","1","1","1","1","1","0","0","1","1","0","0","0","0","0","1","0","0","1","0","0","5","1","2","1","1","1","1","2","2","5","1","598908778728914944","黄","249","","","","nonmatch","","","","","","","","","","","","","","key","f","16.646808510638174","768","428","f","true","nonmatch","img/hexagon.png","三角","六边","ALT1_2","prac_ALT1_2","","","","","","","","","","","",""
"null","<span style='color:GreenYellow; font-size: 70px;'>正确! </span>","null","html-keyboard-response","44","196978","0.0-7.0-1.0-1.0-0.0-1.17","4","4","4","4","4","4","4","3","4","4","5","5","5","5","5","5","5","5","5","5","1","1","1","1","1","1","1","1","1","0","0","1","1","0","0","0","0","0","1","0","0","1","0","0","5","1","2","1","1","1","1","2","2","5","1","598908778728914944","黄","249","","","","","","","","","","","","","","","","","","","","","","","","","","","","","","feedback_test","","","","","","","","","","","",""
"642","","j","psychophysics","45","198620","0.0-7.0-1.0-1.0-0.0-0.18","4","4","4","4","4","4","4","3","4","4","5","5","5","5","5","5","5","5","5","5","1","1","1","1","1","1","1","1","1","0","0","1","1","0","0","0","0","0","1","0","0","1","0","0","5","1","2","1","1","1","1","2","2","5","1","598908778728914944","黄","249","","","","match","","","","","","","","","","","","","","key","j","16.651020408163443","768","428","j","true","match","img/diamond.png","菱形","菱形","ALT1_2","prac_ALT1_2","","","","","","","","","","","",""
"null","<span style='color:GreenYellow; font-size: 70px;'>正确! </span>","null","html-keyboard-response","46","199121","0.0-7.0-1.0-1.0-0.0-1.18","4","4","4","4","4","4","4","3","4","4","5","5","5","5","5","5","5","5","5","5","1","1","1","1","1","1","1","1","1","0","0","1","1","0","0","0","0","0","1","0","0","1","0","0","5","1","2","1","1","1","1","2","2","5","1","598908778728914944","黄","249","","","","","","","","","","","","","","","","","","","","","","","","","","","","","","feedback_test","","","","","","","","","","","",""
"577","","j","psychophysics","47","200700","0.0-7.0-1.0-1.0-0.0-0.19","4","4","4","4","4","4","4","3","4","4","5","5","5","5","5","5","5","5","5","5","1","1","1","1","1","1","1","1","1","0","0","1","1","0","0","0","0","0","1","0","0","1","0","0","5","1","2","1","1","1","1","2","2","5","1","598908778728914944","黄","249","","","","match","","","","","","","","","","","","","","key","j","16.652127659574653","768","428","j","true","match","img/ellipse.png","椭圆","椭圆","ALT1_2","prac_ALT1_2","","","","","","","","","","","",""
"null","<span style='color:GreenYellow; font-size: 70px;'>正确! </span>","null","html-keyboard-response","48","201201","0.0-7.0-1.0-1.0-0.0-1.19","4","4","4","4","4","4","4","3","4","4","5","5","5","5","5","5","5","5","5","5","1","1","1","1","1","1","1","1","1","0","0","1","1","0","0","0","0","0","1","0","0","1","0","0","5","1","2","1","1","1","1","2","2","5","1","598908778728914944","黄","249","","","","","","","","","","","","","","","","","","","","","","","","","","","","","","feedback_test","","","","","","","","","","","",""
"586","","f","psychophysics","49","202788","0.0-7.0-1.0-1.0-0.0-0.20","4","4","4","4","4","4","4","3","4","4","5","5","5","5","5","5","5","5","5","5","1","1","1","1","1","1","1","1","1","0","0","1","1","0","0","0","0","0","1","0","0","1","0","0","5","1","2","1","1","1","1","2","2","5","1","598908778728914944","黄","249","","","","nonmatch","","","","","","","","","","","","","","key","f","16.646808510638174","768","428","f","true","nonmatch","img/diamond.png","椭圆","菱形","ALT1_2","prac_ALT1_2","","","","","","","","","","","",""
"null","<span style='color:GreenYellow; font-size: 70px;'>正确! </span>","null","html-keyboard-response","50","203289","0.0-7.0-1.0-1.0-0.0-1.20","4","4","4","4","4","4","4","3","4","4","5","5","5","5","5","5","5","5","5","5","1","1","1","1","1","1","1","1","1","0","0","1","1","0","0","0","0","0","1","0","0","1","0","0","5","1","2","1","1","1","1","2","2","5","1","598908778728914944","黄","249","","","","","","","","","","","","","","","","","","","","","","","","","","","","","","feedback_test","","","","","","","","","","","",""
"596","","j","psychophysics","51","204886","0.0-7.0-1.0-1.0-0.0-0.21","4","4","4","4","4","4","4","3","4","4","5","5","5","5","5","5","5","5","5","5","1","1","1","1","1","1","1","1","1","0","0","1","1","0","0","0","0","0","1","0","0","1","0","0","5","1","2","1","1","1","1","2","2","5","1","598908778728914944","黄","249","","","","match","","","","","","","","","","","","","","key","j","16.656842105263095","768","428","j","true","match","img/hexagon.png","六边","六边","ALT1_2","prac_ALT1_2","","","","","","","","","","","",""
"null","<span style='color:GreenYellow; font-size: 70px;'>正确! </span>","null","html-keyboard-response","52","205387","0.0-7.0-1.0-1.0-0.0-1.21","4","4","4","4","4","4","4","3","4","4","5","5","5","5","5","5","5","5","5","5","1","1","1","1","1","1","1","1","1","0","0","1","1","0","0","0","0","0","1","0","0","1","0","0","5","1","2","1","1","1","1","2","2","5","1","598908778728914944","黄","249","","","","","","","","","","","","","","","","","","","","","","","","","","","","","","feedback_test","","","","","","","","","","","",""
"600","","f","psychophysics","53","206988","0.0-7.0-1.0-1.0-0.0-0.22","4","4","4","4","4","4","4","3","4","4","5","5","5","5","5","5","5","5","5","5","1","1","1","1","1","1","1","1","1","0","0","1","1","0","0","0","0","0","1","0","0","1","0","0","5","1","2","1","1","1","1","2","2","5","1","598908778728914944","黄","249","","","","nonmatch","","","","","","","","","","","","","","key","f","16.652083333333394","768","428","f","true","nonmatch","img/diamond.png","三角","菱形","ALT1_2","prac_ALT1_2","","","","","","","","","","","",""
"null","<span style='color:GreenYellow; font-size: 70px;'>正确! </span>","null","html-keyboard-response","54","207490","0.0-7.0-1.0-1.0-0.0-1.22","4","4","4","4","4","4","4","3","4","4","5","5","5","5","5","5","5","5","5","5","1","1","1","1","1","1","1","1","1","0","0","1","1","0","0","0","0","0","1","0","0","1","0","0","5","1","2","1","1","1","1","2","2","5","1","598908778728914944","黄","249","","","","","","","","","","","","","","","","","","","","","","","","","","","","","","feedback_test","","","","","","","","","","","",""
"738","","f","psychophysics","55","209228","0.0-7.0-1.0-1.0-0.0-0.23","4","4","4","4","4","4","4","3","4","4","5","5","5","5","5","5","5","5","5","5","1","1","1","1","1","1","1","1","1","0","0","1","1","0","0","0","0","0","1","0","0","1","0","0","5","1","2","1","1","1","1","2","2","5","1","598908778728914944","黄","249","","","","nonmatch","","","","","","","","","","","","","","key","f","16.65242718446585","768","428","f","true","nonmatch","img/diamond.png","六边","菱形","ALT1_2","prac_ALT1_2","","","","","","","","","","","",""
"null","<span style='color:GreenYellow; font-size: 70px;'>正确! </span>","null","html-keyboard-response","56","209729","0.0-7.0-1.0-1.0-0.0-1.23","4","4","4","4","4","4","4","3","4","4","5","5","5","5","5","5","5","5","5","5","1","1","1","1","1","1","1","1","1","0","0","1","1","0","0","0","0","0","1","0","0","1","0","0","5","1","2","1","1","1","1","2","2","5","1","598908778728914944","黄","249","","","","","","","","","","","","","","","","","","","","","","","","","","","","","","feedback_test","","","","","","","","","","","",""
"577","","j","psychophysics","57","211308","0.0-7.0-1.0-1.0-0.0-0.24","4","4","4","4","4","4","4","3","4","4","5","5","5","5","5","5","5","5","5","5","1","1","1","1","1","1","1","1","1","0","0","1","1","0","0","0","0","0","1","0","0","1","0","0","5","1","2","1","1","1","1","2","2","5","1","598908778728914944","黄","249","","","","match","","","","","","","","","","","","","","key","j","16.652127659574344","768","428","j","true","match","img/hexagon.png","六边","六边","ALT1_2","prac_ALT1_2","","","","","","","","","","","",""
"null","<span style='color:GreenYellow; font-size: 70px;'>正确! </span>","null","html-keyboard-response","58","211809","0.0-7.0-1.0-1.0-0.0-1.24","4","4","4","4","4","4","4","3","4","4","5","5","5","5","5","5","5","5","5","5","1","1","1","1","1","1","1","1","1","0","0","1","1","0","0","0","0","0","1","0","0","1","0","0","5","1","2","1","1","1","1","2","2","5","1","598908778728914944","黄","249","","","","","","","","","","","","","","","","","","","","","","","","","","","","","","feedback_test","","","","","","","","","","","",""
"586","","j","psychophysics","59","213396","0.0-7.0-1.0-1.0-0.0-0.25","4","4","4","4","4","4","4","3","4","4","5","5","5","5","5","5","5","5","5","5","1","1","1","1","1","1","1","1","1","0","0","1","1","0","0","0","0","0","1","0","0","1","0","0","5","1","2","1","1","1","1","2","2","5","1","598908778728914944","黄","249","","","","match","","","","","","","","","","","","","","key","j","16.649999999999753","768","428","j","true","match","img/ellipse.png","椭圆","椭圆","ALT1_2","prac_ALT1_2","","","","","","","","","","","",""
"null","<span style='color:GreenYellow; font-size: 70px;'>正确! </span>","null","html-keyboard-response","60","213897","0.0-7.0-1.0-1.0-0.0-1.25","4","4","4","4","4","4","4","3","4","4","5","5","5","5","5","5","5","5","5","5","1","1","1","1","1","1","1","1","1","0","0","1","1","0","0","0","0","0","1","0","0","1","0","0","5","1","2","1","1","1","1","2","2","5","1","598908778728914944","黄","249","","","","","","","","","","","","","","","","","","","","","","","","","","","","","","feedback_test","","","","","","","","","","","",""
"587","","f","psychophysics","61","215484","0.0-7.0-1.0-1.0-0.0-0.26","4","4","4","4","4","4","4","3","4","4","5","5","5","5","5","5","5","5","5","5","1","1","1","1","1","1","1","1","1","0","0","1","1","0","0","0","0","0","1","0","0","1","0","0","5","1","2","1","1","1","1","2","2","5","1","598908778728914944","黄","249","","","","nonmatch","","","","","","","","","","","","","","key","f","16.648936170212767","768","428","f","true","nonmatch","img/diamond.png","三角","菱形","ALT1_2","prac_ALT1_2","","","","","","","","","","","",""
"null","<span style='color:GreenYellow; font-size: 70px;'>正确! </span>","null","html-keyboard-response","62","215986","0.0-7.0-1.0-1.0-0.0-1.26","4","4","4","4","4","4","4","3","4","4","5","5","5","5","5","5","5","5","5","5","1","1","1","1","1","1","1","1","1","0","0","1","1","0","0","0","0","0","1","0","0","1","0","0","5","1","2","1","1","1","1","2","2","5","1","598908778728914944","黄","249","","","","","","","","","","","","","","","","","","","","","","","","","","","","","","feedback_test","","","","","","","","","","","",""
"657","","j","psychophysics","63","217644","0.0-7.0-1.0-1.0-0.0-0.27","4","4","4","4","4","4","4","3","4","4","5","5","5","5","5","5","5","5","5","5","1","1","1","1","1","1","1","1","1","0","0","1","1","0","0","0","0","0","1","0","0","1","0","0","5","1","2","1","1","1","1","2","2","5","1","598908778728914944","黄","249","","","","match","","","","","","","","","","","","","","key","j","16.652040816326473","768","428","j","true","match","img/diamond.png","菱形","菱形","ALT1_2","prac_ALT1_2","","","","","","","","","","","",""
"null","<span style='color:GreenYellow; font-size: 70px;'>正确! </span>","null","html-keyboard-response","64","218146","0.0-7.0-1.0-1.0-0.0-1.27","4","4","4","4","4","4","4","3","4","4","5","5","5","5","5","5","5","5","5","5","1","1","1","1","1","1","1","1","1","0","0","1","1","0","0","0","0","0","1","0","0","1","0","0","5","1","2","1","1","1","1","2","2","5","1","598908778728914944","黄","249","","","","","","","","","","","","","","","","","","","","","","","","","","","","","","feedback_test","","","","","","","","","","","",""
"640","","f","psychophysics","65","219788","0.0-7.0-1.0-1.0-0.0-0.28","4","4","4","4","4","4","4","3","4","4","5","5","5","5","5","5","5","5","5","5","1","1","1","1","1","1","1","1","1","0","0","1","1","0","0","0","0","0","1","0","0","1","0","0","5","1","2","1","1","1","1","2","2","5","1","598908778728914944","黄","249","","","","nonmatch","","","","","","","","","","","","","","key","f","16.651546391752397","768","428","f","true","nonmatch","img/triangle.png","六边","三角","ALT1_2","prac_ALT1_2","","","","","","","","","","","",""
"null","<span style='color:GreenYellow; font-size: 70px;'>正确! </span>","null","html-keyboard-response","66","220289","0.0-7.0-1.0-1.0-0.0-1.28","4","4","4","4","4","4","4","3","4","4","5","5","5","5","5","5","5","5","5","5","1","1","1","1","1","1","1","1","1","0","0","1","1","0","0","0","0","0","1","0","0","1","0","0","5","1","2","1","1","1","1","2","2","5","1","598908778728914944","黄","249","","","","","","","","","","","","","","","","","","","","","","","","","","","","","","feedback_test","","","","","","","","","","","",""
"618","","j","psychophysics","67","221909","0.0-7.0-1.0-1.0-0.0-0.29","4","4","4","4","4","4","4","3","4","4","5","5","5","5","5","5","5","5","5","5","1","1","1","1","1","1","1","1","1","0","0","1","1","0","0","0","0","0","1","0","0","1","0","0","5","1","2","1","1","1","1","2","2","5","1","598908778728914944","黄","249","","","","match","","","","","","","","","","","","","","key","j","16.645360824742028","768","428","j","true","match","img/ellipse.png","椭圆","椭圆","ALT1_2","prac_ALT1_2","","","","","","","","","","","",""
"null","<span style='color:GreenYellow; font-size: 70px;'>正确! </span>","null","html-keyboard-response","68","222412","0.0-7.0-1.0-1.0-0.0-1.29","4","4","4","4","4","4","4","3","4","4","5","5","5","5","5","5","5","5","5","5","1","1","1","1","1","1","1","1","1","0","0","1","1","0","0","0","0","0","1","0","0","1","0","0","5","1","2","1","1","1","1","2","2","5","1","598908778728914944","黄","249","","","","","","","","","","","","","","","","","","","","","","","","","","","","","","feedback_test","","","","","","","","","","","",""
"734","","j","psychophysics","69","224148","0.0-7.0-1.0-1.0-0.0-0.30","4","4","4","4","4","4","4","3","4","4","5","5","5","5","5","5","5","5","5","5","1","1","1","1","1","1","1","1","1","0","0","1","1","0","0","0","0","0","1","0","0","1","0","0","5","1","2","1","1","1","1","2","2","5","1","598908778728914944","黄","249","","","","match","","","","","","","","","","","","","","key","j","16.651456310679666","768","428","j","true","match","img/diamond.png","菱形","菱形","ALT1_2","prac_ALT1_2","","","","","","","","","","","",""
"null","<span style='color:GreenYellow; font-size: 70px;'>正确! </span>","null","html-keyboard-response","70","224649","0.0-7.0-1.0-1.0-0.0-1.30","4","4","4","4","4","4","4","3","4","4","5","5","5","5","5","5","5","5","5","5","1","1","1","1","1","1","1","1","1","0","0","1","1","0","0","0","0","0","1","0","0","1","0","0","5","1","2","1","1","1","1","2","2","5","1","598908778728914944","黄","249","","","","","","","","","","","","","","","","","","","","","","","","","","","","","","feedback_test","","","","","","","","","","","",""
"576","","f","psychophysics","71","226228","0.0-7.0-1.0-1.0-0.0-0.31","4","4","4","4","4","4","4","3","4","4","5","5","5","5","5","5","5","5","5","5","1","1","1","1","1","1","1","1","1","0","0","1","1","0","0","0","0","0","1","0","0","1","0","0","5","1","2","1","1","1","1","2","2","5","1","598908778728914944","黄","249","","","","nonmatch","","","","","","","","","","","","","","key","f","16.652127659574344","768","428","f","true","nonmatch","img/diamond.png","六边","菱形","ALT1_2","prac_ALT1_2","","","","","","","","","","","",""
"null","<span style='color:GreenYellow; font-size: 70px;'>正确! </span>","null","html-keyboard-response","72","226728","0.0-7.0-1.0-1.0-0.0-1.31","4","4","4","4","4","4","4","3","4","4","5","5","5","5","5","5","5","5","5","5","1","1","1","1","1","1","1","1","1","0","0","1","1","0","0","0","0","0","1","0","0","1","0","0","5","1","2","1","1","1","1","2","2","5","1","598908778728914944","黄","249","","","","","","","","","","","","","","","","","","","","","","","","","","","","","","feedback_test","","","","","","","","","","","",""
"539","","j","psychophysics","73","228268","0.0-7.0-1.0-1.0-0.0-0.32","4","4","4","4","4","4","4","3","4","4","5","5","5","5","5","5","5","5","5","5","1","1","1","1","1","1","1","1","1","0","0","1","1","0","0","0","0","0","1","0","0","1","0","0","5","1","2","1","1","1","1","2","2","5","1","598908778728914944","黄","249","","","","match","","","","","","","","","","","","","","key","j","16.65326086956528","768","428","j","true","match","img/triangle.png","三角","三角","ALT1_2","prac_ALT1_2","","","","","","","","","","","",""
"null","<span style='color:GreenYellow; font-size: 70px;'>正确! </span>","null","html-keyboard-response","74","228769","0.0-7.0-1.0-1.0-0.0-1.32","4","4","4","4","4","4","4","3","4","4","5","5","5","5","5","5","5","5","5","5","1","1","1","1","1","1","1","1","1","0","0","1","1","0","0","0","0","0","1","0","0","1","0","0","5","1","2","1","1","1","1","2","2","5","1","598908778728914944","黄","249","","","","","","","","","","","","","","","","","","","","","","","","","","","","","","feedback_test","","","","","","","","","","","",""
"546","","f","psychophysics","75","230316","0.0-7.0-1.0-1.0-0.0-0.33","4","4","4","4","4","4","4","3","4","4","5","5","5","5","5","5","5","5","5","5","1","1","1","1","1","1","1","1","1","0","0","1","1","0","0","0","0","0","1","0","0","1","0","0","5","1","2","1","1","1","1","2","2","5","1","598908778728914944","黄","249","","","","nonmatch","","","","","","","","","","","","","","key","f","16.649999999999874","768","428","f","true","nonmatch","img/triangle.png","菱形","三角","ALT1_2","prac_ALT1_2","","","","","","","","","","","",""
"null","<span style='color:GreenYellow; font-size: 70px;'>正确! </span>","null","html-keyboard-response","76","230817","0.0-7.0-1.0-1.0-0.0-1.33","4","4","4","4","4","4","4","3","4","4","5","5","5","5","5","5","5","5","5","5","1","1","1","1","1","1","1","1","1","0","0","1","1","0","0","0","0","0","1","0","0","1","0","0","5","1","2","1","1","1","1","2","2","5","1","598908778728914944","黄","249","","","","","","","","","","","","","","","","","","","","","","","","","","","","","","feedback_test","","","","","","","","","","","",""
"585","","f","psychophysics","77","232404","0.0-7.0-1.0-1.0-0.0-0.34","4","4","4","4","4","4","4","3","4","4","5","5","5","5","5","5","5","5","5","5","1","1","1","1","1","1","1","1","1","0","0","1","1","0","0","0","0","0","1","0","0","1","0","0","5","1","2","1","1","1","1","2","2","5","1","598908778728914944","黄","249","","","","nonmatch","","","","","","","","","","","","","","key","f","16.65319148936164","768","428","f","true","nonmatch","img/triangle.png","椭圆","三角","ALT1_2","prac_ALT1_2","","","","","","","","","","","",""
"null","<span style='color:GreenYellow; font-size: 70px;'>正确! </span>","null","html-keyboard-response","78","232905","0.0-7.0-1.0-1.0-0.0-1.34","4","4","4","4","4","4","4","3","4","4","5","5","5","5","5","5","5","5","5","5","1","1","1","1","1","1","1","1","1","0","0","1","1","0","0","0","0","0","1","0","0","1","0","0","5","1","2","1","1","1","1","2","2","5","1","598908778728914944","黄","249","","","","","","","","","","","","","","","","","","","","","","","","","","","","","","feedback_test","","","","","","","","","","","",""
"866","","j","psychophysics","79","234773","0.0-7.0-1.0-1.0-0.0-0.35","4","4","4","4","4","4","4","3","4","4","5","5","5","5","5","5","5","5","5","5","1","1","1","1","1","1","1","1","1","0","0","1","1","0","0","0","0","0","1","0","0","1","0","0","5","1","2","1","1","1","1","2","2","5","1","598908778728914944","黄","249","","","","match","","","","","","","","","","","","","","key","j","16.650450450450293","768","428","j","true","match","img/diamond.png","菱形","菱形","ALT1_2","prac_ALT1_2","","","","","","","","","","","",""
"null","<span style='color:GreenYellow; font-size: 70px;'>正确! </span>","null","html-keyboard-response","80","235274","0.0-7.0-1.0-1.0-0.0-1.35","4","4","4","4","4","4","4","3","4","4","5","5","5","5","5","5","5","5","5","5","1","1","1","1","1","1","1","1","1","0","0","1","1","0","0","0","0","0","1","0","0","1","0","0","5","1","2","1","1","1","1","2","2","5","1","598908778728914944","黄","249","","","","","","","","","","","","","","","","","","","","","","","","","","","","","","feedback_test","","","","","","","","","","","",""
"537","","f","psychophysics","81","236812","0.0-7.0-1.0-1.0-0.0-0.36","4","4","4","4","4","4","4","3","4","4","5","5","5","5","5","5","5","5","5","5","1","1","1","1","1","1","1","1","1","0","0","1","1","0","0","0","0","0","1","0","0","1","0","0","5","1","2","1","1","1","1","2","2","5","1","598908778728914944","黄","249","","","","nonmatch","","","","","","","","","","","","","","key","f","16.65543478260857","768","428","f","true","nonmatch","img/ellipse.png","六边","椭圆","ALT1_2","prac_ALT1_2","","","","","","","","","","","",""
"null","<span style='color:GreenYellow; font-size: 70px;'>正确! </span>","null","html-keyboard-response","82","237313","0.0-7.0-1.0-1.0-0.0-1.36","4","4","4","4","4","4","4","3","4","4","5","5","5","5","5","5","5","5","5","5","1","1","1","1","1","1","1","1","1","0","0","1","1","0","0","0","0","0","1","0","0","1","0","0","5","1","2","1","1","1","1","2","2","5","1","598908778728914944","黄","249","","","","","","","","","","","","","","","","","","","","","","","","","","","","","","feedback_test","","","","","","","","","","","",""
"602","","f","psychophysics","83","238916","0.0-7.0-1.0-1.0-0.0-0.37","4","4","4","4","4","4","4","3","4","4","5","5","5","5","5","5","5","5","5","5","1","1","1","1","1","1","1","1","1","0","0","1","1","0","0","0","0","0","1","0","0","1","0","0","5","1","2","1","1","1","1","2","2","5","1","598908778728914944","黄","249","","","","nonmatch","","","","","","","","","","","","","","key","f","16.65052631578935","768","428","f","true","nonmatch","img/hexagon.png","三角","六边","ALT1_2","prac_ALT1_2","","","","","","","","","","","",""
"null","<span style='color:GreenYellow; font-size: 70px;'>正确! </span>","null","html-keyboard-response","84","239419","0.0-7.0-1.0-1.0-0.0-1.37","4","4","4","4","4","4","4","3","4","4","5","5","5","5","5","5","5","5","5","5","1","1","1","1","1","1","1","1","1","0","0","1","1","0","0","0","0","0","1","0","0","1","0","0","5","1","2","1","1","1","1","2","2","5","1","598908778728914944","黄","249","","","","","","","","","","","","","","","","","","","","","","","","","","","","","","feedback_test","","","","","","","","","","","",""
"559","","j","psychophysics","85","240980","0.0-7.0-1.0-1.0-0.0-0.38","4","4","4","4","4","4","4","3","4","4","5","5","5","5","5","5","5","5","5","5","1","1","1","1","1","1","1","1","1","0","0","1","1","0","0","0","0","0","1","0","0","1","0","0","5","1","2","1","1","1","1","2","2","5","1","598908778728914944","黄","249","","","","match","","","","","","","","","","","","","","key","j","16.652688172043135","768","428","j","true","match","img/triangle.png","三角","三角","ALT1_2","prac_ALT1_2","","","","","","","","","","","",""
"null","<span style='color:GreenYellow; font-size: 70px;'>正确! </span>","null","html-keyboard-response","86","241482","0.0-7.0-1.0-1.0-0.0-1.38","4","4","4","4","4","4","4","3","4","4","5","5","5","5","5","5","5","5","5","5","1","1","1","1","1","1","1","1","1","0","0","1","1","0","0","0","0","0","1","0","0","1","0","0","5","1","2","1","1","1","1","2","2","5","1","598908778728914944","黄","249","","","","","","","","","","","","","","","","","","","","","","","","","","","","","","feedback_test","","","","","","","","","","","",""
"553","","j","psychophysics","87","243037","0.0-7.0-1.0-1.0-0.0-0.39","4","4","4","4","4","4","4","3","4","4","5","5","5","5","5","5","5","5","5","5","1","1","1","1","1","1","1","1","1","0","0","1","1","0","0","0","0","0","1","0","0","1","0","0","5","1","2","1","1","1","1","2","2","5","1","598908778728914944","黄","249","","","","match","","","","","","","","","","","","","","key","j","16.654347826087083","768","428","j","true","match","img/hexagon.png","六边","六边","ALT1_2","prac_ALT1_2","","","","","","","","","","","",""
"null","<span style='color:GreenYellow; font-size: 70px;'>正确! </span>","null","html-keyboard-response","88","243539","0.0-7.0-1.0-1.0-0.0-1.39","4","4","4","4","4","4","4","3","4","4","5","5","5","5","5","5","5","5","5","5","1","1","1","1","1","1","1","1","1","0","0","1","1","0","0","0","0","0","1","0","0","1","0","0","5","1","2","1","1","1","1","2","2","5","1","598908778728914944","黄","249","","","","","","","","","","","","","","","","","","","","","","","","","","","","","","feedback_test","","","","","","","","","","","",""
"567","","f","psychophysics","89","245108","0.0-7.0-1.0-1.0-0.0-0.40","4","4","4","4","4","4","4","3","4","4","5","5","5","5","5","5","5","5","5","5","1","1","1","1","1","1","1","1","1","0","0","1","1","0","0","0","0","0","1","0","0","1","0","0","5","1","2","1","1","1","1","2","2","5","1","598908778728914944","黄","249","","","","nonmatch","","","","","","","","","","","","","","key","f","16.64516129032258","768","428","f","true","nonmatch","img/hexagon.png","菱形","六边","ALT1_2","prac_ALT1_2","","","","","","","","","","","",""
"null","<span style='color:GreenYellow; font-size: 70px;'>正确! </span>","null","html-keyboard-response","90","245609","0.0-7.0-1.0-1.0-0.0-1.40","4","4","4","4","4","4","4","3","4","4","5","5","5","5","5","5","5","5","5","5","1","1","1","1","1","1","1","1","1","0","0","1","1","0","0","0","0","0","1","0","0","1","0","0","5","1","2","1","1","1","1","2","2","5","1","598908778728914944","黄","249","","","","","","","","","","","","","","","","","","","","","","","","","","","","","","feedback_test","","","","","","","","","","","",""
"665","","j","psychophysics","91","247276","0.0-7.0-1.0-1.0-0.0-0.41","4","4","4","4","4","4","4","3","4","4","5","5","5","5","5","5","5","5","5","5","1","1","1","1","1","1","1","1","1","0","0","1","1","0","0","0","0","0","1","0","0","1","0","0","5","1","2","1","1","1","1","2","2","5","1","598908778728914944","黄","249","","","","match","","","","","","","","","","","","","","key","j","16.65353535353547","768","428","j","true","match","img/hexagon.png","六边","六边","ALT1_2","prac_ALT1_2","","","","","","","","","","","",""
"null","<span style='color:GreenYellow; font-size: 70px;'>正确! </span>","null","html-keyboard-response","92","247777","0.0-7.0-1.0-1.0-0.0-1.41","4","4","4","4","4","4","4","3","4","4","5","5","5","5","5","5","5","5","5","5","1","1","1","1","1","1","1","1","1","0","0","1","1","0","0","0","0","0","1","0","0","1","0","0","5","1","2","1","1","1","1","2","2","5","1","598908778728914944","黄","249","","","","","","","","","","","","","","","","","","","","","","","","","","","","","","feedback_test","","","","","","","","","","","",""
"505","","j","psychophysics","93","249284","0.0-7.0-1.0-1.0-0.0-0.42","4","4","4","4","4","4","4","3","4","4","5","5","5","5","5","5","5","5","5","5","1","1","1","1","1","1","1","1","1","0","0","1","1","0","0","0","0","0","1","0","0","1","0","0","5","1","2","1","1","1","1","2","2","5","1","598908778728914944","黄","249","","","","match","","","","","","","","","","","","","","key","j","16.65222222222203","768","428","j","true","match","img/triangle.png","三角","三角","ALT1_2","prac_ALT1_2","","","","","","","","","","","",""
"null","<span style='color:GreenYellow; font-size: 70px;'>正确! </span>","null","html-keyboard-response","94","249785","0.0-7.0-1.0-1.0-0.0-1.42","4","4","4","4","4","4","4","3","4","4","5","5","5","5","5","5","5","5","5","5","1","1","1","1","1","1","1","1","1","0","0","1","1","0","0","0","0","0","1","0","0","1","0","0","5","1","2","1","1","1","1","2","2","5","1","598908778728914944","黄","249","","","","","","","","","","","","","","","","","","","","","","","","","","","","","","feedback_test","","","","","","","","","","","",""
"298","","j","psychophysics","95","251085","0.0-7.0-1.0-1.0-0.0-0.43","4","4","4","4","4","4","4","3","4","4","5","5","5","5","5","5","5","5","5","5","1","1","1","1","1","1","1","1","1","0","0","1","1","0","0","0","0","0","1","0","0","1","0","0","5","1","2","1","1","1","1","2","2","5","1","598908778728914944","黄","249","","","","match","","","","","","","","","","","","","","key","j","16.650649350649427","768","428","f","false","nonmatch","img/diamond.png","椭圆","菱形","ALT1_2","prac_ALT1_2","","","","","","","","","","","",""
"null","<span style='color:red; font-size: 70px;'>错误! </span>","null","html-keyboard-response","96","251586","0.0-7.0-1.0-1.0-0.0-1.43","4","4","4","4","4","4","4","3","4","4","5","5","5","5","5","5","5","5","5","5","1","1","1","1","1","1","1","1","1","0","0","1","1","0","0","0","0","0","1","0","0","1","0","0","5","1","2","1","1","1","1","2","2","5","1","598908778728914944","黄","249","","","","","","","","","","","","","","","","","","","","","","","","","","","","","","feedback_test","","","","","","","","","","","",""
"697","","f","psychophysics","97","253284","0.0-7.0-1.0-1.0-0.0-0.44","4","4","4","4","4","4","4","3","4","4","5","5","5","5","5","5","5","5","5","5","1","1","1","1","1","1","1","1","1","0","0","1","1","0","0","0","0","0","1","0","0","1","0","0","5","1","2","1","1","1","1","2","2","5","1","598908778728914944","黄","249","","","","nonmatch","","","","","","","","","","","","","","key","f","16.650495049505064","768","428","f","true","nonmatch","img/hexagon.png","椭圆","六边","ALT1_2","prac_ALT1_2","","","","","","","","","","","",""
"null","<span style='color:GreenYellow; font-size: 70px;'>正确! </span>","null","html-keyboard-response","98","253785","0.0-7.0-1.0-1.0-0.0-1.44","4","4","4","4","4","4","4","3","4","4","5","5","5","5","5","5","5","5","5","5","1","1","1","1","1","1","1","1","1","0","0","1","1","0","0","0","0","0","1","0","0","1","0","0","5","1","2","1","1","1","1","2","2","5","1","598908778728914944","黄","249","","","","","","","","","","","","","","","","","","","","","","","","","","","","","","feedback_test","","","","","","","","","","","",""
"522","","f","psychophysics","99","255308","0.0-7.0-1.0-1.0-0.0-0.45","4","4","4","4","4","4","4","3","4","4","5","5","5","5","5","5","5","5","5","5","1","1","1","1","1","1","1","1","1","0","0","1","1","0","0","0","0","0","1","0","0","1","0","0","5","1","2","1","1","1","1","2","2","5","1","598908778728914944","黄","249","","","","nonmatch","","","","","","","","","","","","","","key","f","16.65","768","428","f","true","nonmatch","img/ellipse.png","三角","椭圆","ALT1_2","prac_ALT1_2","","","","","","","","","","","",""
"null","<span style='color:GreenYellow; font-size: 70px;'>正确! </span>","null","html-keyboard-response","100","255809","0.0-7.0-1.0-1.0-0.0-1.45","4","4","4","4","4","4","4","3","4","4","5","5","5","5","5","5","5","5","5","5","1","1","1","1","1","1","1","1","1","0","0","1","1","0","0","0","0","0","1","0","0","1","0","0","5","1","2","1","1","1","1","2","2","5","1","598908778728914944","黄","249","","","","","","","","","","","","","","","","","","","","","","","","","","","","","","feedback_test","","","","","","","","","","","",""
"642","","j","psychophysics","101","257452","0.0-7.0-1.0-1.0-0.0-0.46","4","4","4","4","4","4","4","3","4","4","5","5","5","5","5","5","5","5","5","5","1","1","1","1","1","1","1","1","1","0","0","1","1","0","0","0","0","0","1","0","0","1","0","0","5","1","2","1","1","1","1","2","2","5","1","598908778728914944","黄","249","","","","match","","","","","","","","","","","","","","key","j","16.650515463917586","768","428","j","true","match","img/ellipse.png","椭圆","椭圆","ALT1_2","prac_ALT1_2","","","","","","","","","","","",""
"null","<span style='color:GreenYellow; font-size: 70px;'>正确! </span>","null","html-keyboard-response","102","257953","0.0-7.0-1.0-1.0-0.0-1.46","4","4","4","4","4","4","4","3","4","4","5","5","5","5","5","5","5","5","5","5","1","1","1","1","1","1","1","1","1","0","0","1","1","0","0","0","0","0","1","0","0","1","0","0","5","1","2","1","1","1","1","2","2","5","1","598908778728914944","黄","249","","","","","","","","","","","","","","","","","","","","","","","","","","","","","","feedback_test","","","","","","","","","","","",""
"594","","f","psychophysics","103","259549","0.0-7.0-1.0-1.0-0.0-0.47","4","4","4","4","4","4","4","3","4","4","5","5","5","5","5","5","5","5","5","5","1","1","1","1","1","1","1","1","1","0","0","1","1","0","0","0","0","0","1","0","0","1","0","0","5","1","2","1","1","1","1","2","2","5","1","598908778728914944","黄","249","","","","nonmatch","","","","","","","","","","","","","","key","f","16.652631578947368","768","428","f","true","nonmatch","img/ellipse.png","菱形","椭圆","ALT1_2","prac_ALT1_2","","","","","","","","","","","",""
"null","<span style='color:GreenYellow; font-size: 70px;'>正确! </span>","null","html-keyboard-response","104","260052","0.0-7.0-1.0-1.0-0.0-1.47","4","4","4","4","4","4","4","3","4","4","5","5","5","5","5","5","5","5","5","5","1","1","1","1","1","1","1","1","1","0","0","1","1","0","0","0","0","0","1","0","0","1","0","0","5","1","2","1","1","1","1","2","2","5","1","598908778728914944","黄","249","","","","","","","","","","","","","","","","","","","","","","","","","","","","","","feedback_test","","","","","","","","","","","",""
"37920","<style>.context{color:white; font-size: 35px; line-height:40px}</style>                          <div><p class='context'>您正确回答了92% 的试次。</p><p class='context'>您的平均反应时为609毫秒。</p><p class='context'>恭喜您完成练习。按空格键进入正式实验。</p><p class='footer' style='font-size: 35px; line-height:40px;'>请在进入正式实验实验之前将您的<span style='color: lightgreen;'>食指</span>放在电脑键盘的相应键位上进行按键。</p>"," ","html-keyboard-response","105","297973","0.0-7.0-1.0-2.0","4","4","4","4","4","4","4","3","4","4","5","5","5","5","5","5","5","5","5","5","1","1","1","1","1","1","1","1","1","0","0","1","1","0","0","0","0","0","1","0","0","1","0","0","5","1","2","1","1","1","1","2","2","5","1","598908778728914944","黄","249","","","","","","","","","","","","","","","","","","","","","","","","","","","","","","","","","","","","","","","","","",""
"1188","
  <p style='color: white; font-size: 22px'>请您将手指放在按键上，准备进入正式的匹配任务。</p>
  <p> <div style = ""color: green""><按空格键进入下一阶段的匹配任务></div></p>
  "," ","html-keyboard-response","106","299164","0.0-7.0-1.0-3.0","4","4","4","4","4","4","4","3","4","4","5","5","5","5","5","5","5","5","5","5","1","1","1","1","1","1","1","1","1","0","0","1","1","0","0","0","0","0","1","0","0","1","0","0","5","1","2","1","1","1","1","2","2","5","1","598908778728914944","黄","249","","","","","","","","","","","","","","","","","","","","","","","","","","","","","","","","","","","","","","","","","",""
"599","","j","psychophysics","107","300764","0.0-7.0-1.0-4.0-0.0-0.0","4","4","4","4","4","4","4","3","4","4","5","5","5","5","5","5","5","5","5","5","1","1","1","1","1","1","1","1","1","0","0","1","1","0","0","0","0","0","1","0","0","1","0","0","5","1","2","1","1","1","1","2","2","5","1","598908778728914944","黄","249","","","","match","","","","","","","","","","","","","","key","j","16.65052631578935","768","428","j","true","match","img/triangle.png","三角","三角","ALT1","formal_ALT1_2","","","","","","","","","","","",""
"null","<span style='color:GreenYellow; font-size: 70px;'>正确! </span>","null","html-keyboard-response","108","301264","0.0-7.0-1.0-4.0-0.0-1.0","4","4","4","4","4","4","4","3","4","4","5","5","5","5","5","5","5","5","5","5","1","1","1","1","1","1","1","1","1","0","0","1","1","0","0","0","0","0","1","0","0","1","0","0","5","1","2","1","1","1","1","2","2","5","1","598908778728914944","黄","249","","","","","","","","","","","","","","","","","","","","","","","","","","","","","","feedback_test","","","","","","","","","","","",""
"675","","j","psychophysics","109","302940","0.0-7.0-1.0-4.0-0.0-0.1","4","4","4","4","4","4","4","3","4","4","5","5","5","5","5","5","5","5","5","5","1","1","1","1","1","1","1","1","1","0","0","1","1","0","0","0","0","0","1","0","0","1","0","0","5","1","2","1","1","1","1","2","2","5","1","598908778728914944","黄","249","","","","match","","","","","","","","","","","","","","key","j","16.652000000000115","768","428","j","true","match","img/diamond.png","菱形","菱形","ALT1","formal_ALT1_2","","","","","","","","","","","",""
"null","<span style='color:GreenYellow; font-size: 70px;'>正确! </span>","null","html-keyboard-response","110","303441","0.0-7.0-1.0-4.0-0.0-1.1","4","4","4","4","4","4","4","3","4","4","5","5","5","5","5","5","5","5","5","5","1","1","1","1","1","1","1","1","1","0","0","1","1","0","0","0","0","0","1","0","0","1","0","0","5","1","2","1","1","1","1","2","2","5","1","598908778728914944","黄","249","","","","","","","","","","","","","","","","","","","","","","","","","","","","","","feedback_test","","","","","","","","","","","",""
"714","","f","psychophysics","111","305156","0.0-7.0-1.0-4.0-0.0-0.2","4","4","4","4","4","4","4","3","4","4","5","5","5","5","5","5","5","5","5","5","1","1","1","1","1","1","1","1","1","0","0","1","1","0","0","0","0","0","1","0","0","1","0","0","5","1","2","1","1","1","1","2","2","5","1","598908778728914944","黄","249","","","","nonmatch","","","","","","","","","","","","","","key","f","16.653921568627567","768","428","f","true","nonmatch","img/hexagon.png","菱形","六边","ALT1","formal_ALT1_2","","","","","","","","","","","",""
"null","<span style='color:GreenYellow; font-size: 70px;'>正确! </span>","null","html-keyboard-response","112","305657","0.0-7.0-1.0-4.0-0.0-1.2","4","4","4","4","4","4","4","3","4","4","5","5","5","5","5","5","5","5","5","5","1","1","1","1","1","1","1","1","1","0","0","1","1","0","0","0","0","0","1","0","0","1","0","0","5","1","2","1","1","1","1","2","2","5","1","598908778728914944","黄","249","","","","","","","","","","","","","","","","","","","","","","","","","","","","","","feedback_test","","","","","","","","","","","",""
"634","","j","psychophysics","113","307293","0.0-7.0-1.0-4.0-0.0-0.3","4","4","4","4","4","4","4","3","4","4","5","5","5","5","5","5","5","5","5","5","1","1","1","1","1","1","1","1","1","0","0","1","1","0","0","0","0","0","1","0","0","1","0","0","5","1","2","1","1","1","1","2","2","5","1","598908778728914944","黄","249","","","","match","","","","","","","","","","","","","","key","j","16.651546391752696","768","428","j","true","match","img/hexagon.png","六边","六边","ALT1","formal_ALT1_2","","","","","","","","","","","",""
"null","<span style='color:GreenYellow; font-size: 70px;'>正确! </span>","null","html-keyboard-response","114","307794","0.0-7.0-1.0-4.0-0.0-1.3","4","4","4","4","4","4","4","3","4","4","5","5","5","5","5","5","5","5","5","5","1","1","1","1","1","1","1","1","1","0","0","1","1","0","0","0","0","0","1","0","0","1","0","0","5","1","2","1","1","1","1","2","2","5","1","598908778728914944","黄","249","","","","","","","","","","","","","","","","","","","","","","","","","","","","","","feedback_test","","","","","","","","","","","",""
"608","","f","psychophysics","115","309404","0.0-7.0-1.0-4.0-0.0-0.4","4","4","4","4","4","4","4","3","4","4","5","5","5","5","5","5","5","5","5","5","1","1","1","1","1","1","1","1","1","0","0","1","1","0","0","0","0","0","1","0","0","1","0","0","5","1","2","1","1","1","1","2","2","5","1","598908778728914944","黄","249","","","","nonmatch","","","","","","","","","","","","","","key","f","16.652631578947368","768","428","f","true","nonmatch","img/hexagon.png","椭圆","六边","ALT1","formal_ALT1_2","","","","","","","","","","","",""
"null","<span style='color:GreenYellow; font-size: 70px;'>正确! </span>","null","html-keyboard-response","116","309906","0.0-7.0-1.0-4.0-0.0-1.4","4","4","4","4","4","4","4","3","4","4","5","5","5","5","5","5","5","5","5","5","1","1","1","1","1","1","1","1","1","0","0","1","1","0","0","0","0","0","1","0","0","1","0","0","5","1","2","1","1","1","1","2","2","5","1","598908778728914944","黄","249","","","","","","","","","","","","","","","","","","","","","","","","","","","","","","feedback_test","","","","","","","","","","","",""
"569","","j","psychophysics","117","311476","0.0-7.0-1.0-4.0-0.0-0.5","4","4","4","4","4","4","4","3","4","4","5","5","5","5","5","5","5","5","5","5","1","1","1","1","1","1","1","1","1","0","0","1","1","0","0","0","0","0","1","0","0","1","0","0","5","1","2","1","1","1","1","2","2","5","1","598908778728914944","黄","249","","","","match","","","","","","","","","","","","","","key","j","16.651063829787358","768","428","j","true","match","img/triangle.png","三角","三角","ALT1","formal_ALT1_2","","","","","","","","","","","",""
"null","<span style='color:GreenYellow; font-size: 70px;'>正确! </span>","null","html-keyboard-response","118","311978","0.0-7.0-1.0-4.0-0.0-1.5","4","4","4","4","4","4","4","3","4","4","5","5","5","5","5","5","5","5","5","5","1","1","1","1","1","1","1","1","1","0","0","1","1","0","0","0","0","0","1","0","0","1","0","0","5","1","2","1","1","1","1","2","2","5","1","598908778728914944","黄","249","","","","","","","","","","","","","","","","","","","","","","","","","","","","","","feedback_test","","","","","","","","","","","",""
"633","","j","psychophysics","119","313612","0.0-7.0-1.0-4.0-0.0-0.6","4","4","4","4","4","4","4","3","4","4","5","5","5","5","5","5","5","5","5","5","1","1","1","1","1","1","1","1","1","0","0","1","1","0","0","0","0","0","1","0","0","1","0","0","5","1","2","1","1","1","1","2","2","5","1","598908778728914944","黄","249","","","","match","","","","","","","","","","","","","","key","j","16.655670103093144","768","428","j","true","match","img/diamond.png","菱形","菱形","ALT1","formal_ALT1_2","","","","","","","","","","","",""
"null","<span style='color:GreenYellow; font-size: 70px;'>正确! </span>","null","html-keyboard-response","120","314114","0.0-7.0-1.0-4.0-0.0-1.6","4","4","4","4","4","4","4","3","4","4","5","5","5","5","5","5","5","5","5","5","1","1","1","1","1","1","1","1","1","0","0","1","1","0","0","0","0","0","1","0","0","1","0","0","5","1","2","1","1","1","1","2","2","5","1","598908778728914944","黄","249","","","","","","","","","","","","","","","","","","","","","","","","","","","","","","feedback_test","","","","","","","","","","","",""
"617","","j","psychophysics","121","315732","0.0-7.0-1.0-4.0-0.0-0.7","4","4","4","4","4","4","4","3","4","4","5","5","5","5","5","5","5","5","5","5","1","1","1","1","1","1","1","1","1","0","0","1","1","0","0","0","0","0","1","0","0","1","0","0","5","1","2","1","1","1","1","2","2","5","1","598908778728914944","黄","249","","","","match","","","","","","","","","","","","","","key","j","16.651041666666668","768","428","j","true","match","img/diamond.png","菱形","菱形","ALT1","formal_ALT1_2","","","","","","","","","","","",""
"null","<span style='color:GreenYellow; font-size: 70px;'>正确! </span>","null","html-keyboard-response","122","316232","0.0-7.0-1.0-4.0-0.0-1.7","4","4","4","4","4","4","4","3","4","4","5","5","5","5","5","5","5","5","5","5","1","1","1","1","1","1","1","1","1","0","0","1","1","0","0","0","0","0","1","0","0","1","0","0","5","1","2","1","1","1","1","2","2","5","1","598908778728914944","黄","249","","","","","","","","","","","","","","","","","","","","","","","","","","","","","","feedback_test","","","","","","","","","","","",""
"634","","j","psychophysics","123","317868","0.0-7.0-1.0-4.0-0.0-0.8","4","4","4","4","4","4","4","3","4","4","5","5","5","5","5","5","5","5","5","5","1","1","1","1","1","1","1","1","1","0","0","1","1","0","0","0","0","0","1","0","0","1","0","0","5","1","2","1","1","1","1","2","2","5","1","598908778728914944","黄","249","","","","match","","","","","","","","","","","","","","key","j","16.652040816326767","768","428","j","true","match","img/hexagon.png","六边","六边","ALT1","formal_ALT1_2","","","","","","","","","","","",""
"null","<span style='color:GreenYellow; font-size: 70px;'>正确! </span>","null","html-keyboard-response","124","318371","0.0-7.0-1.0-4.0-0.0-1.8","4","4","4","4","4","4","4","3","4","4","5","5","5","5","5","5","5","5","5","5","1","1","1","1","1","1","1","1","1","0","0","1","1","0","0","0","0","0","1","0","0","1","0","0","5","1","2","1","1","1","1","2","2","5","1","598908778728914944","黄","249","","","","","","","","","","","","","","","","","","","","","","","","","","","","","","feedback_test","","","","","","","","","","","",""
"696","","f","psychophysics","125","320068","0.0-7.0-1.0-4.0-0.0-0.9","4","4","4","4","4","4","4","3","4","4","5","5","5","5","5","5","5","5","5","5","1","1","1","1","1","1","1","1","1","0","0","1","1","0","0","0","0","0","1","0","0","1","0","0","5","1","2","1","1","1","1","2","2","5","1","598908778728914944","黄","249","","","","nonmatch","","","","","","","","","","","","","","key","f","16.654455445544325","768","428","f","true","nonmatch","img/triangle.png","菱形","三角","ALT1","formal_ALT1_2","","","","","","","","","","","",""
"null","<span style='color:GreenYellow; font-size: 70px;'>正确! </span>","null","html-keyboard-response","126","320570","0.0-7.0-1.0-4.0-0.0-1.9","4","4","4","4","4","4","4","3","4","4","5","5","5","5","5","5","5","5","5","5","1","1","1","1","1","1","1","1","1","0","0","1","1","0","0","0","0","0","1","0","0","1","0","0","5","1","2","1","1","1","1","2","2","5","1","598908778728914944","黄","249","","","","","","","","","","","","","","","","","","","","","","","","","","","","","","feedback_test","","","","","","","","","","","",""
"608","","f","psychophysics","127","322181","0.0-7.0-1.0-4.0-0.0-0.10","4","4","4","4","4","4","4","3","4","4","5","5","5","5","5","5","5","5","5","5","1","1","1","1","1","1","1","1","1","0","0","1","1","0","0","0","0","0","1","0","0","1","0","0","5","1","2","1","1","1","1","2","2","5","1","598908778728914944","黄","249","","","","nonmatch","","","","","","","","","","","","","","key","f","16.651041666666668","768","428","f","true","nonmatch","img/diamond.png","椭圆","菱形","ALT1","formal_ALT1_2","","","","","","","","","","","",""
"null","<span style='color:GreenYellow; font-size: 70px;'>正确! </span>","null","html-keyboard-response","128","322681","0.0-7.0-1.0-4.0-0.0-1.10","4","4","4","4","4","4","4","3","4","4","5","5","5","5","5","5","5","5","5","5","1","1","1","1","1","1","1","1","1","0","0","1","1","0","0","0","0","0","1","0","0","1","0","0","5","1","2","1","1","1","1","2","2","5","1","598908778728914944","黄","249","","","","","","","","","","","","","","","","","","","","","","","","","","","","","","feedback_test","","","","","","","","","","","",""
"794","","j","psychophysics","129","324476","0.0-7.0-1.0-4.0-0.0-0.11","4","4","4","4","4","4","4","3","4","4","5","5","5","5","5","5","5","5","5","5","1","1","1","1","1","1","1","1","1","0","0","1","1","0","0","0","0","0","1","0","0","1","0","0","5","1","2","1","1","1","1","2","2","5","1","598908778728914944","黄","249","","","","match","","","","","","","","","","","","","","key","j","16.650943396226417","768","428","j","true","match","img/ellipse.png","椭圆","椭圆","ALT1","formal_ALT1_2","","","","","","","","","","","",""
"null","<span style='color:GreenYellow; font-size: 70px;'>正确! </span>","null","html-keyboard-response","130","324977","0.0-7.0-1.0-4.0-0.0-1.11","4","4","4","4","4","4","4","3","4","4","5","5","5","5","5","5","5","5","5","5","1","1","1","1","1","1","1","1","1","0","0","1","1","0","0","0","0","0","1","0","0","1","0","0","5","1","2","1","1","1","1","2","2","5","1","598908778728914944","黄","249","","","","","","","","","","","","","","","","","","","","","","","","","","","","","","feedback_test","","","","","","","","","","","",""
"681","","f","psychophysics","131","326661","0.0-7.0-1.0-4.0-0.0-0.12","4","4","4","4","4","4","4","3","4","4","5","5","5","5","5","5","5","5","5","5","1","1","1","1","1","1","1","1","1","0","0","1","1","0","0","0","0","0","1","0","0","1","0","0","5","1","2","1","1","1","1","2","2","5","1","598908778728914944","黄","249","","","","nonmatch","","","","","","","","","","","","","","key","f","16.645","768","428","f","true","nonmatch","img/triangle.png","六边","三角","ALT1","formal_ALT1_2","","","","","","","","","","","",""
"null","<span style='color:GreenYellow; font-size: 70px;'>正确! </span>","null","html-keyboard-response","132","327161","0.0-7.0-1.0-4.0-0.0-1.12","4","4","4","4","4","4","4","3","4","4","5","5","5","5","5","5","5","5","5","5","1","1","1","1","1","1","1","1","1","0","0","1","1","0","0","0","0","0","1","0","0","1","0","0","5","1","2","1","1","1","1","2","2","5","1","598908778728914944","黄","249","","","","","","","","","","","","","","","","","","","","","","","","","","","","","","feedback_test","","","","","","","","","","","",""
"649","","f","psychophysics","133","328812","0.0-7.0-1.0-4.0-0.0-0.13","4","4","4","4","4","4","4","3","4","4","5","5","5","5","5","5","5","5","5","5","1","1","1","1","1","1","1","1","1","0","0","1","1","0","0","0","0","0","1","0","0","1","0","0","5","1","2","1","1","1","1","2","2","5","1","598908778728914944","黄","249","","","","nonmatch","","","","","","","","","","","","","","key","f","16.64591836734682","768","428","j","false","match","img/hexagon.png","六边","六边","ALT1","formal_ALT1_2","","","","","","","","","","","",""
"null","<span style='color:red; font-size: 70px;'>错误! </span>","null","html-keyboard-response","134","329313","0.0-7.0-1.0-4.0-0.0-1.13","4","4","4","4","4","4","4","3","4","4","5","5","5","5","5","5","5","5","5","5","1","1","1","1","1","1","1","1","1","0","0","1","1","0","0","0","0","0","1","0","0","1","0","0","5","1","2","1","1","1","1","2","2","5","1","598908778728914944","黄","249","","","","","","","","","","","","","","","","","","","","","","","","","","","","","","feedback_test","","","","","","","","","","","",""
"762","","f","psychophysics","135","331076","0.0-7.0-1.0-4.0-0.0-0.14","4","4","4","4","4","4","4","3","4","4","5","5","5","5","5","5","5","5","5","5","1","1","1","1","1","1","1","1","1","0","0","1","1","0","0","0","0","0","1","0","0","1","0","0","5","1","2","1","1","1","1","2","2","5","1","598908778728914944","黄","249","","","","nonmatch","","","","","","","","","","","","","","key","f","16.64952380952392","768","428","f","true","nonmatch","img/triangle.png","椭圆","三角","ALT1","formal_ALT1_2","","","","","","","","","","","",""
"null","<span style='color:GreenYellow; font-size: 70px;'>正确! </span>","null","html-keyboard-response","136","331578","0.0-7.0-1.0-4.0-0.0-1.14","4","4","4","4","4","4","4","3","4","4","5","5","5","5","5","5","5","5","5","5","1","1","1","1","1","1","1","1","1","0","0","1","1","0","0","0","0","0","1","0","0","1","0","0","5","1","2","1","1","1","1","2","2","5","1","598908778728914944","黄","249","","","","","","","","","","","","","","","","","","","","","","","","","","","","","","feedback_test","","","","","","","","","","","",""
"665","","f","psychophysics","137","333244","0.0-7.0-1.0-4.0-0.0-0.15","4","4","4","4","4","4","4","3","4","4","5","5","5","5","5","5","5","5","5","5","1","1","1","1","1","1","1","1","1","0","0","1","1","0","0","0","0","0","1","0","0","1","0","0","5","1","2","1","1","1","1","2","2","5","1","598908778728914944","黄","249","","","","nonmatch","","","","","","","","","","","","","","key","f","16.650505050505284","768","428","f","true","nonmatch","img/diamond.png","六边","菱形","ALT1","formal_ALT1_2","","","","","","","","","","","",""
"null","<span style='color:GreenYellow; font-size: 70px;'>正确! </span>","null","html-keyboard-response","138","333746","0.0-7.0-1.0-4.0-0.0-1.15","4","4","4","4","4","4","4","3","4","4","5","5","5","5","5","5","5","5","5","5","1","1","1","1","1","1","1","1","1","0","0","1","1","0","0","0","0","0","1","0","0","1","0","0","5","1","2","1","1","1","1","2","2","5","1","598908778728914944","黄","249","","","","","","","","","","","","","","","","","","","","","","","","","","","","","","feedback_test","","","","","","","","","","","",""
"591","","j","psychophysics","139","335340","0.0-7.0-1.0-4.0-0.0-0.16","4","4","4","4","4","4","4","3","4","4","5","5","5","5","5","5","5","5","5","5","1","1","1","1","1","1","1","1","1","0","0","1","1","0","0","0","0","0","1","0","0","1","0","0","5","1","2","1","1","1","1","2","2","5","1","598908778728914944","黄","249","","","","match","","","","","","","","","","","","","","key","j","16.65052631578935","768","428","j","true","match","img/triangle.png","三角","三角","ALT1","formal_ALT1_2","","","","","","","","","","","",""
"null","<span style='color:GreenYellow; font-size: 70px;'>正确! </span>","null","html-keyboard-response","140","335842","0.0-7.0-1.0-4.0-0.0-1.16","4","4","4","4","4","4","4","3","4","4","5","5","5","5","5","5","5","5","5","5","1","1","1","1","1","1","1","1","1","0","0","1","1","0","0","0","0","0","1","0","0","1","0","0","5","1","2","1","1","1","1","2","2","5","1","598908778728914944","黄","249","","","","","","","","","","","","","","","","","","","","","","","","","","","","","","feedback_test","","","","","","","","","","","",""
"610","","f","psychophysics","141","337453","0.0-7.0-1.0-4.0-0.0-0.17","4","4","4","4","4","4","4","3","4","4","5","5","5","5","5","5","5","5","5","5","1","1","1","1","1","1","1","1","1","0","0","1","1","0","0","0","0","0","1","0","0","1","0","0","5","1","2","1","1","1","1","2","2","5","1","598908778728914944","黄","249","","","","nonmatch","","","","","","","","","","","","","","key","f","16.647916666666788","768","428","f","true","nonmatch","img/hexagon.png","三角","六边","ALT1","formal_ALT1_2","","","","","","","","","","","",""
"null","<span style='color:GreenYellow; font-size: 70px;'>正确! </span>","null","html-keyboard-response","142","337955","0.0-7.0-1.0-4.0-0.0-1.17","4","4","4","4","4","4","4","3","4","4","5","5","5","5","5","5","5","5","5","5","1","1","1","1","1","1","1","1","1","0","0","1","1","0","0","0","0","0","1","0","0","1","0","0","5","1","2","1","1","1","1","2","2","5","1","598908778728914944","黄","249","","","","","","","","","","","","","","","","","","","","","","","","","","","","","","feedback_test","","","","","","","","","","","",""
"560","","f","psychophysics","143","339516","0.0-7.0-1.0-4.0-0.0-0.18","4","4","4","4","4","4","4","3","4","4","5","5","5","5","5","5","5","5","5","5","1","1","1","1","1","1","1","1","1","0","0","1","1","0","0","0","0","0","1","0","0","1","0","0","5","1","2","1","1","1","1","2","2","5","1","598908778728914944","黄","249","","","","nonmatch","","","","","","","","","","","","","","key","f","16.64838709677407","768","428","f","true","nonmatch","img/ellipse.png","六边","椭圆","ALT1","formal_ALT1_2","","","","","","","","","","","",""
"null","<span style='color:GreenYellow; font-size: 70px;'>正确! </span>","null","html-keyboard-response","144","340018","0.0-7.0-1.0-4.0-0.0-1.18","4","4","4","4","4","4","4","3","4","4","5","5","5","5","5","5","5","5","5","5","1","1","1","1","1","1","1","1","1","0","0","1","1","0","0","0","0","0","1","0","0","1","0","0","5","1","2","1","1","1","1","2","2","5","1","598908778728914944","黄","249","","","","","","","","","","","","","","","","","","","","","","","","","","","","","","feedback_test","","","","","","","","","","","",""
"640","","f","psychophysics","145","341660","0.0-7.0-1.0-4.0-0.0-0.19","4","4","4","4","4","4","4","3","4","4","5","5","5","5","5","5","5","5","5","5","1","1","1","1","1","1","1","1","1","0","0","1","1","0","0","0","0","0","1","0","0","1","0","0","5","1","2","1","1","1","1","2","2","5","1","598908778728914944","黄","249","","","","nonmatch","","","","","","","","","","","","","","key","f","16.650515463917287","768","428","f","true","nonmatch","img/diamond.png","三角","菱形","ALT1","formal_ALT1_2","","","","","","","","","","","",""
"null","<span style='color:GreenYellow; font-size: 70px;'>正确! </span>","null","html-keyboard-response","146","342161","0.0-7.0-1.0-4.0-0.0-1.19","4","4","4","4","4","4","4","3","4","4","5","5","5","5","5","5","5","5","5","5","1","1","1","1","1","1","1","1","1","0","0","1","1","0","0","0","0","0","1","0","0","1","0","0","5","1","2","1","1","1","1","2","2","5","1","598908778728914944","黄","249","","","","","","","","","","","","","","","","","","","","","","","","","","","","","","feedback_test","","","","","","","","","","","",""
"665","","j","psychophysics","147","343828","0.0-7.0-1.0-4.0-0.0-0.20","4","4","4","4","4","4","4","3","4","4","5","5","5","5","5","5","5","5","5","5","1","1","1","1","1","1","1","1","1","0","0","1","1","0","0","0","0","0","1","0","0","1","0","0","5","1","2","1","1","1","1","2","2","5","1","598908778728914944","黄","249","","","","match","","","","","","","","","","","","","","key","j","16.646464646464647","768","428","j","true","match","img/ellipse.png","椭圆","椭圆","ALT1","formal_ALT1_2","","","","","","","","","","","",""
"null","<span style='color:GreenYellow; font-size: 70px;'>正确! </span>","null","html-keyboard-response","148","344328","0.0-7.0-1.0-4.0-0.0-1.20","4","4","4","4","4","4","4","3","4","4","5","5","5","5","5","5","5","5","5","5","1","1","1","1","1","1","1","1","1","0","0","1","1","0","0","0","0","0","1","0","0","1","0","0","5","1","2","1","1","1","1","2","2","5","1","598908778728914944","黄","249","","","","","","","","","","","","","","","","","","","","","","","","","","","","","","feedback_test","","","","","","","","","","","",""
"578","","f","psychophysics","149","345908","0.0-7.0-1.0-4.0-0.0-0.21","4","4","4","4","4","4","4","3","4","4","5","5","5","5","5","5","5","5","5","5","1","1","1","1","1","1","1","1","1","0","0","1","1","0","0","0","0","0","1","0","0","1","0","0","5","1","2","1","1","1","1","2","2","5","1","598908778728914944","黄","249","","","","nonmatch","","","","","","","","","","","","","","key","f","16.647311827957115","768","428","f","true","nonmatch","img/ellipse.png","三角","椭圆","ALT1","formal_ALT1_2","","","","","","","","","","","",""
"null","<span style='color:GreenYellow; font-size: 70px;'>正确! </span>","null","html-keyboard-response","150","346410","0.0-7.0-1.0-4.0-0.0-1.21","4","4","4","4","4","4","4","3","4","4","5","5","5","5","5","5","5","5","5","5","1","1","1","1","1","1","1","1","1","0","0","1","1","0","0","0","0","0","1","0","0","1","0","0","5","1","2","1","1","1","1","2","2","5","1","598908778728914944","黄","249","","","","","","","","","","","","","","","","","","","","","","","","","","","","","","feedback_test","","","","","","","","","","","",""
"567","","f","psychophysics","151","347980","0.0-7.0-1.0-4.0-0.0-0.22","4","4","4","4","4","4","4","3","4","4","5","5","5","5","5","5","5","5","5","5","1","1","1","1","1","1","1","1","1","0","0","1","1","0","0","0","0","0","1","0","0","1","0","0","5","1","2","1","1","1","1","2","2","5","1","598908778728914944","黄","249","","","","nonmatch","","","","","","","","","","","","","","key","f","16.65483870967767","768","428","f","true","nonmatch","img/ellipse.png","菱形","椭圆","ALT1","formal_ALT1_2","","","","","","","","","","","",""
"null","<span style='color:GreenYellow; font-size: 70px;'>正确! </span>","null","html-keyboard-response","152","348481","0.0-7.0-1.0-4.0-0.0-1.22","4","4","4","4","4","4","4","3","4","4","5","5","5","5","5","5","5","5","5","5","1","1","1","1","1","1","1","1","1","0","0","1","1","0","0","0","0","0","1","0","0","1","0","0","5","1","2","1","1","1","1","2","2","5","1","598908778728914944","黄","249","","","","","","","","","","","","","","","","","","","","","","","","","","","","","","feedback_test","","","","","","","","","","","",""
"721","","j","psychophysics","153","350204","0.0-7.0-1.0-4.0-0.0-0.23","4","4","4","4","4","4","4","3","4","4","5","5","5","5","5","5","5","5","5","5","1","1","1","1","1","1","1","1","1","0","0","1","1","0","0","0","0","0","1","0","0","1","0","0","5","1","2","1","1","1","1","2","2","5","1","598908778728914944","黄","249","","","","match","","","","","","","","","","","","","","key","j","16.648039215686616","768","428","j","true","match","img/ellipse.png","椭圆","椭圆","ALT1","formal_ALT1_2","","","","","","","","","","","",""
"null","<span style='color:GreenYellow; font-size: 70px;'>正确! </span>","null","html-keyboard-response","154","350706","0.0-7.0-1.0-4.0-0.0-1.23","4","4","4","4","4","4","4","3","4","4","5","5","5","5","5","5","5","5","5","5","1","1","1","1","1","1","1","1","1","0","0","1","1","0","0","0","0","0","1","0","0","1","0","0","5","1","2","1","1","1","1","2","2","5","1","598908778728914944","黄","249","","","","","","","","","","","","","","","","","","","","","","","","","","","","","","feedback_test","","","","","","","","","","","",""
"648","","f","psychophysics","155","352357","0.0-7.0-1.0-4.0-0.0-0.24","4","4","4","4","4","4","4","3","4","4","5","5","5","5","5","5","5","5","5","5","1","1","1","1","1","1","1","1","1","0","0","1","1","0","0","0","0","0","1","0","0","1","0","0","5","1","2","1","1","1","1","2","2","5","1","598908778728914944","黄","249","","","","nonmatch","","","","","","","","","","","","","","key","f","16.65408163265342","768","428","f","true","nonmatch","img/ellipse.png","菱形","椭圆","ALT1","formal_ALT1_2","","","","","","","","","","","",""
"null","<span style='color:GreenYellow; font-size: 70px;'>正确! </span>","null","html-keyboard-response","156","352859","0.0-7.0-1.0-4.0-0.0-1.24","4","4","4","4","4","4","4","3","4","4","5","5","5","5","5","5","5","5","5","5","1","1","1","1","1","1","1","1","1","0","0","1","1","0","0","0","0","0","1","0","0","1","0","0","5","1","2","1","1","1","1","2","2","5","1","598908778728914944","黄","249","","","","","","","","","","","","","","","","","","","","","","","","","","","","","","feedback_test","","","","","","","","","","","",""
"823","","f","psychophysics","157","354684","0.0-7.0-1.0-4.0-0.0-0.25","4","4","4","4","4","4","4","3","4","4","5","5","5","5","5","5","5","5","5","5","1","1","1","1","1","1","1","1","1","0","0","1","1","0","0","0","0","0","1","0","0","1","0","0","5","1","2","1","1","1","1","2","2","5","1","598908778728914944","黄","249","","","","nonmatch","","","","","","","","","","","","","","key","f","16.646788990825687","768","428","j","false","match","img/diamond.png","菱形","菱形","ALT1","formal_ALT1_2","","","","","","","","","","","",""
"null","<span style='color:red; font-size: 70px;'>错误! </span>","null","html-keyboard-response","158","355185","0.0-7.0-1.0-4.0-0.0-1.25","4","4","4","4","4","4","4","3","4","4","5","5","5","5","5","5","5","5","5","5","1","1","1","1","1","1","1","1","1","0","0","1","1","0","0","0","0","0","1","0","0","1","0","0","5","1","2","1","1","1","1","2","2","5","1","598908778728914944","黄","249","","","","","","","","","","","","","","","","","","","","","","","","","","","","","","feedback_test","","","","","","","","","","","",""
"610","","j","psychophysics","159","356796","0.0-7.0-1.0-4.0-0.0-0.26","4","4","4","4","4","4","4","3","4","4","5","5","5","5","5","5","5","5","5","5","1","1","1","1","1","1","1","1","1","0","0","1","1","0","0","0","0","0","1","0","0","1","0","0","5","1","2","1","1","1","1","2","2","5","1","598908778728914944","黄","249","","","","match","","","","","","","","","","","","","","key","j","16.65052631578935","768","428","j","true","match","img/ellipse.png","椭圆","椭圆","ALT1","formal_ALT1_2","","","","","","","","","","","",""
"null","<span style='color:GreenYellow; font-size: 70px;'>正确! </span>","null","html-keyboard-response","160","357297","0.0-7.0-1.0-4.0-0.0-1.26","4","4","4","4","4","4","4","3","4","4","5","5","5","5","5","5","5","5","5","5","1","1","1","1","1","1","1","1","1","0","0","1","1","0","0","0","0","0","1","0","0","1","0","0","5","1","2","1","1","1","1","2","2","5","1","598908778728914944","黄","249","","","","","","","","","","","","","","","","","","","","","","","","","","","","","","feedback_test","","","","","","","","","","","",""
"680","","f","psychophysics","161","358980","0.0-7.0-1.0-4.0-0.0-0.27","4","4","4","4","4","4","4","3","4","4","5","5","5","5","5","5","5","5","5","5","1","1","1","1","1","1","1","1","1","0","0","1","1","0","0","0","0","0","1","0","0","1","0","0","5","1","2","1","1","1","1","2","2","5","1","598908778728914944","黄","249","","","","nonmatch","","","","","","","","","","","","","","key","f","16.632999999999882","768","428","f","true","nonmatch","img/diamond.png","六边","菱形","ALT1","formal_ALT1_2","","","","","","","","","","","",""
"null","<span style='color:GreenYellow; font-size: 70px;'>正确! </span>","null","html-keyboard-response","162","359482","0.0-7.0-1.0-4.0-0.0-1.27","4","4","4","4","4","4","4","3","4","4","5","5","5","5","5","5","5","5","5","5","1","1","1","1","1","1","1","1","1","0","0","1","1","0","0","0","0","0","1","0","0","1","0","0","5","1","2","1","1","1","1","2","2","5","1","598908778728914944","黄","249","","","","","","","","","","","","","","","","","","","","","","","","","","","","","","feedback_test","","","","","","","","","","","",""
"666","","f","psychophysics","163","361149","0.0-7.0-1.0-4.0-0.0-0.28","4","4","4","4","4","4","4","3","4","4","5","5","5","5","5","5","5","5","5","5","1","1","1","1","1","1","1","1","1","0","0","1","1","0","0","0","0","0","1","0","0","1","0","0","5","1","2","1","1","1","1","2","2","5","1","598908778728914944","黄","249","","","","nonmatch","","","","","","","","","","","","","","key","f","16.64949494949542","768","428","f","true","nonmatch","img/diamond.png","椭圆","菱形","ALT1","formal_ALT1_2","","","","","","","","","","","",""
"null","<span style='color:GreenYellow; font-size: 70px;'>正确! </span>","null","html-keyboard-response","164","361650","0.0-7.0-1.0-4.0-0.0-1.28","4","4","4","4","4","4","4","3","4","4","5","5","5","5","5","5","5","5","5","5","1","1","1","1","1","1","1","1","1","0","0","1","1","0","0","0","0","0","1","0","0","1","0","0","5","1","2","1","1","1","1","2","2","5","1","598908778728914944","黄","249","","","","","","","","","","","","","","","","","","","","","","","","","","","","","","feedback_test","","","","","","","","","","","",""
"568","","f","psychophysics","165","363220","0.0-7.0-1.0-4.0-0.0-0.29","4","4","4","4","4","4","4","3","4","4","5","5","5","5","5","5","5","5","5","5","1","1","1","1","1","1","1","1","1","0","0","1","1","0","0","0","0","0","1","0","0","1","0","0","5","1","2","1","1","1","1","2","2","5","1","598908778728914944","黄","249","","","","nonmatch","","","","","","","","","","","","","","key","f","16.64731182795649","768","428","f","true","nonmatch","img/ellipse.png","六边","椭圆","ALT1","formal_ALT1_2","","","","","","","","","","","",""
"null","<span style='color:GreenYellow; font-size: 70px;'>正确! </span>","null","html-keyboard-response","166","363721","0.0-7.0-1.0-4.0-0.0-1.29","4","4","4","4","4","4","4","3","4","4","5","5","5","5","5","5","5","5","5","5","1","1","1","1","1","1","1","1","1","0","0","1","1","0","0","0","0","0","1","0","0","1","0","0","5","1","2","1","1","1","1","2","2","5","1","598908778728914944","黄","249","","","","","","","","","","","","","","","","","","","","","","","","","","","","","","feedback_test","","","","","","","","","","","",""
"665","","j","psychophysics","167","365388","0.0-7.0-1.0-4.0-0.0-0.30","4","4","4","4","4","4","4","3","4","4","5","5","5","5","5","5","5","5","5","5","1","1","1","1","1","1","1","1","1","0","0","1","1","0","0","0","0","0","1","0","0","1","0","0","5","1","2","1","1","1","1","2","2","5","1","598908778728914944","黄","249","","","","match","","","","","","","","","","","","","","key","j","16.651515151515152","768","428","j","true","match","img/triangle.png","三角","三角","ALT1","formal_ALT1_2","","","","","","","","","","","",""
"null","<span style='color:GreenYellow; font-size: 70px;'>正确! </span>","null","html-keyboard-response","168","365888","0.0-7.0-1.0-4.0-0.0-1.30","4","4","4","4","4","4","4","3","4","4","5","5","5","5","5","5","5","5","5","5","1","1","1","1","1","1","1","1","1","0","0","1","1","0","0","0","0","0","1","0","0","1","0","0","5","1","2","1","1","1","1","2","2","5","1","598908778728914944","黄","249","","","","","","","","","","","","","","","","","","","","","","","","","","","","","","feedback_test","","","","","","","","","","","",""
"739","","j","psychophysics","169","367628","0.0-7.0-1.0-4.0-0.0-0.31","4","4","4","4","4","4","4","3","4","4","5","5","5","5","5","5","5","5","5","5","1","1","1","1","1","1","1","1","1","0","0","1","1","0","0","0","0","0","1","0","0","1","0","0","5","1","2","1","1","1","1","2","2","5","1","598908778728914944","黄","249","","","","match","","","","","","","","","","","","","","key","j","16.644660194174417","768","428","j","true","match","img/hexagon.png","六边","六边","ALT1","formal_ALT1_2","","","","","","","","","","","",""
"null","<span style='color:GreenYellow; font-size: 70px;'>正确! </span>","null","html-keyboard-response","170","368129","0.0-7.0-1.0-4.0-0.0-1.31","4","4","4","4","4","4","4","3","4","4","5","5","5","5","5","5","5","5","5","5","1","1","1","1","1","1","1","1","1","0","0","1","1","0","0","0","0","0","1","0","0","1","0","0","5","1","2","1","1","1","1","2","2","5","1","598908778728914944","黄","249","","","","","","","","","","","","","","","","","","","","","","","","","","","","","","feedback_test","","","","","","","","","","","",""
"769","","j","psychophysics","171","369900","0.0-7.0-1.0-4.0-0.0-0.32","4","4","4","4","4","4","4","3","4","4","5","5","5","5","5","5","5","5","5","5","1","1","1","1","1","1","1","1","1","0","0","1","1","0","0","0","0","0","1","0","0","1","0","0","5","1","2","1","1","1","1","2","2","5","1","598908778728914944","黄","249","","","","match","","","","","","","","","","","","","","key","j","16.65142857142879","768","428","f","false","nonmatch","img/triangle.png","菱形","三角","ALT1","formal_ALT1_2","","","","","","","","","","","",""
"null","<span style='color:red; font-size: 70px;'>错误! </span>","null","html-keyboard-response","172","370401","0.0-7.0-1.0-4.0-0.0-1.32","4","4","4","4","4","4","4","3","4","4","5","5","5","5","5","5","5","5","5","5","1","1","1","1","1","1","1","1","1","0","0","1","1","0","0","0","0","0","1","0","0","1","0","0","5","1","2","1","1","1","1","2","2","5","1","598908778728914944","黄","249","","","","","","","","","","","","","","","","","","","","","","","","","","","","","","feedback_test","","","","","","","","","","","",""
"658","","j","psychophysics","173","372060","0.0-7.0-1.0-4.0-0.0-0.33","4","4","4","4","4","4","4","3","4","4","5","5","5","5","5","5","5","5","5","5","1","1","1","1","1","1","1","1","1","0","0","1","1","0","0","0","0","0","1","0","0","1","0","0","5","1","2","1","1","1","1","2","2","5","1","598908778728914944","黄","249","","","","match","","","","","","","","","","","","","","key","j","16.641836734694117","768","428","j","true","match","img/ellipse.png","椭圆","椭圆","ALT1","formal_ALT1_2","","","","","","","","","","","",""
"null","<span style='color:GreenYellow; font-size: 70px;'>正确! </span>","null","html-keyboard-response","174","372561","0.0-7.0-1.0-4.0-0.0-1.33","4","4","4","4","4","4","4","3","4","4","5","5","5","5","5","5","5","5","5","5","1","1","1","1","1","1","1","1","1","0","0","1","1","0","0","0","0","0","1","0","0","1","0","0","5","1","2","1","1","1","1","2","2","5","1","598908778728914944","黄","249","","","","","","","","","","","","","","","","","","","","","","","","","","","","","","feedback_test","","","","","","","","","","","",""
"690","","f","psychophysics","175","374252","0.0-7.0-1.0-4.0-0.0-0.34","4","4","4","4","4","4","4","3","4","4","5","5","5","5","5","5","5","5","5","5","1","1","1","1","1","1","1","1","1","0","0","1","1","0","0","0","0","0","1","0","0","1","0","0","5","1","2","1","1","1","1","2","2","5","1","598908778728914944","黄","249","","","","nonmatch","","","","","","","","","","","","","","key","f","16.651485148514737","768","428","f","true","nonmatch","img/ellipse.png","三角","椭圆","ALT1","formal_ALT1_2","","","","","","","","","","","",""
"null","<span style='color:GreenYellow; font-size: 70px;'>正确! </span>","null","html-keyboard-response","176","374753","0.0-7.0-1.0-4.0-0.0-1.34","4","4","4","4","4","4","4","3","4","4","5","5","5","5","5","5","5","5","5","5","1","1","1","1","1","1","1","1","1","0","0","1","1","0","0","0","0","0","1","0","0","1","0","0","5","1","2","1","1","1","1","2","2","5","1","598908778728914944","黄","249","","","","","","","","","","","","","","","","","","","","","","","","","","","","","","feedback_test","","","","","","","","","","","",""
"657","","f","psychophysics","177","376412","0.0-7.0-1.0-4.0-0.0-0.35","4","4","4","4","4","4","4","3","4","4","5","5","5","5","5","5","5","5","5","5","1","1","1","1","1","1","1","1","1","0","0","1","1","0","0","0","0","0","1","0","0","1","0","0","5","1","2","1","1","1","1","2","2","5","1","598908778728914944","黄","249","","","","nonmatch","","","","","","","","","","","","","","key","f","16.654081632652822","768","428","j","false","match","img/diamond.png","菱形","菱形","ALT1","formal_ALT1_2","","","","","","","","","","","",""
"null","<span style='color:red; font-size: 70px;'>错误! </span>","null","html-keyboard-response","178","376913","0.0-7.0-1.0-4.0-0.0-1.35","4","4","4","4","4","4","4","3","4","4","5","5","5","5","5","5","5","5","5","5","1","1","1","1","1","1","1","1","1","0","0","1","1","0","0","0","0","0","1","0","0","1","0","0","5","1","2","1","1","1","1","2","2","5","1","598908778728914944","黄","249","","","","","","","","","","","","","","","","","","","","","","","","","","","","","","feedback_test","","","","","","","","","","","",""
"594","","j","psychophysics","179","378508","0.0-7.0-1.0-4.0-0.0-0.36","4","4","4","4","4","4","4","3","4","4","5","5","5","5","5","5","5","5","5","5","1","1","1","1","1","1","1","1","1","0","0","1","1","0","0","0","0","0","1","0","0","1","0","0","5","1","2","1","1","1","1","2","2","5","1","598908778728914944","黄","249","","","","match","","","","","","","","","","","","","","key","j","16.649999999999753","768","428","j","true","match","img/triangle.png","三角","三角","ALT1","formal_ALT1_2","","","","","","","","","","","",""
"null","<span style='color:GreenYellow; font-size: 70px;'>正确! </span>","null","html-keyboard-response","180","379008","0.0-7.0-1.0-4.0-0.0-1.36","4","4","4","4","4","4","4","3","4","4","5","5","5","5","5","5","5","5","5","5","1","1","1","1","1","1","1","1","1","0","0","1","1","0","0","0","0","0","1","0","0","1","0","0","5","1","2","1","1","1","1","2","2","5","1","598908778728914944","黄","249","","","","","","","","","","","","","","","","","","","","","","","","","","","","","","feedback_test","","","","","","","","","","","",""
"914","","j","psychophysics","181","380924","0.0-7.0-1.0-4.0-0.0-0.37","4","4","4","4","4","4","4","3","4","4","5","5","5","5","5","5","5","5","5","5","1","1","1","1","1","1","1","1","1","0","0","1","1","0","0","0","0","0","1","0","0","1","0","0","5","1","2","1","1","1","1","2","2","5","1","598908778728914944","黄","249","","","","match","","","","","","","","","","","","","","key","j","16.654385964912077","768","428","f","false","nonmatch","img/hexagon.png","菱形","六边","ALT1","formal_ALT1_2","","","","","","","","","","","",""
