"rt","stimulus","response","trial_type","trial_index","time_elapsed","internal_node_id","ses_1","ses_2","ses_3","ses_4","ses_5","ses_6","ses_7","ses_8","ses_9","ses_10","coreself_1","coreself_2","coreself_3","coreself_4","coreself_5","coreself_6","coreself_7","coreself_8","coreself_9","coreself_10","SGPS_1","SGPS_2","SGPS_3","SGPS_4","SGPS_5","SGPS_6","SGPS_7","SGPS_8","SGPS_9","NPI1","NPI2","NPI3","NPI4","NPI5","NPI6","NPI7","NPI8","NPI9","NPI10","NPI11","NPI12","NPI13","NPI14","NPI15","hsns_1","hsns_2","hsns_3","hsns_4","hsns_5","trap1","hsns_6","hsns_7","hsns_8","hsns_9","hsns_10","subj_idx","friend_name","ParticipantID","value","success","user_agent","responses","item_order","radio_event_ids","radio_event_times","key_event_times","mouse_event_times","straightlining","zigzagging","honeypot","timeout","failed_images","failed_audio","failed_video","version_attrib","version_target","correct","IAT","screen_id","task_id","RT","condition","word","varname","summary","version_attrib2","version_target2","time_stamp","view_history","response_type","key_press","avg_frame_time","center_x","center_y","correct_response","identity","Image","question_order","correct_answer","trap1_item"
"9592","
   <p><div style = ""color: white;font-size:25px;"">您好，欢迎参加本次实验。</div> </p>
   <p><div style = ""color: white;font-size:25px;"">为充分保障您的权利，请确保您已经知晓并同意《参与实验同意书》以及《数据公开知情同意书》。</div></p>
   <p><div style = ""color: white;font-size:25px;"">如果您未见过上述内容，请咨询实验员。</div></p>
   <p><div style = ""color: white;font-size:25px;"">如果您选择继续实验，则表示您已经清楚两份知情同意书的内容并同意。</div></p>
   <p><div style = ""color: pink;font-size:30px;"">请确保您记得day0的实验编号，您将在本次实验输入该编号，若您忘记，请咨询实验员后作答。</div></p>
   <p><div style = ""color: lightblue;font-size:25px;"">请您尽可能认真地作答，我们将依据您在各问卷和按键任务中的作答质量发放报酬。</div></p>
   <p> <div style = ""color: green;font-size:25px;""><按空格键至下页></div> </p>
   "," ","html-keyboard-response","0","9595","0.0-0.0","4","4","4","4","4","4","4","3","4","4","4","4","3","5","4","5","4","4","5","4","1","1","1","1","1","2","4","1","2","1","0","1","1","0","0","0","1","0","1","1","0","1","0","1","5","2","4","4","4","5","2","4","2","2","1","753301347197259777","赵","137","","","","","","","","","","","","","","","","","","","","","","","","","","","","","","","","","","","","","","","","","",""
"","","","call-function","1","9596","0.0-1.0-0.0","4","4","4","4","4","4","4","3","4","4","4","4","3","5","4","5","4","4","5","4","1","1","1","1","1","2","4","1","2","1","0","1","1","0","0","0","1","0","1","1","0","1","0","1","5","2","4","4","4","5","2","4","2","2","1","753301347197259777","赵","137","","","","","","","","","","","","","","","","","","","","","","","","","","","","","","","","","","","","","","","","","",""
"43451","","{""friend_name"":""赵"",""ParticipantID"":""137""}","survey-html-form","2","53049","0.0-1.0-1.0","4","4","4","4","4","4","4","3","4","4","4","4","3","5","4","5","4","4","5","4","1","1","1","1","1","2","4","1","2","1","0","1","1","0","0","0","1","0","1","1","0","1","0","1","5","2","4","4","4","5","2","4","2","2","1","753301347197259777","赵","137","","","","","","","","","","","","","","","","","","","","","","","","","","","","","","","","","","","","","","","","","",""
"","","","fullscreen","3","66402","0.0-2.0","4","4","4","4","4","4","4","3","4","4","4","4","3","5","4","5","4","4","5","4","1","1","1","1","1","2","4","1","2","1","0","1","1","0","0","0","1","0","1","1","0","1","0","1","5","2","4","4","4","5","2","4","2","2","1","753301347197259777","赵","137","","true","{}","","","","","","","","","","","","","","","","","","","","","","","","","","","","","","","","","","","","","","",""
"73452.5","","{""Q01"":""4"",""Q02"":""4"",""Q03"":""4"",""Q04"":""4"",""Q05"":""4"",""Q06"":""4"",""Q07"":""4"",""Q08"":""3"",""Q09"":""4"",""Q10"":""4""}","survey-template","4","139856","0.0-3.0","4","4","4","4","4","4","4","3","4","4","4","4","3","5","4","5","4","4","5","4","1","1","1","1","1","2","4","1","2","1","0","1","1","0","0","0","1","0","1","1","0","1","0","1","5","2","4","4","4","5","2","4","2","2","1","753301347197259777","赵","137","","","","{""Q01"":""4"",""Q02"":""4"",""Q03"":""4"",""Q04"":""4"",""Q05"":""4"",""Q06"":""4"",""Q07"":""4"",""Q08"":""3"",""Q09"":""4"",""Q10"":""4""}","[0,1,2,3,4,5,6,7,8,9]","[""Q01"",""Q03"",""Q04"",""Q05"",""Q06"",""Q07"",""Q08"",""Q09"",""Q10"",""Q08"",""Q02""]","[5995.79999999702,10611.89999999851,13339.60000000149,16307.89999999851,20692.5,21275.5,25275.29999999702,26611.5,29355.5,42373,60763.39999999851]","[]","[5995.79999999702,8283.29999999702,10611.89999999851,13339.60000000149,16307.89999999851,18452.29999999702,20692.5,21275.5,25275.29999999702,26611.5,29355.5,42373,51220.39999999851,55315.10000000149,60763.39999999851,73451.5]","0.5","0.5555555555555556","0","","","","","","","","","","","","","","","","","","","","","","","","","","","","","",""
"56048.80000000447","","{""Q01"":""4"",""Q02"":""4"",""Q03"":""3"",""Q04"":""5"",""Q05"":""4"",""Q06"":""5"",""Q07"":""4"",""Q08"":""4"",""Q09"":""5"",""Q10"":""4""}","survey-template","5","195912","0.0-4.0","4","4","4","4","4","4","4","3","4","4","4","4","3","5","4","5","4","4","5","4","1","1","1","1","1","2","4","1","2","1","0","1","1","0","0","0","1","0","1","1","0","1","0","1","5","2","4","4","4","5","2","4","2","2","1","753301347197259777","赵","137","","","","{""Q01"":""4"",""Q02"":""4"",""Q03"":""3"",""Q04"":""5"",""Q05"":""4"",""Q06"":""5"",""Q07"":""4"",""Q08"":""4"",""Q09"":""5"",""Q10"":""4""}","[0,1,2,3,4,5,6,7,8,9]","[""Q01"",""Q02"",""Q03"",""Q04"",""Q05"",""Q06"",""Q07"",""Q08"",""Q09"",""Q10"",""Q03""]","[4072.10000000149,11280.89999999851,18440.10000000149,21615.70000000298,24321.89999999851,26367.80000000447,27976.20000000298,30000.10000000149,34607.70000000298,37656,49000.20000000298]","[]","[4072.10000000149,11280.89999999851,18440.10000000149,21615.70000000298,24321.89999999851,26367.80000000447,27976.20000000298,30000.10000000149,34607.70000000298,37656,49000.20000000298,56047.89999999851]","0.5","0.1111111111111111","0","","","","","","","","","","","","","","","","","","","","","","","","","","","","","",""
"","","","preload","6","196255","0.0-5.0","4","4","4","4","4","4","4","3","4","4","4","4","3","5","4","5","4","4","5","4","1","1","1","1","1","2","4","1","2","1","0","1","1","0","0","0","1","0","1","1","0","1","0","1","5","2","4","4","4","5","2","4","2","2","1","753301347197259777","赵","137","","true","","","","","","","","","","","false","[]","[]","[]","","","","","","","","","","","","","","","","","","","","","","","","","",""
"20438","
    <h3>词语分类任务</h3>
    <p>在接下来的任务中，你需要对一系列词语进行分类。</p>
    <p>请先熟悉这些词语，这有利于你完成接下来的任务。</p>
    <table align=""center"" border=1 cellpadding=3 cellspacing=0>
    <tr> <th>类别</th> <th>词语</th> </tr>
    <tr> <td>&emsp;积极&emsp;</td> <td>&emsp;能干、全能、全才、高效、精干、天才&emsp;</td> </tr>
    <tr> <td>&emsp;消极&emsp;</td> <td>&emsp;无能、低能、废物、拙笨、愚钝、蠢笨&emsp;</td> </tr>
    <tr> <td>&emsp;自我&emsp;</td> <td>&emsp;我、我的、自己、自己的、本人、本人的&emsp;</td> </tr>
    <tr> <td>&emsp;他人&emsp;</td> <td>&emsp;他、他的、别人、别人的、他人、他人的&emsp;</td> </tr>
    </table><br/>","0","html-button-response","7","216695","0.0-6.0-0.0-0.0","4","4","4","4","4","4","4","3","4","4","4","4","3","5","4","5","4","4","5","4","1","1","1","1","1","2","4","1","2","1","0","1","1","0","0","0","1","0","1","1","0","1","0","1","5","2","4","4","4","5","2","4","2","2","1","753301347197259777","赵","137","","","","","","","","","","","","","","","","","2","1","","","","","","","","","","","","","","","","","","","","","","","",""
"17863","
    <div class=""tag-bottom"">
    <p> —— 任务1：对“自我”词和“他人”词分类 ——<p/>
    不同词语会出现在屏幕中央，类别标签将始终显示在屏幕上方<p/>   
    <span style=""color:#FFD866""><b>请根据上方标签的提示，尽可能正确并且快速地做出按键反应</b></span><p/>
    当按键错误时屏幕中会出现<span style=""color:red""> X </span>，需要按另一个键纠正才能继续<br/><p/>
    请把双手食指分别放在键盘的“E”键和“I”键上<p/>
    按<空格键>开始
    </p></div>"," ","html-keyboard-response","8","234562","0.0-6.0-0.0-1.0","4","4","4","4","4","4","4","3","4","4","4","4","3","5","4","5","4","4","5","4","1","1","1","1","1","2","4","1","2","1","0","1","1","0","0","0","1","0","1","1","0","1","0","1","5","2","4","4","4","5","2","4","2","2","1","753301347197259777","赵","137","","","","","","","","","","","","","","","","","","","","","","","","","","","","","","","","","","","","","","","","","",""
"null","","null","html-keyboard-response","9","234825","0.0-6.0-0.0-2.0-0.0","4","4","4","4","4","4","4","3","4","4","4","4","3","5","4","5","4","4","5","4","1","1","1","1","1","2","4","1","2","1","0","1","1","0","0","0","1","0","1","1","0","1","0","1","5","2","4","4","4","5","2","4","2","2","1","753301347197259777","赵","137","","","","","","","","","","","","","","","","","","","","","","","","","","","","","","","","","","","","","","","","","",""
"1144","<p style=""color:rgb(150, 250, 100); font-size: 35px;"">别人的</p>","i","categorize-html","10","235973","0.0-6.0-0.0-2.0-1.0","4","4","4","4","4","4","4","3","4","4","4","4","3","5","4","5","4","4","5","4","1","1","1","1","1","2","4","1","2","1","0","1","1","0","0","0","1","0","1","1","0","1","0","1","5","2","4","4","4","5","2","4","2","2","1","753301347197259777","赵","137","","","","","","","","","","","","","","","","","","","true","1","1","ability","1144","other","别人的","","","","","","","","","","","","","","","","",""
"null","","null","html-keyboard-response","11","236225","0.0-6.0-0.0-2.0-0.1","4","4","4","4","4","4","4","3","4","4","4","4","3","5","4","5","4","4","5","4","1","1","1","1","1","2","4","1","2","1","0","1","1","0","0","0","1","0","1","1","0","1","0","1","5","2","4","4","4","5","2","4","2","2","1","753301347197259777","赵","137","","","","","","","","","","","","","","","","","","","","","","","","","","","","","","","","","","","","","","","","","",""
"849","<p style=""color:rgb(150, 250, 100); font-size: 35px;"">他的</p>","i","categorize-html","12","237076","0.0-6.0-0.0-2.0-1.1","4","4","4","4","4","4","4","3","4","4","4","4","3","5","4","5","4","4","5","4","1","1","1","1","1","2","4","1","2","1","0","1","1","0","0","0","1","0","1","1","0","1","0","1","5","2","4","4","4","5","2","4","2","2","1","753301347197259777","赵","137","","","","","","","","","","","","","","","","","","","true","1","1","ability","849","other","他的","","","","","","","","","","","","","","","","",""
"null","","null","html-keyboard-response","13","237330","0.0-6.0-0.0-2.0-0.2","4","4","4","4","4","4","4","3","4","4","4","4","3","5","4","5","4","4","5","4","1","1","1","1","1","2","4","1","2","1","0","1","1","0","0","0","1","0","1","1","0","1","0","1","5","2","4","4","4","5","2","4","2","2","1","753301347197259777","赵","137","","","","","","","","","","","","","","","","","","","","","","","","","","","","","","","","","","","","","","","","","",""
"533","<p style=""color:rgb(150, 250, 100); font-size: 35px;"">我</p>","e","categorize-html","14","237865","0.0-6.0-0.0-2.0-1.2","4","4","4","4","4","4","4","3","4","4","4","4","3","5","4","5","4","4","5","4","1","1","1","1","1","2","4","1","2","1","0","1","1","0","0","0","1","0","1","1","0","1","0","1","5","2","4","4","4","5","2","4","2","2","1","753301347197259777","赵","137","","","","","","","","","","","","","","","","","","","true","1","1","ability","533","self","我","","","","","","","","","","","","","","","","",""
"null","","null","html-keyboard-response","15","238127","0.0-6.0-0.0-2.0-0.3","4","4","4","4","4","4","4","3","4","4","4","4","3","5","4","5","4","4","5","4","1","1","1","1","1","2","4","1","2","1","0","1","1","0","0","0","1","0","1","1","0","1","0","1","5","2","4","4","4","5","2","4","2","2","1","753301347197259777","赵","137","","","","","","","","","","","","","","","","","","","","","","","","","","","","","","","","","","","","","","","","","",""
"558","<p style=""color:rgb(150, 250, 100); font-size: 35px;"">他人</p>","i","categorize-html","16","238702","0.0-6.0-0.0-2.0-1.3","4","4","4","4","4","4","4","3","4","4","4","4","3","5","4","5","4","4","5","4","1","1","1","1","1","2","4","1","2","1","0","1","1","0","0","0","1","0","1","1","0","1","0","1","5","2","4","4","4","5","2","4","2","2","1","753301347197259777","赵","137","","","","","","","","","","","","","","","","","","","true","1","1","ability","558","other","他人","","","","","","","","","","","","","","","","",""
"null","","null","html-keyboard-response","17","238965","0.0-6.0-0.0-2.0-0.4","4","4","4","4","4","4","4","3","4","4","4","4","3","5","4","5","4","4","5","4","1","1","1","1","1","2","4","1","2","1","0","1","1","0","0","0","1","0","1","1","0","1","0","1","5","2","4","4","4","5","2","4","2","2","1","753301347197259777","赵","137","","","","","","","","","","","","","","","","","","","","","","","","","","","","","","","","","","","","","","","","","",""
"744","<p style=""color:rgb(150, 250, 100); font-size: 35px;"">本人的</p>","e","categorize-html","18","239711","0.0-6.0-0.0-2.0-1.4","4","4","4","4","4","4","4","3","4","4","4","4","3","5","4","5","4","4","5","4","1","1","1","1","1","2","4","1","2","1","0","1","1","0","0","0","1","0","1","1","0","1","0","1","5","2","4","4","4","5","2","4","2","2","1","753301347197259777","赵","137","","","","","","","","","","","","","","","","","","","true","1","1","ability","744","self","本人的","","","","","","","","","","","","","","","","",""
"null","","null","html-keyboard-response","19","239970","0.0-6.0-0.0-2.0-0.5","4","4","4","4","4","4","4","3","4","4","4","4","3","5","4","5","4","4","5","4","1","1","1","1","1","2","4","1","2","1","0","1","1","0","0","0","1","0","1","1","0","1","0","1","5","2","4","4","4","5","2","4","2","2","1","753301347197259777","赵","137","","","","","","","","","","","","","","","","","","","","","","","","","","","","","","","","","","","","","","","","","",""
"508","<p style=""color:rgb(150, 250, 100); font-size: 35px;"">他</p>","i","categorize-html","20","240480","0.0-6.0-0.0-2.0-1.5","4","4","4","4","4","4","4","3","4","4","4","4","3","5","4","5","4","4","5","4","1","1","1","1","1","2","4","1","2","1","0","1","1","0","0","0","1","0","1","1","0","1","0","1","5","2","4","4","4","5","2","4","2","2","1","753301347197259777","赵","137","","","","","","","","","","","","","","","","","","","true","1","1","ability","508","other","他","","","","","","","","","","","","","","","","",""
"null","","null","html-keyboard-response","21","240742","0.0-6.0-0.0-2.0-0.6","4","4","4","4","4","4","4","3","4","4","4","4","3","5","4","5","4","4","5","4","1","1","1","1","1","2","4","1","2","1","0","1","1","0","0","0","1","0","1","1","0","1","0","1","5","2","4","4","4","5","2","4","2","2","1","753301347197259777","赵","137","","","","","","","","","","","","","","","","","","","","","","","","","","","","","","","","","","","","","","","","","",""
"474","<p style=""color:rgb(150, 250, 100); font-size: 35px;"">我的</p>","e","categorize-html","22","241218","0.0-6.0-0.0-2.0-1.6","4","4","4","4","4","4","4","3","4","4","4","4","3","5","4","5","4","4","5","4","1","1","1","1","1","2","4","1","2","1","0","1","1","0","0","0","1","0","1","1","0","1","0","1","5","2","4","4","4","5","2","4","2","2","1","753301347197259777","赵","137","","","","","","","","","","","","","","","","","","","true","1","1","ability","474","self","我的","","","","","","","","","","","","","","","","",""
"null","","null","html-keyboard-response","23","241473","0.0-6.0-0.0-2.0-0.7","4","4","4","4","4","4","4","3","4","4","4","4","3","5","4","5","4","4","5","4","1","1","1","1","1","2","4","1","2","1","0","1","1","0","0","0","1","0","1","1","0","1","0","1","5","2","4","4","4","5","2","4","2","2","1","753301347197259777","赵","137","","","","","","","","","","","","","","","","","","","","","","","","","","","","","","","","","","","","","","","","","",""
"534","<p style=""color:rgb(150, 250, 100); font-size: 35px;"">自己</p>","i","categorize-html","24","242518","0.0-6.0-0.0-2.0-1.7","4","4","4","4","4","4","4","3","4","4","4","4","3","5","4","5","4","4","5","4","1","1","1","1","1","2","4","1","2","1","0","1","1","0","0","0","1","0","1","1","0","1","0","1","5","2","4","4","4","5","2","4","2","2","1","753301347197259777","赵","137","","","","","","","","","","","","","","","","","","","false","1","1","ability","534","self","自己","","","","","","","","","","","","","","","","",""
"null","","null","html-keyboard-response","25","242777","0.0-6.0-0.0-2.0-0.8","4","4","4","4","4","4","4","3","4","4","4","4","3","5","4","5","4","4","5","4","1","1","1","1","1","2","4","1","2","1","0","1","1","0","0","0","1","0","1","1","0","1","0","1","5","2","4","4","4","5","2","4","2","2","1","753301347197259777","赵","137","","","","","","","","","","","","","","","","","","","","","","","","","","","","","","","","","","","","","","","","","",""
"570","<p style=""color:rgb(150, 250, 100); font-size: 35px;"">自己的</p>","e","categorize-html","26","243349","0.0-6.0-0.0-2.0-1.8","4","4","4","4","4","4","4","3","4","4","4","4","3","5","4","5","4","4","5","4","1","1","1","1","1","2","4","1","2","1","0","1","1","0","0","0","1","0","1","1","0","1","0","1","5","2","4","4","4","5","2","4","2","2","1","753301347197259777","赵","137","","","","","","","","","","","","","","","","","","","true","1","1","ability","570","self","自己的","","","","","","","","","","","","","","","","",""
"null","","null","html-keyboard-response","27","243616","0.0-6.0-0.0-2.0-0.9","4","4","4","4","4","4","4","3","4","4","4","4","3","5","4","5","4","4","5","4","1","1","1","1","1","2","4","1","2","1","0","1","1","0","0","0","1","0","1","1","0","1","0","1","5","2","4","4","4","5","2","4","2","2","1","753301347197259777","赵","137","","","","","","","","","","","","","","","","","","","","","","","","","","","","","","","","","","","","","","","","","",""
"500","<p style=""color:rgb(150, 250, 100); font-size: 35px;"">别人</p>","i","categorize-html","28","244118","0.0-6.0-0.0-2.0-1.9","4","4","4","4","4","4","4","3","4","4","4","4","3","5","4","5","4","4","5","4","1","1","1","1","1","2","4","1","2","1","0","1","1","0","0","0","1","0","1","1","0","1","0","1","5","2","4","4","4","5","2","4","2","2","1","753301347197259777","赵","137","","","","","","","","","","","","","","","","","","","true","1","1","ability","500","other","别人","","","","","","","","","","","","","","","","",""
"null","","null","html-keyboard-response","29","244373","0.0-6.0-0.0-2.0-0.10","4","4","4","4","4","4","4","3","4","4","4","4","3","5","4","5","4","4","5","4","1","1","1","1","1","2","4","1","2","1","0","1","1","0","0","0","1","0","1","1","0","1","0","1","5","2","4","4","4","5","2","4","2","2","1","753301347197259777","赵","137","","","","","","","","","","","","","","","","","","","","","","","","","","","","","","","","","","","","","","","","","",""
"608","<p style=""color:rgb(150, 250, 100); font-size: 35px;"">他人的</p>","i","categorize-html","30","244983","0.0-6.0-0.0-2.0-1.10","4","4","4","4","4","4","4","3","4","4","4","4","3","5","4","5","4","4","5","4","1","1","1","1","1","2","4","1","2","1","0","1","1","0","0","0","1","0","1","1","0","1","0","1","5","2","4","4","4","5","2","4","2","2","1","753301347197259777","赵","137","","","","","","","","","","","","","","","","","","","true","1","1","ability","608","other","他人的","","","","","","","","","","","","","","","","",""
"null","","null","html-keyboard-response","31","245244","0.0-6.0-0.0-2.0-0.11","4","4","4","4","4","4","4","3","4","4","4","4","3","5","4","5","4","4","5","4","1","1","1","1","1","2","4","1","2","1","0","1","1","0","0","0","1","0","1","1","0","1","0","1","5","2","4","4","4","5","2","4","2","2","1","753301347197259777","赵","137","","","","","","","","","","","","","","","","","","","","","","","","","","","","","","","","","","","","","","","","","",""
"574","<p style=""color:rgb(150, 250, 100); font-size: 35px;"">本人</p>","e","categorize-html","32","245821","0.0-6.0-0.0-2.0-1.11","4","4","4","4","4","4","4","3","4","4","4","4","3","5","4","5","4","4","5","4","1","1","1","1","1","2","4","1","2","1","0","1","1","0","0","0","1","0","1","1","0","1","0","1","5","2","4","4","4","5","2","4","2","2","1","753301347197259777","赵","137","","","","","","","","","","","","","","","","","","","true","1","1","ability","574","self","本人","","","","","","","","","","","","","","","","",""
"4070","
    <div class=""tag-bottom""><p>
    —— 任务2：对“消极”词和“积极”词分类 ——<p/>   
    <span style=""color:#78DCE8""><b>注意上方，类别标签和需要分类的词语都已经改变</b></span><p/>
    <span style=""color:#FFD866""><b>请根据上方标签的提示，尽可能正确并且快速地做出按键反应</b></span><p/>
    当按键错误时屏幕中会出现<span style=""color:red""> X </span>，需要按另一个键纠正才能继续<br/><p/>
    请把双手食指分别放在键盘的“E”键和“I”键上<p/>
    按<空格键>开始
    </p></div>"," ","html-keyboard-response","33","249892","0.0-6.0-0.0-3.0","4","4","4","4","4","4","4","3","4","4","4","4","3","5","4","5","4","4","5","4","1","1","1","1","1","2","4","1","2","1","0","1","1","0","0","0","1","0","1","1","0","1","0","1","5","2","4","4","4","5","2","4","2","2","1","753301347197259777","赵","137","","","","","","","","","","","","","","","","","","","","","","","","","","","","","","","","","","","","","","","","","",""
"null","","null","html-keyboard-response","34","250157","0.0-6.0-0.0-4.0-0.0","4","4","4","4","4","4","4","3","4","4","4","4","3","5","4","5","4","4","5","4","1","1","1","1","1","2","4","1","2","1","0","1","1","0","0","0","1","0","1","1","0","1","0","1","5","2","4","4","4","5","2","4","2","2","1","753301347197259777","赵","137","","","","","","","","","","","","","","","","","","","","","","","","","","","","","","","","","","","","","","","","","",""
"1131","<p style=""color:white; font-size: 35px;"">全能</p>","i","categorize-html","35","251290","0.0-6.0-0.0-4.0-1.0","4","4","4","4","4","4","4","3","4","4","4","4","3","5","4","5","4","4","5","4","1","1","1","1","1","2","4","1","2","1","0","1","1","0","0","0","1","0","1","1","0","1","0","1","5","2","4","4","4","5","2","4","2","2","1","753301347197259777","赵","137","","","","","","","","","","","","","","","","","","","true","2","2","ability","1131","positive","全能","","","","","","","","","","","","","","","","",""
"null","","null","html-keyboard-response","36","251543","0.0-6.0-0.0-4.0-0.1","4","4","4","4","4","4","4","3","4","4","4","4","3","5","4","5","4","4","5","4","1","1","1","1","1","2","4","1","2","1","0","1","1","0","0","0","1","0","1","1","0","1","0","1","5","2","4","4","4","5","2","4","2","2","1","753301347197259777","赵","137","","","","","","","","","","","","","","","","","","","","","","","","","","","","","","","","","","","","","","","","","",""
"662","<p style=""color:white; font-size: 35px;"">拙笨</p>","e","categorize-html","37","252207","0.0-6.0-0.0-4.0-1.1","4","4","4","4","4","4","4","3","4","4","4","4","3","5","4","5","4","4","5","4","1","1","1","1","1","2","4","1","2","1","0","1","1","0","0","0","1","0","1","1","0","1","0","1","5","2","4","4","4","5","2","4","2","2","1","753301347197259777","赵","137","","","","","","","","","","","","","","","","","","","true","2","2","ability","662","negative","拙笨","","","","","","","","","","","","","","","","",""
"null","","null","html-keyboard-response","38","252458","0.0-6.0-0.0-4.0-0.2","4","4","4","4","4","4","4","3","4","4","4","4","3","5","4","5","4","4","5","4","1","1","1","1","1","2","4","1","2","1","0","1","1","0","0","0","1","0","1","1","0","1","0","1","5","2","4","4","4","5","2","4","2","2","1","753301347197259777","赵","137","","","","","","","","","","","","","","","","","","","","","","","","","","","","","","","","","","","","","","","","","",""
"759","<p style=""color:white; font-size: 35px;"">能干</p>","i","categorize-html","39","253219","0.0-6.0-0.0-4.0-1.2","4","4","4","4","4","4","4","3","4","4","4","4","3","5","4","5","4","4","5","4","1","1","1","1","1","2","4","1","2","1","0","1","1","0","0","0","1","0","1","1","0","1","0","1","5","2","4","4","4","5","2","4","2","2","1","753301347197259777","赵","137","","","","","","","","","","","","","","","","","","","true","2","2","ability","759","positive","能干","","","","","","","","","","","","","","","","",""
"null","","null","html-keyboard-response","40","253482","0.0-6.0-0.0-4.0-0.3","4","4","4","4","4","4","4","3","4","4","4","4","3","5","4","5","4","4","5","4","1","1","1","1","1","2","4","1","2","1","0","1","1","0","0","0","1","0","1","1","0","1","0","1","5","2","4","4","4","5","2","4","2","2","1","753301347197259777","赵","137","","","","","","","","","","","","","","","","","","","","","","","","","","","","","","","","","","","","","","","","","",""
"579","<p style=""color:white; font-size: 35px;"">废物</p>","e","categorize-html","41","254063","0.0-6.0-0.0-4.0-1.3","4","4","4","4","4","4","4","3","4","4","4","4","3","5","4","5","4","4","5","4","1","1","1","1","1","2","4","1","2","1","0","1","1","0","0","0","1","0","1","1","0","1","0","1","5","2","4","4","4","5","2","4","2","2","1","753301347197259777","赵","137","","","","","","","","","","","","","","","","","","","true","2","2","ability","579","negative","废物","","","","","","","","","","","","","","","","",""
"null","","null","html-keyboard-response","42","254321","0.0-6.0-0.0-4.0-0.4","4","4","4","4","4","4","4","3","4","4","4","4","3","5","4","5","4","4","5","4","1","1","1","1","1","2","4","1","2","1","0","1","1","0","0","0","1","0","1","1","0","1","0","1","5","2","4","4","4","5","2","4","2","2","1","753301347197259777","赵","137","","","","","","","","","","","","","","","","","","","","","","","","","","","","","","","","","","","","","","","","","",""
"776","<p style=""color:white; font-size: 35px;"">低能</p>","e","categorize-html","43","255099","0.0-6.0-0.0-4.0-1.4","4","4","4","4","4","4","4","3","4","4","4","4","3","5","4","5","4","4","5","4","1","1","1","1","1","2","4","1","2","1","0","1","1","0","0","0","1","0","1","1","0","1","0","1","5","2","4","4","4","5","2","4","2","2","1","753301347197259777","赵","137","","","","","","","","","","","","","","","","","","","true","2","2","ability","776","negative","低能","","","","","","","","","","","","","","","","",""
"null","","null","html-keyboard-response","44","255361","0.0-6.0-0.0-4.0-0.5","4","4","4","4","4","4","4","3","4","4","4","4","3","5","4","5","4","4","5","4","1","1","1","1","1","2","4","1","2","1","0","1","1","0","0","0","1","0","1","1","0","1","0","1","5","2","4","4","4","5","2","4","2","2","1","753301347197259777","赵","137","","","","","","","","","","","","","","","","","","","","","","","","","","","","","","","","","","","","","","","","","",""
"605","<p style=""color:white; font-size: 35px;"">全才</p>","i","categorize-html","45","255968","0.0-6.0-0.0-4.0-1.5","4","4","4","4","4","4","4","3","4","4","4","4","3","5","4","5","4","4","5","4","1","1","1","1","1","2","4","1","2","1","0","1","1","0","0","0","1","0","1","1","0","1","0","1","5","2","4","4","4","5","2","4","2","2","1","753301347197259777","赵","137","","","","","","","","","","","","","","","","","","","true","2","2","ability","605","positive","全才","","","","","","","","","","","","","","","","",""
"null","","null","html-keyboard-response","46","256228","0.0-6.0-0.0-4.0-0.6","4","4","4","4","4","4","4","3","4","4","4","4","3","5","4","5","4","4","5","4","1","1","1","1","1","2","4","1","2","1","0","1","1","0","0","0","1","0","1","1","0","1","0","1","5","2","4","4","4","5","2","4","2","2","1","753301347197259777","赵","137","","","","","","","","","","","","","","","","","","","","","","","","","","","","","","","","","","","","","","","","","",""
"645","<p style=""color:white; font-size: 35px;"">无能</p>","e","categorize-html","47","256876","0.0-6.0-0.0-4.0-1.6","4","4","4","4","4","4","4","3","4","4","4","4","3","5","4","5","4","4","5","4","1","1","1","1","1","2","4","1","2","1","0","1","1","0","0","0","1","0","1","1","0","1","0","1","5","2","4","4","4","5","2","4","2","2","1","753301347197259777","赵","137","","","","","","","","","","","","","","","","","","","true","2","2","ability","645","negative","无能","","","","","","","","","","","","","","","","",""
"null","","null","html-keyboard-response","48","257138","0.0-6.0-0.0-4.0-0.7","4","4","4","4","4","4","4","3","4","4","4","4","3","5","4","5","4","4","5","4","1","1","1","1","1","2","4","1","2","1","0","1","1","0","0","0","1","0","1","1","0","1","0","1","5","2","4","4","4","5","2","4","2","2","1","753301347197259777","赵","137","","","","","","","","","","","","","","","","","","","","","","","","","","","","","","","","","","","","","","","","","",""
"639","<p style=""color:white; font-size: 35px;"">蠢笨</p>","e","categorize-html","49","257780","0.0-6.0-0.0-4.0-1.7","4","4","4","4","4","4","4","3","4","4","4","4","3","5","4","5","4","4","5","4","1","1","1","1","1","2","4","1","2","1","0","1","1","0","0","0","1","0","1","1","0","1","0","1","5","2","4","4","4","5","2","4","2","2","1","753301347197259777","赵","137","","","","","","","","","","","","","","","","","","","true","2","2","ability","639","negative","蠢笨","","","","","","","","","","","","","","","","",""
"null","","null","html-keyboard-response","50","258040","0.0-6.0-0.0-4.0-0.8","4","4","4","4","4","4","4","3","4","4","4","4","3","5","4","5","4","4","5","4","1","1","1","1","1","2","4","1","2","1","0","1","1","0","0","0","1","0","1","1","0","1","0","1","5","2","4","4","4","5","2","4","2","2","1","753301347197259777","赵","137","","","","","","","","","","","","","","","","","","","","","","","","","","","","","","","","","","","","","","","","","",""
"559","<p style=""color:white; font-size: 35px;"">高效</p>","i","categorize-html","51","258602","0.0-6.0-0.0-4.0-1.8","4","4","4","4","4","4","4","3","4","4","4","4","3","5","4","5","4","4","5","4","1","1","1","1","1","2","4","1","2","1","0","1","1","0","0","0","1","0","1","1","0","1","0","1","5","2","4","4","4","5","2","4","2","2","1","753301347197259777","赵","137","","","","","","","","","","","","","","","","","","","true","2","2","ability","559","positive","高效","","","","","","","","","","","","","","","","",""
"null","","null","html-keyboard-response","52","258861","0.0-6.0-0.0-4.0-0.9","4","4","4","4","4","4","4","3","4","4","4","4","3","5","4","5","4","4","5","4","1","1","1","1","1","2","4","1","2","1","0","1","1","0","0","0","1","0","1","1","0","1","0","1","5","2","4","4","4","5","2","4","2","2","1","753301347197259777","赵","137","","","","","","","","","","","","","","","","","","","","","","","","","","","","","","","","","","","","","","","","","",""
"430","<p style=""color:white; font-size: 35px;"">天才</p>","i","categorize-html","53","259294","0.0-6.0-0.0-4.0-1.9","4","4","4","4","4","4","4","3","4","4","4","4","3","5","4","5","4","4","5","4","1","1","1","1","1","2","4","1","2","1","0","1","1","0","0","0","1","0","1","1","0","1","0","1","5","2","4","4","4","5","2","4","2","2","1","753301347197259777","赵","137","","","","","","","","","","","","","","","","","","","true","2","2","ability","430","positive","天才","","","","","","","","","","","","","","","","",""
"null","","null","html-keyboard-response","54","259557","0.0-6.0-0.0-4.0-0.10","4","4","4","4","4","4","4","3","4","4","4","4","3","5","4","5","4","4","5","4","1","1","1","1","1","2","4","1","2","1","0","1","1","0","0","0","1","0","1","1","0","1","0","1","5","2","4","4","4","5","2","4","2","2","1","753301347197259777","赵","137","","","","","","","","","","","","","","","","","","","","","","","","","","","","","","","","","","","","","","","","","",""
"526","<p style=""color:white; font-size: 35px;"">愚钝</p>","e","categorize-html","55","260086","0.0-6.0-0.0-4.0-1.10","4","4","4","4","4","4","4","3","4","4","4","4","3","5","4","5","4","4","5","4","1","1","1","1","1","2","4","1","2","1","0","1","1","0","0","0","1","0","1","1","0","1","0","1","5","2","4","4","4","5","2","4","2","2","1","753301347197259777","赵","137","","","","","","","","","","","","","","","","","","","true","2","2","ability","526","negative","愚钝","","","","","","","","","","","","","","","","",""
"null","","null","html-keyboard-response","56","260351","0.0-6.0-0.0-4.0-0.11","4","4","4","4","4","4","4","3","4","4","4","4","3","5","4","5","4","4","5","4","1","1","1","1","1","2","4","1","2","1","0","1","1","0","0","0","1","0","1","1","0","1","0","1","5","2","4","4","4","5","2","4","2","2","1","753301347197259777","赵","137","","","","","","","","","","","","","","","","","","","","","","","","","","","","","","","","","","","","","","","","","",""
"609","<p style=""color:white; font-size: 35px;"">精干</p>","i","categorize-html","57","260962","0.0-6.0-0.0-4.0-1.11","4","4","4","4","4","4","4","3","4","4","4","4","3","5","4","5","4","4","5","4","1","1","1","1","1","2","4","1","2","1","0","1","1","0","0","0","1","0","1","1","0","1","0","1","5","2","4","4","4","5","2","4","2","2","1","753301347197259777","赵","137","","","","","","","","","","","","","","","","","","","true","2","2","ability","609","positive","精干","","","","","","","","","","","","","","","","",""
"18534","
    <div class=""tag-bottom""><p>
    —— 任务3：对“自我/消极”词和“他人/积极”词分类 ——<p/>
    <span style=""color:#78DCE8""><b>注意上方，之前的四类词语将混合在一起交替呈现</b></span><p/>
    <span style=""color:#FFD866""><b>请根据上方标签的提示，尽可能正确并且快速地做出按键反应</b></span><p/>
    当按键错误时屏幕中会出现<span style=""color:red""> X </span>，需要按另一个键纠正才能继续<br/><p/>
    请把双手食指分别放在键盘的“E”键和“I”键上<p/>
    按<空格键>开始
    </p></div>"," ","html-keyboard-response","58","279497","0.0-6.0-0.0-5.0","4","4","4","4","4","4","4","3","4","4","4","4","3","5","4","5","4","4","5","4","1","1","1","1","1","2","4","1","2","1","0","1","1","0","0","0","1","0","1","1","0","1","0","1","5","2","4","4","4","5","2","4","2","2","1","753301347197259777","赵","137","","","","","","","","","","","","","","","","","","","","","","","","","","","","","","","","","","","","","","","","","",""
"null","","null","html-keyboard-response","59","279748","0.0-6.0-0.0-6.0-0.0","4","4","4","4","4","4","4","3","4","4","4","4","3","5","4","5","4","4","5","4","1","1","1","1","1","2","4","1","2","1","0","1","1","0","0","0","1","0","1","1","0","1","0","1","5","2","4","4","4","5","2","4","2","2","1","753301347197259777","赵","137","","","","","","","","","","","","","","","","","","","","","","","","","","","","","","","","","","","","","","","","","",""
"933","<p style=""color:rgb(150, 250, 100); font-size: 35px;"">他</p>","i","categorize-html","60","280684","0.0-6.0-0.0-6.0-1.0","4","4","4","4","4","4","4","3","4","4","4","4","3","5","4","5","4","4","5","4","1","1","1","1","1","2","4","1","2","1","0","1","1","0","0","0","1","0","1","1","0","1","0","1","5","2","4","4","4","5","2","4","2","2","1","753301347197259777","赵","137","","","","","","","","","","","","","","","","","","","true","3","3","ability","933","other","他","","","","","","","","","","","","","","","","",""
"null","","null","html-keyboard-response","61","280947","0.0-6.0-0.0-6.0-0.1","4","4","4","4","4","4","4","3","4","4","4","4","3","5","4","5","4","4","5","4","1","1","1","1","1","2","4","1","2","1","0","1","1","0","0","0","1","0","1","1","0","1","0","1","5","2","4","4","4","5","2","4","2","2","1","753301347197259777","赵","137","","","","","","","","","","","","","","","","","","","","","","","","","","","","","","","","","","","","","","","","","",""
"955","<p style=""color:white; font-size: 35px;"">废物</p>","e","categorize-html","62","281905","0.0-6.0-0.0-6.0-1.1","4","4","4","4","4","4","4","3","4","4","4","4","3","5","4","5","4","4","5","4","1","1","1","1","1","2","4","1","2","1","0","1","1","0","0","0","1","0","1","1","0","1","0","1","5","2","4","4","4","5","2","4","2","2","1","753301347197259777","赵","137","","","","","","","","","","","","","","","","","","","true","3","3","ability","955","negative","废物","","","","","","","","","","","","","","","","",""
"null","","null","html-keyboard-response","63","282169","0.0-6.0-0.0-6.0-0.2","4","4","4","4","4","4","4","3","4","4","4","4","3","5","4","5","4","4","5","4","1","1","1","1","1","2","4","1","2","1","0","1","1","0","0","0","1","0","1","1","0","1","0","1","5","2","4","4","4","5","2","4","2","2","1","753301347197259777","赵","137","","","","","","","","","","","","","","","","","","","","","","","","","","","","","","","","","","","","","","","","","",""
"750","<p style=""color:rgb(150, 250, 100); font-size: 35px;"">我</p>","e","categorize-html","64","282922","0.0-6.0-0.0-6.0-1.2","4","4","4","4","4","4","4","3","4","4","4","4","3","5","4","5","4","4","5","4","1","1","1","1","1","2","4","1","2","1","0","1","1","0","0","0","1","0","1","1","0","1","0","1","5","2","4","4","4","5","2","4","2","2","1","753301347197259777","赵","137","","","","","","","","","","","","","","","","","","","true","3","3","ability","750","self","我","","","","","","","","","","","","","","","","",""
"null","","null","html-keyboard-response","65","283186","0.0-6.0-0.0-6.0-0.3","4","4","4","4","4","4","4","3","4","4","4","4","3","5","4","5","4","4","5","4","1","1","1","1","1","2","4","1","2","1","0","1","1","0","0","0","1","0","1","1","0","1","0","1","5","2","4","4","4","5","2","4","2","2","1","753301347197259777","赵","137","","","","","","","","","","","","","","","","","","","","","","","","","","","","","","","","","","","","","","","","","",""
"1074","<p style=""color:white; font-size: 35px;"">全才</p>","i","categorize-html","66","284263","0.0-6.0-0.0-6.0-1.3","4","4","4","4","4","4","4","3","4","4","4","4","3","5","4","5","4","4","5","4","1","1","1","1","1","2","4","1","2","1","0","1","1","0","0","0","1","0","1","1","0","1","0","1","5","2","4","4","4","5","2","4","2","2","1","753301347197259777","赵","137","","","","","","","","","","","","","","","","","","","true","3","3","ability","1074","positive","全才","","","","","","","","","","","","","","","","",""
"null","","null","html-keyboard-response","67","284527","0.0-6.0-0.0-6.0-0.4","4","4","4","4","4","4","4","3","4","4","4","4","3","5","4","5","4","4","5","4","1","1","1","1","1","2","4","1","2","1","0","1","1","0","0","0","1","0","1","1","0","1","0","1","5","2","4","4","4","5","2","4","2","2","1","753301347197259777","赵","137","","","","","","","","","","","","","","","","","","","","","","","","","","","","","","","","","","","","","","","","","",""
"1315","<p style=""color:rgb(150, 250, 100); font-size: 35px;"">别人的</p>","i","categorize-html","68","285845","0.0-6.0-0.0-6.0-1.4","4","4","4","4","4","4","4","3","4","4","4","4","3","5","4","5","4","4","5","4","1","1","1","1","1","2","4","1","2","1","0","1","1","0","0","0","1","0","1","1","0","1","0","1","5","2","4","4","4","5","2","4","2","2","1","753301347197259777","赵","137","","","","","","","","","","","","","","","","","","","true","3","3","ability","1315","other","别人的","","","","","","","","","","","","","","","","",""
"null","","null","html-keyboard-response","69","286112","0.0-6.0-0.0-6.0-0.5","4","4","4","4","4","4","4","3","4","4","4","4","3","5","4","5","4","4","5","4","1","1","1","1","1","2","4","1","2","1","0","1","1","0","0","0","1","0","1","1","0","1","0","1","5","2","4","4","4","5","2","4","2","2","1","753301347197259777","赵","137","","","","","","","","","","","","","","","","","","","","","","","","","","","","","","","","","","","","","","","","","",""
"1184","<p style=""color:white; font-size: 35px;"">能干</p>","i","categorize-html","70","287298","0.0-6.0-0.0-6.0-1.5","4","4","4","4","4","4","4","3","4","4","4","4","3","5","4","5","4","4","5","4","1","1","1","1","1","2","4","1","2","1","0","1","1","0","0","0","1","0","1","1","0","1","0","1","5","2","4","4","4","5","2","4","2","2","1","753301347197259777","赵","137","","","","","","","","","","","","","","","","","","","true","3","3","ability","1184","positive","能干","","","","","","","","","","","","","","","","",""
"null","","null","html-keyboard-response","71","287556","0.0-6.0-0.0-6.0-0.6","4","4","4","4","4","4","4","3","4","4","4","4","3","5","4","5","4","4","5","4","1","1","1","1","1","2","4","1","2","1","0","1","1","0","0","0","1","0","1","1","0","1","0","1","5","2","4","4","4","5","2","4","2","2","1","753301347197259777","赵","137","","","","","","","","","","","","","","","","","","","","","","","","","","","","","","","","","","","","","","","","","",""
"771","<p style=""color:rgb(150, 250, 100); font-size: 35px;"">本人</p>","e","categorize-html","72","288329","0.0-6.0-0.0-6.0-1.6","4","4","4","4","4","4","4","3","4","4","4","4","3","5","4","5","4","4","5","4","1","1","1","1","1","2","4","1","2","1","0","1","1","0","0","0","1","0","1","1","0","1","0","1","5","2","4","4","4","5","2","4","2","2","1","753301347197259777","赵","137","","","","","","","","","","","","","","","","","","","true","3","3","ability","771","self","本人","","","","","","","","","","","","","","","","",""
"null","","null","html-keyboard-response","73","288592","0.0-6.0-0.0-6.0-0.7","4","4","4","4","4","4","4","3","4","4","4","4","3","5","4","5","4","4","5","4","1","1","1","1","1","2","4","1","2","1","0","1","1","0","0","0","1","0","1","1","0","1","0","1","5","2","4","4","4","5","2","4","2","2","1","753301347197259777","赵","137","","","","","","","","","","","","","","","","","","","","","","","","","","","","","","","","","","","","","","","","","",""
"567","<p style=""color:white; font-size: 35px;"">无能</p>","e","categorize-html","74","289162","0.0-6.0-0.0-6.0-1.7","4","4","4","4","4","4","4","3","4","4","4","4","3","5","4","5","4","4","5","4","1","1","1","1","1","2","4","1","2","1","0","1","1","0","0","0","1","0","1","1","0","1","0","1","5","2","4","4","4","5","2","4","2","2","1","753301347197259777","赵","137","","","","","","","","","","","","","","","","","","","true","3","3","ability","567","negative","无能","","","","","","","","","","","","","","","","",""
"null","","null","html-keyboard-response","75","289417","0.0-6.0-0.0-6.0-0.8","4","4","4","4","4","4","4","3","4","4","4","4","3","5","4","5","4","4","5","4","1","1","1","1","1","2","4","1","2","1","0","1","1","0","0","0","1","0","1","1","0","1","0","1","5","2","4","4","4","5","2","4","2","2","1","753301347197259777","赵","137","","","","","","","","","","","","","","","","","","","","","","","","","","","","","","","","","","","","","","","","","",""
"689","<p style=""color:rgb(150, 250, 100); font-size: 35px;"">他人</p>","i","categorize-html","76","290109","0.0-6.0-0.0-6.0-1.8","4","4","4","4","4","4","4","3","4","4","4","4","3","5","4","5","4","4","5","4","1","1","1","1","1","2","4","1","2","1","0","1","1","0","0","0","1","0","1","1","0","1","0","1","5","2","4","4","4","5","2","4","2","2","1","753301347197259777","赵","137","","","","","","","","","","","","","","","","","","","true","3","3","ability","689","other","他人","","","","","","","","","","","","","","","","",""
"null","","null","html-keyboard-response","77","290370","0.0-6.0-0.0-6.0-0.9","4","4","4","4","4","4","4","3","4","4","4","4","3","5","4","5","4","4","5","4","1","1","1","1","1","2","4","1","2","1","0","1","1","0","0","0","1","0","1","1","0","1","0","1","5","2","4","4","4","5","2","4","2","2","1","753301347197259777","赵","137","","","","","","","","","","","","","","","","","","","","","","","","","","","","","","","","","","","","","","","","","",""
"842","<p style=""color:white; font-size: 35px;"">蠢笨</p>","e","categorize-html","78","291215","0.0-6.0-0.0-6.0-1.9","4","4","4","4","4","4","4","3","4","4","4","4","3","5","4","5","4","4","5","4","1","1","1","1","1","2","4","1","2","1","0","1","1","0","0","0","1","0","1","1","0","1","0","1","5","2","4","4","4","5","2","4","2","2","1","753301347197259777","赵","137","","","","","","","","","","","","","","","","","","","true","3","3","ability","842","negative","蠢笨","","","","","","","","","","","","","","","","",""
"null","","null","html-keyboard-response","79","291469","0.0-6.0-0.0-6.0-0.10","4","4","4","4","4","4","4","3","4","4","4","4","3","5","4","5","4","4","5","4","1","1","1","1","1","2","4","1","2","1","0","1","1","0","0","0","1","0","1","1","0","1","0","1","5","2","4","4","4","5","2","4","2","2","1","753301347197259777","赵","137","","","","","","","","","","","","","","","","","","","","","","","","","","","","","","","","","","","","","","","","","",""
"1421","<p style=""color:rgb(150, 250, 100); font-size: 35px;"">自己</p>","e","categorize-html","80","292892","0.0-6.0-0.0-6.0-1.10","4","4","4","4","4","4","4","3","4","4","4","4","3","5","4","5","4","4","5","4","1","1","1","1","1","2","4","1","2","1","0","1","1","0","0","0","1","0","1","1","0","1","0","1","5","2","4","4","4","5","2","4","2","2","1","753301347197259777","赵","137","","","","","","","","","","","","","","","","","","","true","3","3","ability","1421","self","自己","","","","","","","","","","","","","","","","",""
"null","","null","html-keyboard-response","81","293146","0.0-6.0-0.0-6.0-0.11","4","4","4","4","4","4","4","3","4","4","4","4","3","5","4","5","4","4","5","4","1","1","1","1","1","2","4","1","2","1","0","1","1","0","0","0","1","0","1","1","0","1","0","1","5","2","4","4","4","5","2","4","2","2","1","753301347197259777","赵","137","","","","","","","","","","","","","","","","","","","","","","","","","","","","","","","","","","","","","","","","","",""
"988","<p style=""color:white; font-size: 35px;"">全能</p>","i","categorize-html","82","294136","0.0-6.0-0.0-6.0-1.11","4","4","4","4","4","4","4","3","4","4","4","4","3","5","4","5","4","4","5","4","1","1","1","1","1","2","4","1","2","1","0","1","1","0","0","0","1","0","1","1","0","1","0","1","5","2","4","4","4","5","2","4","2","2","1","753301347197259777","赵","137","","","","","","","","","","","","","","","","","","","true","3","3","ability","988","positive","全能","","","","","","","","","","","","","","","","",""
"null","","null","html-keyboard-response","83","294397","0.0-6.0-0.0-6.0-0.12","4","4","4","4","4","4","4","3","4","4","4","4","3","5","4","5","4","4","5","4","1","1","1","1","1","2","4","1","2","1","0","1","1","0","0","0","1","0","1","1","0","1","0","1","5","2","4","4","4","5","2","4","2","2","1","753301347197259777","赵","137","","","","","","","","","","","","","","","","","","","","","","","","","","","","","","","","","","","","","","","","","",""
"596","<p style=""color:rgb(150, 250, 100); font-size: 35px;"">他的</p>","i","categorize-html","84","294995","0.0-6.0-0.0-6.0-1.12","4","4","4","4","4","4","4","3","4","4","4","4","3","5","4","5","4","4","5","4","1","1","1","1","1","2","4","1","2","1","0","1","1","0","0","0","1","0","1","1","0","1","0","1","5","2","4","4","4","5","2","4","2","2","1","753301347197259777","赵","137","","","","","","","","","","","","","","","","","","","true","3","3","ability","596","other","他的","","","","","","","","","","","","","","","","",""
"null","","null","html-keyboard-response","85","295248","0.0-6.0-0.0-6.0-0.13","4","4","4","4","4","4","4","3","4","4","4","4","3","5","4","5","4","4","5","4","1","1","1","1","1","2","4","1","2","1","0","1","1","0","0","0","1","0","1","1","0","1","0","1","5","2","4","4","4","5","2","4","2","2","1","753301347197259777","赵","137","","","","","","","","","","","","","","","","","","","","","","","","","","","","","","","","","","","","","","","","","",""
"703","<p style=""color:white; font-size: 35px;"">低能</p>","e","categorize-html","86","295953","0.0-6.0-0.0-6.0-1.13","4","4","4","4","4","4","4","3","4","4","4","4","3","5","4","5","4","4","5","4","1","1","1","1","1","2","4","1","2","1","0","1","1","0","0","0","1","0","1","1","0","1","0","1","5","2","4","4","4","5","2","4","2","2","1","753301347197259777","赵","137","","","","","","","","","","","","","","","","","","","true","3","3","ability","703","negative","低能","","","","","","","","","","","","","","","","",""
"null","","null","html-keyboard-response","87","296208","0.0-6.0-0.0-6.0-0.14","4","4","4","4","4","4","4","3","4","4","4","4","3","5","4","5","4","4","5","4","1","1","1","1","1","2","4","1","2","1","0","1","1","0","0","0","1","0","1","1","0","1","0","1","5","2","4","4","4","5","2","4","2","2","1","753301347197259777","赵","137","","","","","","","","","","","","","","","","","","","","","","","","","","","","","","","","","","","","","","","","","",""
"633","<p style=""color:rgb(150, 250, 100); font-size: 35px;"">自己的</p>","e","categorize-html","88","296844","0.0-6.0-0.0-6.0-1.14","4","4","4","4","4","4","4","3","4","4","4","4","3","5","4","5","4","4","5","4","1","1","1","1","1","2","4","1","2","1","0","1","1","0","0","0","1","0","1","1","0","1","0","1","5","2","4","4","4","5","2","4","2","2","1","753301347197259777","赵","137","","","","","","","","","","","","","","","","","","","true","3","3","ability","633","self","自己的","","","","","","","","","","","","","","","","",""
"null","","null","html-keyboard-response","89","297110","0.0-6.0-0.0-6.0-0.15","4","4","4","4","4","4","4","3","4","4","4","4","3","5","4","5","4","4","5","4","1","1","1","1","1","2","4","1","2","1","0","1","1","0","0","0","1","0","1","1","0","1","0","1","5","2","4","4","4","5","2","4","2","2","1","753301347197259777","赵","137","","","","","","","","","","","","","","","","","","","","","","","","","","","","","","","","","","","","","","","","","",""
"764","<p style=""color:white; font-size: 35px;"">天才</p>","i","categorize-html","90","297876","0.0-6.0-0.0-6.0-1.15","4","4","4","4","4","4","4","3","4","4","4","4","3","5","4","5","4","4","5","4","1","1","1","1","1","2","4","1","2","1","0","1","1","0","0","0","1","0","1","1","0","1","0","1","5","2","4","4","4","5","2","4","2","2","1","753301347197259777","赵","137","","","","","","","","","","","","","","","","","","","true","3","3","ability","764","positive","天才","","","","","","","","","","","","","","","","",""
"null","","null","html-keyboard-response","91","298138","0.0-6.0-0.0-6.0-0.16","4","4","4","4","4","4","4","3","4","4","4","4","3","5","4","5","4","4","5","4","1","1","1","1","1","2","4","1","2","1","0","1","1","0","0","0","1","0","1","1","0","1","0","1","5","2","4","4","4","5","2","4","2","2","1","753301347197259777","赵","137","","","","","","","","","","","","","","","","","","","","","","","","","","","","","","","","","","","","","","","","","",""
"1159","<p style=""color:rgb(150, 250, 100); font-size: 35px;"">本人的</p>","e","categorize-html","92","299300","0.0-6.0-0.0-6.0-1.16","4","4","4","4","4","4","4","3","4","4","4","4","3","5","4","5","4","4","5","4","1","1","1","1","1","2","4","1","2","1","0","1","1","0","0","0","1","0","1","1","0","1","0","1","5","2","4","4","4","5","2","4","2","2","1","753301347197259777","赵","137","","","","","","","","","","","","","","","","","","","true","3","3","ability","1159","self","本人的","","","","","","","","","","","","","","","","",""
"null","","null","html-keyboard-response","93","299566","0.0-6.0-0.0-6.0-0.17","4","4","4","4","4","4","4","3","4","4","4","4","3","5","4","5","4","4","5","4","1","1","1","1","1","2","4","1","2","1","0","1","1","0","0","0","1","0","1","1","0","1","0","1","5","2","4","4","4","5","2","4","2","2","1","753301347197259777","赵","137","","","","","","","","","","","","","","","","","","","","","","","","","","","","","","","","","","","","","","","","","",""
"702","<p style=""color:white; font-size: 35px;"">精干</p>","i","categorize-html","94","300269","0.0-6.0-0.0-6.0-1.17","4","4","4","4","4","4","4","3","4","4","4","4","3","5","4","5","4","4","5","4","1","1","1","1","1","2","4","1","2","1","0","1","1","0","0","0","1","0","1","1","0","1","0","1","5","2","4","4","4","5","2","4","2","2","1","753301347197259777","赵","137","","","","","","","","","","","","","","","","","","","true","3","3","ability","702","positive","精干","","","","","","","","","","","","","","","","",""
"null","","null","html-keyboard-response","95","300531","0.0-6.0-0.0-6.0-0.18","4","4","4","4","4","4","4","3","4","4","4","4","3","5","4","5","4","4","5","4","1","1","1","1","1","2","4","1","2","1","0","1","1","0","0","0","1","0","1","1","0","1","0","1","5","2","4","4","4","5","2","4","2","2","1","753301347197259777","赵","137","","","","","","","","","","","","","","","","","","","","","","","","","","","","","","","","","","","","","","","","","",""
"540","<p style=""color:rgb(150, 250, 100); font-size: 35px;"">别人</p>","i","categorize-html","96","301074","0.0-6.0-0.0-6.0-1.18","4","4","4","4","4","4","4","3","4","4","4","4","3","5","4","5","4","4","5","4","1","1","1","1","1","2","4","1","2","1","0","1","1","0","0","0","1","0","1","1","0","1","0","1","5","2","4","4","4","5","2","4","2","2","1","753301347197259777","赵","137","","","","","","","","","","","","","","","","","","","true","3","3","ability","540","other","别人","","","","","","","","","","","","","","","","",""
"null","","null","html-keyboard-response","97","301338","0.0-6.0-0.0-6.0-0.19","4","4","4","4","4","4","4","3","4","4","4","4","3","5","4","5","4","4","5","4","1","1","1","1","1","2","4","1","2","1","0","1","1","0","0","0","1","0","1","1","0","1","0","1","5","2","4","4","4","5","2","4","2","2","1","753301347197259777","赵","137","","","","","","","","","","","","","","","","","","","","","","","","","","","","","","","","","","","","","","","","","",""
"687","<p style=""color:white; font-size: 35px;"">拙笨</p>","e","categorize-html","98","302028","0.0-6.0-0.0-6.0-1.19","4","4","4","4","4","4","4","3","4","4","4","4","3","5","4","5","4","4","5","4","1","1","1","1","1","2","4","1","2","1","0","1","1","0","0","0","1","0","1","1","0","1","0","1","5","2","4","4","4","5","2","4","2","2","1","753301347197259777","赵","137","","","","","","","","","","","","","","","","","","","true","3","3","ability","687","negative","拙笨","","","","","","","","","","","","","","","","",""
"null","","null","html-keyboard-response","99","302280","0.0-6.0-0.0-6.0-0.20","4","4","4","4","4","4","4","3","4","4","4","4","3","5","4","5","4","4","5","4","1","1","1","1","1","2","4","1","2","1","0","1","1","0","0","0","1","0","1","1","0","1","0","1","5","2","4","4","4","5","2","4","2","2","1","753301347197259777","赵","137","","","","","","","","","","","","","","","","","","","","","","","","","","","","","","","","","","","","","","","","","",""
"782","<p style=""color:rgb(150, 250, 100); font-size: 35px;"">我的</p>","e","categorize-html","100","303064","0.0-6.0-0.0-6.0-1.20","4","4","4","4","4","4","4","3","4","4","4","4","3","5","4","5","4","4","5","4","1","1","1","1","1","2","4","1","2","1","0","1","1","0","0","0","1","0","1","1","0","1","0","1","5","2","4","4","4","5","2","4","2","2","1","753301347197259777","赵","137","","","","","","","","","","","","","","","","","","","true","3","3","ability","782","self","我的","","","","","","","","","","","","","","","","",""
"null","","null","html-keyboard-response","101","303321","0.0-6.0-0.0-6.0-0.21","4","4","4","4","4","4","4","3","4","4","4","4","3","5","4","5","4","4","5","4","1","1","1","1","1","2","4","1","2","1","0","1","1","0","0","0","1","0","1","1","0","1","0","1","5","2","4","4","4","5","2","4","2","2","1","753301347197259777","赵","137","","","","","","","","","","","","","","","","","","","","","","","","","","","","","","","","","","","","","","","","","",""
"661","<p style=""color:white; font-size: 35px;"">高效</p>","i","categorize-html","102","303985","0.0-6.0-0.0-6.0-1.21","4","4","4","4","4","4","4","3","4","4","4","4","3","5","4","5","4","4","5","4","1","1","1","1","1","2","4","1","2","1","0","1","1","0","0","0","1","0","1","1","0","1","0","1","5","2","4","4","4","5","2","4","2","2","1","753301347197259777","赵","137","","","","","","","","","","","","","","","","","","","true","3","3","ability","661","positive","高效","","","","","","","","","","","","","","","","",""
"null","","null","html-keyboard-response","103","304250","0.0-6.0-0.0-6.0-0.22","4","4","4","4","4","4","4","3","4","4","4","4","3","5","4","5","4","4","5","4","1","1","1","1","1","2","4","1","2","1","0","1","1","0","0","0","1","0","1","1","0","1","0","1","5","2","4","4","4","5","2","4","2","2","1","753301347197259777","赵","137","","","","","","","","","","","","","","","","","","","","","","","","","","","","","","","","","","","","","","","","","",""
"757","<p style=""color:rgb(150, 250, 100); font-size: 35px;"">他人的</p>","i","categorize-html","104","305010","0.0-6.0-0.0-6.0-1.22","4","4","4","4","4","4","4","3","4","4","4","4","3","5","4","5","4","4","5","4","1","1","1","1","1","2","4","1","2","1","0","1","1","0","0","0","1","0","1","1","0","1","0","1","5","2","4","4","4","5","2","4","2","2","1","753301347197259777","赵","137","","","","","","","","","","","","","","","","","","","true","3","3","ability","757","other","他人的","","","","","","","","","","","","","","","","",""
"null","","null","html-keyboard-response","105","305274","0.0-6.0-0.0-6.0-0.23","4","4","4","4","4","4","4","3","4","4","4","4","3","5","4","5","4","4","5","4","1","1","1","1","1","2","4","1","2","1","0","1","1","0","0","0","1","0","1","1","0","1","0","1","5","2","4","4","4","5","2","4","2","2","1","753301347197259777","赵","137","","","","","","","","","","","","","","","","","","","","","","","","","","","","","","","","","","","","","","","","","",""
"623","<p style=""color:white; font-size: 35px;"">愚钝</p>","e","categorize-html","106","305898","0.0-6.0-0.0-6.0-1.23","4","4","4","4","4","4","4","3","4","4","4","4","3","5","4","5","4","4","5","4","1","1","1","1","1","2","4","1","2","1","0","1","1","0","0","0","1","0","1","1","0","1","0","1","5","2","4","4","4","5","2","4","2","2","1","753301347197259777","赵","137","","","","","","","","","","","","","","","","","","","true","3","3","ability","623","negative","愚钝","","","","","","","","","","","","","","","","",""
"20446","
    <div class=""tag-bottom""><p>
    —— 任务4：对“自我/消极”词和“他人/积极”词分类 ——<p/>
    <span style=""color:#78DCE8""><b>与刚才的任务完全相同，请再次对这四类词语分类</b></span><p/>
    <span style=""color:#FFD866""><b>请根据上方标签的提示，尽可能正确并且快速地做出按键反应</b></span><p/>
    当按键错误时屏幕中会出现<span style=""color:red""> X </span>，需要按另一个键纠正才能继续<br/><p/>
    请把双手食指分别放在键盘的“E”键和“I”键上<p/>
    按<空格键>开始
    </p></div>"," ","html-keyboard-response","107","326345","0.0-6.0-0.0-7.0","4","4","4","4","4","4","4","3","4","4","4","4","3","5","4","5","4","4","5","4","1","1","1","1","1","2","4","1","2","1","0","1","1","0","0","0","1","0","1","1","0","1","0","1","5","2","4","4","4","5","2","4","2","2","1","753301347197259777","赵","137","","","","","","","","","","","","","","","","","","","","","","","","","","","","","","","","","","","","","","","","","",""
"null","","null","html-keyboard-response","108","326606","0.0-6.0-0.0-8.0-0.0","4","4","4","4","4","4","4","3","4","4","4","4","3","5","4","5","4","4","5","4","1","1","1","1","1","2","4","1","2","1","0","1","1","0","0","0","1","0","1","1","0","1","0","1","5","2","4","4","4","5","2","4","2","2","1","753301347197259777","赵","137","","","","","","","","","","","","","","","","","","","","","","","","","","","","","","","","","","","","","","","","","",""
"804","<p style=""color:rgb(150, 250, 100); font-size: 35px;"">他人的</p>","i","categorize-html","109","327413","0.0-6.0-0.0-8.0-1.0","4","4","4","4","4","4","4","3","4","4","4","4","3","5","4","5","4","4","5","4","1","1","1","1","1","2","4","1","2","1","0","1","1","0","0","0","1","0","1","1","0","1","0","1","5","2","4","4","4","5","2","4","2","2","1","753301347197259777","赵","137","","","","","","","","","","","","","","","","","","","true","4","4","ability","804","other","他人的","","","","","","","","","","","","","","","","",""
"null","","null","html-keyboard-response","110","327666","0.0-6.0-0.0-8.0-0.1","4","4","4","4","4","4","4","3","4","4","4","4","3","5","4","5","4","4","5","4","1","1","1","1","1","2","4","1","2","1","0","1","1","0","0","0","1","0","1","1","0","1","0","1","5","2","4","4","4","5","2","4","2","2","1","753301347197259777","赵","137","","","","","","","","","","","","","","","","","","","","","","","","","","","","","","","","","","","","","","","","","",""
"729","<p style=""color:white; font-size: 35px;"">全能</p>","i","categorize-html","111","328398","0.0-6.0-0.0-8.0-1.1","4","4","4","4","4","4","4","3","4","4","4","4","3","5","4","5","4","4","5","4","1","1","1","1","1","2","4","1","2","1","0","1","1","0","0","0","1","0","1","1","0","1","0","1","5","2","4","4","4","5","2","4","2","2","1","753301347197259777","赵","137","","","","","","","","","","","","","","","","","","","true","4","4","ability","729","positive","全能","","","","","","","","","","","","","","","","",""
"null","","null","html-keyboard-response","112","328660","0.0-6.0-0.0-8.0-0.2","4","4","4","4","4","4","4","3","4","4","4","4","3","5","4","5","4","4","5","4","1","1","1","1","1","2","4","1","2","1","0","1","1","0","0","0","1","0","1","1","0","1","0","1","5","2","4","4","4","5","2","4","2","2","1","753301347197259777","赵","137","","","","","","","","","","","","","","","","","","","","","","","","","","","","","","","","","","","","","","","","","",""
"691","<p style=""color:rgb(150, 250, 100); font-size: 35px;"">自己</p>","e","categorize-html","113","329353","0.0-6.0-0.0-8.0-1.2","4","4","4","4","4","4","4","3","4","4","4","4","3","5","4","5","4","4","5","4","1","1","1","1","1","2","4","1","2","1","0","1","1","0","0","0","1","0","1","1","0","1","0","1","5","2","4","4","4","5","2","4","2","2","1","753301347197259777","赵","137","","","","","","","","","","","","","","","","","","","true","4","4","ability","691","self","自己","","","","","","","","","","","","","","","","",""
"null","","null","html-keyboard-response","114","329607","0.0-6.0-0.0-8.0-0.3","4","4","4","4","4","4","4","3","4","4","4","4","3","5","4","5","4","4","5","4","1","1","1","1","1","2","4","1","2","1","0","1","1","0","0","0","1","0","1","1","0","1","0","1","5","2","4","4","4","5","2","4","2","2","1","753301347197259777","赵","137","","","","","","","","","","","","","","","","","","","","","","","","","","","","","","","","","","","","","","","","","",""
"485","<p style=""color:white; font-size: 35px;"">蠢笨</p>","e","categorize-html","115","330094","0.0-6.0-0.0-8.0-1.3","4","4","4","4","4","4","4","3","4","4","4","4","3","5","4","5","4","4","5","4","1","1","1","1","1","2","4","1","2","1","0","1","1","0","0","0","1","0","1","1","0","1","0","1","5","2","4","4","4","5","2","4","2","2","1","753301347197259777","赵","137","","","","","","","","","","","","","","","","","","","true","4","4","ability","485","negative","蠢笨","","","","","","","","","","","","","","","","",""
"null","","null","html-keyboard-response","116","330352","0.0-6.0-0.0-8.0-0.4","4","4","4","4","4","4","4","3","4","4","4","4","3","5","4","5","4","4","5","4","1","1","1","1","1","2","4","1","2","1","0","1","1","0","0","0","1","0","1","1","0","1","0","1","5","2","4","4","4","5","2","4","2","2","1","753301347197259777","赵","137","","","","","","","","","","","","","","","","","","","","","","","","","","","","","","","","","","","","","","","","","",""
"1028","<p style=""color:rgb(150, 250, 100); font-size: 35px;"">本人的</p>","e","categorize-html","117","331383","0.0-6.0-0.0-8.0-1.4","4","4","4","4","4","4","4","3","4","4","4","4","3","5","4","5","4","4","5","4","1","1","1","1","1","2","4","1","2","1","0","1","1","0","0","0","1","0","1","1","0","1","0","1","5","2","4","4","4","5","2","4","2","2","1","753301347197259777","赵","137","","","","","","","","","","","","","","","","","","","true","4","4","ability","1028","self","本人的","","","","","","","","","","","","","","","","",""
"null","","null","html-keyboard-response","118","331645","0.0-6.0-0.0-8.0-0.5","4","4","4","4","4","4","4","3","4","4","4","4","3","5","4","5","4","4","5","4","1","1","1","1","1","2","4","1","2","1","0","1","1","0","0","0","1","0","1","1","0","1","0","1","5","2","4","4","4","5","2","4","2","2","1","753301347197259777","赵","137","","","","","","","","","","","","","","","","","","","","","","","","","","","","","","","","","","","","","","","","","",""
"524","<p style=""color:white; font-size: 35px;"">全才</p>","i","categorize-html","119","332186","0.0-6.0-0.0-8.0-1.5","4","4","4","4","4","4","4","3","4","4","4","4","3","5","4","5","4","4","5","4","1","1","1","1","1","2","4","1","2","1","0","1","1","0","0","0","1","0","1","1","0","1","0","1","5","2","4","4","4","5","2","4","2","2","1","753301347197259777","赵","137","","","","","","","","","","","","","","","","","","","true","4","4","ability","524","positive","全才","","","","","","","","","","","","","","","","",""
"null","","null","html-keyboard-response","120","332450","0.0-6.0-0.0-8.0-0.6","4","4","4","4","4","4","4","3","4","4","4","4","3","5","4","5","4","4","5","4","1","1","1","1","1","2","4","1","2","1","0","1","1","0","0","0","1","0","1","1","0","1","0","1","5","2","4","4","4","5","2","4","2","2","1","753301347197259777","赵","137","","","","","","","","","","","","","","","","","","","","","","","","","","","","","","","","","","","","","","","","","",""
"577","<p style=""color:rgb(150, 250, 100); font-size: 35px;"">他人</p>","i","categorize-html","121","333030","0.0-6.0-0.0-8.0-1.6","4","4","4","4","4","4","4","3","4","4","4","4","3","5","4","5","4","4","5","4","1","1","1","1","1","2","4","1","2","1","0","1","1","0","0","0","1","0","1","1","0","1","0","1","5","2","4","4","4","5","2","4","2","2","1","753301347197259777","赵","137","","","","","","","","","","","","","","","","","","","true","4","4","ability","577","other","他人","","","","","","","","","","","","","","","","",""
"null","","null","html-keyboard-response","122","333291","0.0-6.0-0.0-8.0-0.7","4","4","4","4","4","4","4","3","4","4","4","4","3","5","4","5","4","4","5","4","1","1","1","1","1","2","4","1","2","1","0","1","1","0","0","0","1","0","1","1","0","1","0","1","5","2","4","4","4","5","2","4","2","2","1","753301347197259777","赵","137","","","","","","","","","","","","","","","","","","","","","","","","","","","","","","","","","","","","","","","","","",""
"599","<p style=""color:white; font-size: 35px;"">废物</p>","e","categorize-html","123","333892","0.0-6.0-0.0-8.0-1.7","4","4","4","4","4","4","4","3","4","4","4","4","3","5","4","5","4","4","5","4","1","1","1","1","1","2","4","1","2","1","0","1","1","0","0","0","1","0","1","1","0","1","0","1","5","2","4","4","4","5","2","4","2","2","1","753301347197259777","赵","137","","","","","","","","","","","","","","","","","","","true","4","4","ability","599","negative","废物","","","","","","","","","","","","","","","","",""
"null","","null","html-keyboard-response","124","334150","0.0-6.0-0.0-8.0-0.8","4","4","4","4","4","4","4","3","4","4","4","4","3","5","4","5","4","4","5","4","1","1","1","1","1","2","4","1","2","1","0","1","1","0","0","0","1","0","1","1","0","1","0","1","5","2","4","4","4","5","2","4","2","2","1","753301347197259777","赵","137","","","","","","","","","","","","","","","","","","","","","","","","","","","","","","","","","","","","","","","","","",""
"686","<p style=""color:rgb(150, 250, 100); font-size: 35px;"">我的</p>","e","categorize-html","125","334838","0.0-6.0-0.0-8.0-1.8","4","4","4","4","4","4","4","3","4","4","4","4","3","5","4","5","4","4","5","4","1","1","1","1","1","2","4","1","2","1","0","1","1","0","0","0","1","0","1","1","0","1","0","1","5","2","4","4","4","5","2","4","2","2","1","753301347197259777","赵","137","","","","","","","","","","","","","","","","","","","true","4","4","ability","686","self","我的","","","","","","","","","","","","","","","","",""
"null","","null","html-keyboard-response","126","335089","0.0-6.0-0.0-8.0-0.9","4","4","4","4","4","4","4","3","4","4","4","4","3","5","4","5","4","4","5","4","1","1","1","1","1","2","4","1","2","1","0","1","1","0","0","0","1","0","1","1","0","1","0","1","5","2","4","4","4","5","2","4","2","2","1","753301347197259777","赵","137","","","","","","","","","","","","","","","","","","","","","","","","","","","","","","","","","","","","","","","","","",""
"1394","<p style=""color:white; font-size: 35px;"">全才</p>","i","categorize-html","127","336486","0.0-6.0-0.0-8.0-1.9","4","4","4","4","4","4","4","3","4","4","4","4","3","5","4","5","4","4","5","4","1","1","1","1","1","2","4","1","2","1","0","1","1","0","0","0","1","0","1","1","0","1","0","1","5","2","4","4","4","5","2","4","2","2","1","753301347197259777","赵","137","","","","","","","","","","","","","","","","","","","true","4","4","ability","1394","positive","全才","","","","","","","","","","","","","","","","",""
"null","","null","html-keyboard-response","128","336752","0.0-6.0-0.0-8.0-0.10","4","4","4","4","4","4","4","3","4","4","4","4","3","5","4","5","4","4","5","4","1","1","1","1","1","2","4","1","2","1","0","1","1","0","0","0","1","0","1","1","0","1","0","1","5","2","4","4","4","5","2","4","2","2","1","753301347197259777","赵","137","","","","","","","","","","","","","","","","","","","","","","","","","","","","","","","","","","","","","","","","","",""
"570","<p style=""color:rgb(150, 250, 100); font-size: 35px;"">别人</p>","i","categorize-html","129","337324","0.0-6.0-0.0-8.0-1.10","4","4","4","4","4","4","4","3","4","4","4","4","3","5","4","5","4","4","5","4","1","1","1","1","1","2","4","1","2","1","0","1","1","0","0","0","1","0","1","1","0","1","0","1","5","2","4","4","4","5","2","4","2","2","1","753301347197259777","赵","137","","","","","","","","","","","","","","","","","","","true","4","4","ability","570","other","别人","","","","","","","","","","","","","","","","",""
"null","","null","html-keyboard-response","130","337583","0.0-6.0-0.0-8.0-0.11","4","4","4","4","4","4","4","3","4","4","4","4","3","5","4","5","4","4","5","4","1","1","1","1","1","2","4","1","2","1","0","1","1","0","0","0","1","0","1","1","0","1","0","1","5","2","4","4","4","5","2","4","2","2","1","753301347197259777","赵","137","","","","","","","","","","","","","","","","","","","","","","","","","","","","","","","","","","","","","","","","","",""
"1139","<p style=""color:white; font-size: 35px;"">愚钝</p>","e","categorize-html","131","338725","0.0-6.0-0.0-8.0-1.11","4","4","4","4","4","4","4","3","4","4","4","4","3","5","4","5","4","4","5","4","1","1","1","1","1","2","4","1","2","1","0","1","1","0","0","0","1","0","1","1","0","1","0","1","5","2","4","4","4","5","2","4","2","2","1","753301347197259777","赵","137","","","","","","","","","","","","","","","","","","","true","4","4","ability","1139","negative","愚钝","","","","","","","","","","","","","","","","",""
"null","","null","html-keyboard-response","132","338991","0.0-6.0-0.0-8.0-0.12","4","4","4","4","4","4","4","3","4","4","4","4","3","5","4","5","4","4","5","4","1","1","1","1","1","2","4","1","2","1","0","1","1","0","0","0","1","0","1","1","0","1","0","1","5","2","4","4","4","5","2","4","2","2","1","753301347197259777","赵","137","","","","","","","","","","","","","","","","","","","","","","","","","","","","","","","","","","","","","","","","","",""
"631","<p style=""color:rgb(150, 250, 100); font-size: 35px;"">自己的</p>","e","categorize-html","133","339624","0.0-6.0-0.0-8.0-1.12","4","4","4","4","4","4","4","3","4","4","4","4","3","5","4","5","4","4","5","4","1","1","1","1","1","2","4","1","2","1","0","1","1","0","0","0","1","0","1","1","0","1","0","1","5","2","4","4","4","5","2","4","2","2","1","753301347197259777","赵","137","","","","","","","","","","","","","","","","","","","true","4","4","ability","631","self","自己的","","","","","","","","","","","","","","","","",""
"null","","null","html-keyboard-response","134","339877","0.0-6.0-0.0-8.0-0.13","4","4","4","4","4","4","4","3","4","4","4","4","3","5","4","5","4","4","5","4","1","1","1","1","1","2","4","1","2","1","0","1","1","0","0","0","1","0","1","1","0","1","0","1","5","2","4","4","4","5","2","4","2","2","1","753301347197259777","赵","137","","","","","","","","","","","","","","","","","","","","","","","","","","","","","","","","","","","","","","","","","",""
"1301","<p style=""color:white; font-size: 35px;"">无能</p>","e","categorize-html","135","341180","0.0-6.0-0.0-8.0-1.13","4","4","4","4","4","4","4","3","4","4","4","4","3","5","4","5","4","4","5","4","1","1","1","1","1","2","4","1","2","1","0","1","1","0","0","0","1","0","1","1","0","1","0","1","5","2","4","4","4","5","2","4","2","2","1","753301347197259777","赵","137","","","","","","","","","","","","","","","","","","","true","4","4","ability","1301","negative","无能","","","","","","","","","","","","","","","","",""
"null","","null","html-keyboard-response","136","341431","0.0-6.0-0.0-8.0-0.14","4","4","4","4","4","4","4","3","4","4","4","4","3","5","4","5","4","4","5","4","1","1","1","1","1","2","4","1","2","1","0","1","1","0","0","0","1","0","1","1","0","1","0","1","5","2","4","4","4","5","2","4","2","2","1","753301347197259777","赵","137","","","","","","","","","","","","","","","","","","","","","","","","","","","","","","","","","","","","","","","","","",""
"661","<p style=""color:rgb(150, 250, 100); font-size: 35px;"">别人的</p>","i","categorize-html","137","342095","0.0-6.0-0.0-8.0-1.14","4","4","4","4","4","4","4","3","4","4","4","4","3","5","4","5","4","4","5","4","1","1","1","1","1","2","4","1","2","1","0","1","1","0","0","0","1","0","1","1","0","1","0","1","5","2","4","4","4","5","2","4","2","2","1","753301347197259777","赵","137","","","","","","","","","","","","","","","","","","","true","4","4","ability","661","other","别人的","","","","","","","","","","","","","","","","",""
"null","","null","html-keyboard-response","138","342349","0.0-6.0-0.0-8.0-0.15","4","4","4","4","4","4","4","3","4","4","4","4","3","5","4","5","4","4","5","4","1","1","1","1","1","2","4","1","2","1","0","1","1","0","0","0","1","0","1","1","0","1","0","1","5","2","4","4","4","5","2","4","2","2","1","753301347197259777","赵","137","","","","","","","","","","","","","","","","","","","","","","","","","","","","","","","","","","","","","","","","","",""
"592","<p style=""color:white; font-size: 35px;"">精干</p>","i","categorize-html","139","342943","0.0-6.0-0.0-8.0-1.15","4","4","4","4","4","4","4","3","4","4","4","4","3","5","4","5","4","4","5","4","1","1","1","1","1","2","4","1","2","1","0","1","1","0","0","0","1","0","1","1","0","1","0","1","5","2","4","4","4","5","2","4","2","2","1","753301347197259777","赵","137","","","","","","","","","","","","","","","","","","","true","4","4","ability","592","positive","精干","","","","","","","","","","","","","","","","",""
"null","","null","html-keyboard-response","140","343203","0.0-6.0-0.0-8.0-0.16","4","4","4","4","4","4","4","3","4","4","4","4","3","5","4","5","4","4","5","4","1","1","1","1","1","2","4","1","2","1","0","1","1","0","0","0","1","0","1","1","0","1","0","1","5","2","4","4","4","5","2","4","2","2","1","753301347197259777","赵","137","","","","","","","","","","","","","","","","","","","","","","","","","","","","","","","","","","","","","","","","","",""
"642","<p style=""color:rgb(150, 250, 100); font-size: 35px;"">本人</p>","e","categorize-html","141","343848","0.0-6.0-0.0-8.0-1.16","4","4","4","4","4","4","4","3","4","4","4","4","3","5","4","5","4","4","5","4","1","1","1","1","1","2","4","1","2","1","0","1","1","0","0","0","1","0","1","1","0","1","0","1","5","2","4","4","4","5","2","4","2","2","1","753301347197259777","赵","137","","","","","","","","","","","","","","","","","","","true","4","4","ability","642","self","本人","","","","","","","","","","","","","","","","",""
"null","","null","html-keyboard-response","142","344100","0.0-6.0-0.0-8.0-0.17","4","4","4","4","4","4","4","3","4","4","4","4","3","5","4","5","4","4","5","4","1","1","1","1","1","2","4","1","2","1","0","1","1","0","0","0","1","0","1","1","0","1","0","1","5","2","4","4","4","5","2","4","2","2","1","753301347197259777","赵","137","","","","","","","","","","","","","","","","","","","","","","","","","","","","","","","","","","","","","","","","","",""
"635","<p style=""color:white; font-size: 35px;"">天才</p>","i","categorize-html","143","344738","0.0-6.0-0.0-8.0-1.17","4","4","4","4","4","4","4","3","4","4","4","4","3","5","4","5","4","4","5","4","1","1","1","1","1","2","4","1","2","1","0","1","1","0","0","0","1","0","1","1","0","1","0","1","5","2","4","4","4","5","2","4","2","2","1","753301347197259777","赵","137","","","","","","","","","","","","","","","","","","","true","4","4","ability","635","positive","天才","","","","","","","","","","","","","","","","",""
"null","","null","html-keyboard-response","144","344998","0.0-6.0-0.0-8.0-0.18","4","4","4","4","4","4","4","3","4","4","4","4","3","5","4","5","4","4","5","4","1","1","1","1","1","2","4","1","2","1","0","1","1","0","0","0","1","0","1","1","0","1","0","1","5","2","4","4","4","5","2","4","2","2","1","753301347197259777","赵","137","","","","","","","","","","","","","","","","","","","","","","","","","","","","","","","","","","","","","","","","","",""
"535","<p style=""color:rgb(150, 250, 100); font-size: 35px;"">他</p>","i","categorize-html","145","345536","0.0-6.0-0.0-8.0-1.18","4","4","4","4","4","4","4","3","4","4","4","4","3","5","4","5","4","4","5","4","1","1","1","1","1","2","4","1","2","1","0","1","1","0","0","0","1","0","1","1","0","1","0","1","5","2","4","4","4","5","2","4","2","2","1","753301347197259777","赵","137","","","","","","","","","","","","","","","","","","","true","4","4","ability","535","other","他","","","","","","","","","","","","","","","","",""
"null","","null","html-keyboard-response","146","345790","0.0-6.0-0.0-8.0-0.19","4","4","4","4","4","4","4","3","4","4","4","4","3","5","4","5","4","4","5","4","1","1","1","1","1","2","4","1","2","1","0","1","1","0","0","0","1","0","1","1","0","1","0","1","5","2","4","4","4","5","2","4","2","2","1","753301347197259777","赵","137","","","","","","","","","","","","","","","","","","","","","","","","","","","","","","","","","","","","","","","","","",""
"1008","<p style=""color:white; font-size: 35px;"">低能</p>","e","categorize-html","147","346801","0.0-6.0-0.0-8.0-1.19","4","4","4","4","4","4","4","3","4","4","4","4","3","5","4","5","4","4","5","4","1","1","1","1","1","2","4","1","2","1","0","1","1","0","0","0","1","0","1","1","0","1","0","1","5","2","4","4","4","5","2","4","2","2","1","753301347197259777","赵","137","","","","","","","","","","","","","","","","","","","true","4","4","ability","1008","negative","低能","","","","","","","","","","","","","","","","",""
"null","","null","html-keyboard-response","148","347061","0.0-6.0-0.0-8.0-0.20","4","4","4","4","4","4","4","3","4","4","4","4","3","5","4","5","4","4","5","4","1","1","1","1","1","2","4","1","2","1","0","1","1","0","0","0","1","0","1","1","0","1","0","1","5","2","4","4","4","5","2","4","2","2","1","753301347197259777","赵","137","","","","","","","","","","","","","","","","","","","","","","","","","","","","","","","","","","","","","","","","","",""
"506","<p style=""color:rgb(150, 250, 100); font-size: 35px;"">我的</p>","e","categorize-html","149","347569","0.0-6.0-0.0-8.0-1.20","4","4","4","4","4","4","4","3","4","4","4","4","3","5","4","5","4","4","5","4","1","1","1","1","1","2","4","1","2","1","0","1","1","0","0","0","1","0","1","1","0","1","0","1","5","2","4","4","4","5","2","4","2","2","1","753301347197259777","赵","137","","","","","","","","","","","","","","","","","","","true","4","4","ability","506","self","我的","","","","","","","","","","","","","","","","",""
"null","","null","html-keyboard-response","150","347825","0.0-6.0-0.0-8.0-0.21","4","4","4","4","4","4","4","3","4","4","4","4","3","5","4","5","4","4","5","4","1","1","1","1","1","2","4","1","2","1","0","1","1","0","0","0","1","0","1","1","0","1","0","1","5","2","4","4","4","5","2","4","2","2","1","753301347197259777","赵","137","","","","","","","","","","","","","","","","","","","","","","","","","","","","","","","","","","","","","","","","","",""
"627","<p style=""color:white; font-size: 35px;"">愚钝</p>","e","categorize-html","151","348455","0.0-6.0-0.0-8.0-1.21","4","4","4","4","4","4","4","3","4","4","4","4","3","5","4","5","4","4","5","4","1","1","1","1","1","2","4","1","2","1","0","1","1","0","0","0","1","0","1","1","0","1","0","1","5","2","4","4","4","5","2","4","2","2","1","753301347197259777","赵","137","","","","","","","","","","","","","","","","","","","true","4","4","ability","627","negative","愚钝","","","","","","","","","","","","","","","","",""
"null","","null","html-keyboard-response","152","348713","0.0-6.0-0.0-8.0-0.22","4","4","4","4","4","4","4","3","4","4","4","4","3","5","4","5","4","4","5","4","1","1","1","1","1","2","4","1","2","1","0","1","1","0","0","0","1","0","1","1","0","1","0","1","5","2","4","4","4","5","2","4","2","2","1","753301347197259777","赵","137","","","","","","","","","","","","","","","","","","","","","","","","","","","","","","","","","","","","","","","","","",""
"516","<p style=""color:rgb(150, 250, 100); font-size: 35px;"">他人</p>","i","categorize-html","153","349231","0.0-6.0-0.0-8.0-1.22","4","4","4","4","4","4","4","3","4","4","4","4","3","5","4","5","4","4","5","4","1","1","1","1","1","2","4","1","2","1","0","1","1","0","0","0","1","0","1","1","0","1","0","1","5","2","4","4","4","5","2","4","2","2","1","753301347197259777","赵","137","","","","","","","","","","","","","","","","","","","true","4","4","ability","516","other","他人","","","","","","","","","","","","","","","","",""
"null","","null","html-keyboard-response","154","349490","0.0-6.0-0.0-8.0-0.23","4","4","4","4","4","4","4","3","4","4","4","4","3","5","4","5","4","4","5","4","1","1","1","1","1","2","4","1","2","1","0","1","1","0","0","0","1","0","1","1","0","1","0","1","5","2","4","4","4","5","2","4","2","2","1","753301347197259777","赵","137","","","","","","","","","","","","","","","","","","","","","","","","","","","","","","","","","","","","","","","","","",""
"693","<p style=""color:white; font-size: 35px;"">能干</p>","i","categorize-html","155","350186","0.0-6.0-0.0-8.0-1.23","4","4","4","4","4","4","4","3","4","4","4","4","3","5","4","5","4","4","5","4","1","1","1","1","1","2","4","1","2","1","0","1","1","0","0","0","1","0","1","1","0","1","0","1","5","2","4","4","4","5","2","4","2","2","1","753301347197259777","赵","137","","","","","","","","","","","","","","","","","","","true","4","4","ability","693","positive","能干","","","","","","","","","","","","","","","","",""
"null","","null","html-keyboard-response","156","350449","0.0-6.0-0.0-8.0-0.24","4","4","4","4","4","4","4","3","4","4","4","4","3","5","4","5","4","4","5","4","1","1","1","1","1","2","4","1","2","1","0","1","1","0","0","0","1","0","1","1","0","1","0","1","5","2","4","4","4","5","2","4","2","2","1","753301347197259777","赵","137","","","","","","","","","","","","","","","","","","","","","","","","","","","","","","","","","","","","","","","","","",""
"907","<p style=""color:rgb(150, 250, 100); font-size: 35px;"">别人的</p>","i","categorize-html","157","351359","0.0-6.0-0.0-8.0-1.24","4","4","4","4","4","4","4","3","4","4","4","4","3","5","4","5","4","4","5","4","1","1","1","1","1","2","4","1","2","1","0","1","1","0","0","0","1","0","1","1","0","1","0","1","5","2","4","4","4","5","2","4","2","2","1","753301347197259777","赵","137","","","","","","","","","","","","","","","","","","","true","4","4","ability","907","other","别人的","","","","","","","","","","","","","","","","",""
"null","","null","html-keyboard-response","158","351612","0.0-6.0-0.0-8.0-0.25","4","4","4","4","4","4","4","3","4","4","4","4","3","5","4","5","4","4","5","4","1","1","1","1","1","2","4","1","2","1","0","1","1","0","0","0","1","0","1","1","0","1","0","1","5","2","4","4","4","5","2","4","2","2","1","753301347197259777","赵","137","","","","","","","","","","","","","","","","","","","","","","","","","","","","","","","","","","","","","","","","","",""
"729","<p style=""color:white; font-size: 35px;"">蠢笨</p>","e","categorize-html","159","352343","0.0-6.0-0.0-8.0-1.25","4","4","4","4","4","4","4","3","4","4","4","4","3","5","4","5","4","4","5","4","1","1","1","1","1","2","4","1","2","1","0","1","1","0","0","0","1","0","1","1","0","1","0","1","5","2","4","4","4","5","2","4","2","2","1","753301347197259777","赵","137","","","","","","","","","","","","","","","","","","","true","4","4","ability","729","negative","蠢笨","","","","","","","","","","","","","","","","",""
"null","","null","html-keyboard-response","160","352602","0.0-6.0-0.0-8.0-0.26","4","4","4","4","4","4","4","3","4","4","4","4","3","5","4","5","4","4","5","4","1","1","1","1","1","2","4","1","2","1","0","1","1","0","0","0","1","0","1","1","0","1","0","1","5","2","4","4","4","5","2","4","2","2","1","753301347197259777","赵","137","","","","","","","","","","","","","","","","","","","","","","","","","","","","","","","","","","","","","","","","","",""
"715","<p style=""color:rgb(150, 250, 100); font-size: 35px;"">本人的</p>","e","categorize-html","161","353319","0.0-6.0-0.0-8.0-1.26","4","4","4","4","4","4","4","3","4","4","4","4","3","5","4","5","4","4","5","4","1","1","1","1","1","2","4","1","2","1","0","1","1","0","0","0","1","0","1","1","0","1","0","1","5","2","4","4","4","5","2","4","2","2","1","753301347197259777","赵","137","","","","","","","","","","","","","","","","","","","true","4","4","ability","715","self","本人的","","","","","","","","","","","","","","","","",""
"null","","null","html-keyboard-response","162","353578","0.0-6.0-0.0-8.0-0.27","4","4","4","4","4","4","4","3","4","4","4","4","3","5","4","5","4","4","5","4","1","1","1","1","1","2","4","1","2","1","0","1","1","0","0","0","1","0","1","1","0","1","0","1","5","2","4","4","4","5","2","4","2","2","1","753301347197259777","赵","137","","","","","","","","","","","","","","","","","","","","","","","","","","","","","","","","","","","","","","","","","",""
"1180","<p style=""color:white; font-size: 35px;"">能干</p>","i","categorize-html","163","354761","0.0-6.0-0.0-8.0-1.27","4","4","4","4","4","4","4","3","4","4","4","4","3","5","4","5","4","4","5","4","1","1","1","1","1","2","4","1","2","1","0","1","1","0","0","0","1","0","1","1","0","1","0","1","5","2","4","4","4","5","2","4","2","2","1","753301347197259777","赵","137","","","","","","","","","","","","","","","","","","","true","4","4","ability","1180","positive","能干","","","","","","","","","","","","","","","","",""
"null","","null","html-keyboard-response","164","355023","0.0-6.0-0.0-8.0-0.28","4","4","4","4","4","4","4","3","4","4","4","4","3","5","4","5","4","4","5","4","1","1","1","1","1","2","4","1","2","1","0","1","1","0","0","0","1","0","1","1","0","1","0","1","5","2","4","4","4","5","2","4","2","2","1","753301347197259777","赵","137","","","","","","","","","","","","","","","","","","","","","","","","","","","","","","","","","","","","","","","","","",""
"556","<p style=""color:rgb(150, 250, 100); font-size: 35px;"">他的</p>","i","categorize-html","165","355581","0.0-6.0-0.0-8.0-1.28","4","4","4","4","4","4","4","3","4","4","4","4","3","5","4","5","4","4","5","4","1","1","1","1","1","2","4","1","2","1","0","1","1","0","0","0","1","0","1","1","0","1","0","1","5","2","4","4","4","5","2","4","2","2","1","753301347197259777","赵","137","","","","","","","","","","","","","","","","","","","true","4","4","ability","556","other","他的","","","","","","","","","","","","","","","","",""
"null","","null","html-keyboard-response","166","355840","0.0-6.0-0.0-8.0-0.29","4","4","4","4","4","4","4","3","4","4","4","4","3","5","4","5","4","4","5","4","1","1","1","1","1","2","4","1","2","1","0","1","1","0","0","0","1","0","1","1","0","1","0","1","5","2","4","4","4","5","2","4","2","2","1","753301347197259777","赵","137","","","","","","","","","","","","","","","","","","","","","","","","","","","","","","","","","","","","","","","","","",""
"739","<p style=""color:white; font-size: 35px;"">拙笨</p>","e","categorize-html","167","356581","0.0-6.0-0.0-8.0-1.29","4","4","4","4","4","4","4","3","4","4","4","4","3","5","4","5","4","4","5","4","1","1","1","1","1","2","4","1","2","1","0","1","1","0","0","0","1","0","1","1","0","1","0","1","5","2","4","4","4","5","2","4","2","2","1","753301347197259777","赵","137","","","","","","","","","","","","","","","","","","","true","4","4","ability","739","negative","拙笨","","","","","","","","","","","","","","","","",""
"null","","null","html-keyboard-response","168","356837","0.0-6.0-0.0-8.0-0.30","4","4","4","4","4","4","4","3","4","4","4","4","3","5","4","5","4","4","5","4","1","1","1","1","1","2","4","1","2","1","0","1","1","0","0","0","1","0","1","1","0","1","0","1","5","2","4","4","4","5","2","4","2","2","1","753301347197259777","赵","137","","","","","","","","","","","","","","","","","","","","","","","","","","","","","","","","","","","","","","","","","",""
"535","<p style=""color:rgb(150, 250, 100); font-size: 35px;"">自己的</p>","e","categorize-html","169","357374","0.0-6.0-0.0-8.0-1.30","4","4","4","4","4","4","4","3","4","4","4","4","3","5","4","5","4","4","5","4","1","1","1","1","1","2","4","1","2","1","0","1","1","0","0","0","1","0","1","1","0","1","0","1","5","2","4","4","4","5","2","4","2","2","1","753301347197259777","赵","137","","","","","","","","","","","","","","","","","","","true","4","4","ability","535","self","自己的","","","","","","","","","","","","","","","","",""
"null","","null","html-keyboard-response","170","357631","0.0-6.0-0.0-8.0-0.31","4","4","4","4","4","4","4","3","4","4","4","4","3","5","4","5","4","4","5","4","1","1","1","1","1","2","4","1","2","1","0","1","1","0","0","0","1","0","1","1","0","1","0","1","5","2","4","4","4","5","2","4","2","2","1","753301347197259777","赵","137","","","","","","","","","","","","","","","","","","","","","","","","","","","","","","","","","","","","","","","","","",""
"1148","<p style=""color:white; font-size: 35px;"">高效</p>","i","categorize-html","171","358781","0.0-6.0-0.0-8.0-1.31","4","4","4","4","4","4","4","3","4","4","4","4","3","5","4","5","4","4","5","4","1","1","1","1","1","2","4","1","2","1","0","1","1","0","0","0","1","0","1","1","0","1","0","1","5","2","4","4","4","5","2","4","2","2","1","753301347197259777","赵","137","","","","","","","","","","","","","","","","","","","true","4","4","ability","1148","positive","高效","","","","","","","","","","","","","","","","",""
"null","","null","html-keyboard-response","172","359041","0.0-6.0-0.0-8.0-0.32","4","4","4","4","4","4","4","3","4","4","4","4","3","5","4","5","4","4","5","4","1","1","1","1","1","2","4","1","2","1","0","1","1","0","0","0","1","0","1","1","0","1","0","1","5","2","4","4","4","5","2","4","2","2","1","753301347197259777","赵","137","","","","","","","","","","","","","","","","","","","","","","","","","","","","","","","","","","","","","","","","","",""
"626","<p style=""color:rgb(150, 250, 100); font-size: 35px;"">他</p>","i","categorize-html","173","359669","0.0-6.0-0.0-8.0-1.32","4","4","4","4","4","4","4","3","4","4","4","4","3","5","4","5","4","4","5","4","1","1","1","1","1","2","4","1","2","1","0","1","1","0","0","0","1","0","1","1","0","1","0","1","5","2","4","4","4","5","2","4","2","2","1","753301347197259777","赵","137","","","","","","","","","","","","","","","","","","","true","4","4","ability","626","other","他","","","","","","","","","","","","","","","","",""
"null","","null","html-keyboard-response","174","359926","0.0-6.0-0.0-8.0-0.33","4","4","4","4","4","4","4","3","4","4","4","4","3","5","4","5","4","4","5","4","1","1","1","1","1","2","4","1","2","1","0","1","1","0","0","0","1","0","1","1","0","1","0","1","5","2","4","4","4","5","2","4","2","2","1","753301347197259777","赵","137","","","","","","","","","","","","","","","","","","","","","","","","","","","","","","","","","","","","","","","","","",""
"712","<p style=""color:white; font-size: 35px;"">拙笨</p>","e","categorize-html","175","360639","0.0-6.0-0.0-8.0-1.33","4","4","4","4","4","4","4","3","4","4","4","4","3","5","4","5","4","4","5","4","1","1","1","1","1","2","4","1","2","1","0","1","1","0","0","0","1","0","1","1","0","1","0","1","5","2","4","4","4","5","2","4","2","2","1","753301347197259777","赵","137","","","","","","","","","","","","","","","","","","","true","4","4","ability","712","negative","拙笨","","","","","","","","","","","","","","","","",""
"null","","null","html-keyboard-response","176","360901","0.0-6.0-0.0-8.0-0.34","4","4","4","4","4","4","4","3","4","4","4","4","3","5","4","5","4","4","5","4","1","1","1","1","1","2","4","1","2","1","0","1","1","0","0","0","1","0","1","1","0","1","0","1","5","2","4","4","4","5","2","4","2","2","1","753301347197259777","赵","137","","","","","","","","","","","","","","","","","","","","","","","","","","","","","","","","","","","","","","","","","",""
"797","<p style=""color:rgb(150, 250, 100); font-size: 35px;"">自己</p>","e","categorize-html","177","361702","0.0-6.0-0.0-8.0-1.34","4","4","4","4","4","4","4","3","4","4","4","4","3","5","4","5","4","4","5","4","1","1","1","1","1","2","4","1","2","1","0","1","1","0","0","0","1","0","1","1","0","1","0","1","5","2","4","4","4","5","2","4","2","2","1","753301347197259777","赵","137","","","","","","","","","","","","","","","","","","","true","4","4","ability","797","self","自己","","","","","","","","","","","","","","","","",""
"null","","null","html-keyboard-response","178","361968","0.0-6.0-0.0-8.0-0.35","4","4","4","4","4","4","4","3","4","4","4","4","3","5","4","5","4","4","5","4","1","1","1","1","1","2","4","1","2","1","0","1","1","0","0","0","1","0","1","1","0","1","0","1","5","2","4","4","4","5","2","4","2","2","1","753301347197259777","赵","137","","","","","","","","","","","","","","","","","","","","","","","","","","","","","","","","","","","","","","","","","",""
"618","<p style=""color:white; font-size: 35px;"">天才</p>","i","categorize-html","179","362588","0.0-6.0-0.0-8.0-1.35","4","4","4","4","4","4","4","3","4","4","4","4","3","5","4","5","4","4","5","4","1","1","1","1","1","2","4","1","2","1","0","1","1","0","0","0","1","0","1","1","0","1","0","1","5","2","4","4","4","5","2","4","2","2","1","753301347197259777","赵","137","","","","","","","","","","","","","","","","","","","true","4","4","ability","618","positive","天才","","","","","","","","","","","","","","","","",""
"null","","null","html-keyboard-response","180","362851","0.0-6.0-0.0-8.0-0.36","4","4","4","4","4","4","4","3","4","4","4","4","3","5","4","5","4","4","5","4","1","1","1","1","1","2","4","1","2","1","0","1","1","0","0","0","1","0","1","1","0","1","0","1","5","2","4","4","4","5","2","4","2","2","1","753301347197259777","赵","137","","","","","","","","","","","","","","","","","","","","","","","","","","","","","","","","","","","","","","","","","",""
"644","<p style=""color:rgb(150, 250, 100); font-size: 35px;"">我</p>","e","categorize-html","181","363496","0.0-6.0-0.0-8.0-1.36","4","4","4","4","4","4","4","3","4","4","4","4","3","5","4","5","4","4","5","4","1","1","1","1","1","2","4","1","2","1","0","1","1","0","0","0","1","0","1","1","0","1","0","1","5","2","4","4","4","5","2","4","2","2","1","753301347197259777","赵","137","","","","","","","","","","","","","","","","","","","true","4","4","ability","644","self","我","","","","","","","","","","","","","","","","",""
"null","","null","html-keyboard-response","182","363754","0.0-6.0-0.0-8.0-0.37","4","4","4","4","4","4","4","3","4","4","4","4","3","5","4","5","4","4","5","4","1","1","1","1","1","2","4","1","2","1","0","1","1","0","0","0","1","0","1","1","0","1","0","1","5","2","4","4","4","5","2","4","2","2","1","753301347197259777","赵","137","","","","","","","","","","","","","","","","","","","","","","","","","","","","","","","","","","","","","","","","","",""
"563","<p style=""color:white; font-size: 35px;"">精干</p>","i","categorize-html","183","364320","0.0-6.0-0.0-8.0-1.37","4","4","4","4","4","4","4","3","4","4","4","4","3","5","4","5","4","4","5","4","1","1","1","1","1","2","4","1","2","1","0","1","1","0","0","0","1","0","1","1","0","1","0","1","5","2","4","4","4","5","2","4","2","2","1","753301347197259777","赵","137","","","","","","","","","","","","","","","","","","","true","4","4","ability","563","positive","精干","","","","","","","","","","","","","","","","",""
"null","","null","html-keyboard-response","184","364579","0.0-6.0-0.0-8.0-0.38","4","4","4","4","4","4","4","3","4","4","4","4","3","5","4","5","4","4","5","4","1","1","1","1","1","2","4","1","2","1","0","1","1","0","0","0","1","0","1","1","0","1","0","1","5","2","4","4","4","5","2","4","2","2","1","753301347197259777","赵","137","","","","","","","","","","","","","","","","","","","","","","","","","","","","","","","","","","","","","","","","","",""
"1084","<p style=""color:rgb(150, 250, 100); font-size: 35px;"">别人</p>","i","categorize-html","185","365666","0.0-6.0-0.0-8.0-1.38","4","4","4","4","4","4","4","3","4","4","4","4","3","5","4","5","4","4","5","4","1","1","1","1","1","2","4","1","2","1","0","1","1","0","0","0","1","0","1","1","0","1","0","1","5","2","4","4","4","5","2","4","2","2","1","753301347197259777","赵","137","","","","","","","","","","","","","","","","","","","true","4","4","ability","1084","other","别人","","","","","","","","","","","","","","","","",""
"null","","null","html-keyboard-response","186","365929","0.0-6.0-0.0-8.0-0.39","4","4","4","4","4","4","4","3","4","4","4","4","3","5","4","5","4","4","5","4","1","1","1","1","1","2","4","1","2","1","0","1","1","0","0","0","1","0","1","1","0","1","0","1","5","2","4","4","4","5","2","4","2","2","1","753301347197259777","赵","137","","","","","","","","","","","","","","","","","","","","","","","","","","","","","","","","","","","","","","","","","",""
"755","<p style=""color:white; font-size: 35px;"">低能</p>","e","categorize-html","187","366687","0.0-6.0-0.0-8.0-1.39","4","4","4","4","4","4","4","3","4","4","4","4","3","5","4","5","4","4","5","4","1","1","1","1","1","2","4","1","2","1","0","1","1","0","0","0","1","0","1","1","0","1","0","1","5","2","4","4","4","5","2","4","2","2","1","753301347197259777","赵","137","","","","","","","","","","","","","","","","","","","true","4","4","ability","755","negative","低能","","","","","","","","","","","","","","","","",""
"null","","null","html-keyboard-response","188","366952","0.0-6.0-0.0-8.0-0.40","4","4","4","4","4","4","4","3","4","4","4","4","3","5","4","5","4","4","5","4","1","1","1","1","1","2","4","1","2","1","0","1","1","0","0","0","1","0","1","1","0","1","0","1","5","2","4","4","4","5","2","4","2","2","1","753301347197259777","赵","137","","","","","","","","","","","","","","","","","","","","","","","","","","","","","","","","","","","","","","","","","",""
"697","<p style=""color:rgb(150, 250, 100); font-size: 35px;"">我</p>","e","categorize-html","189","367651","0.0-6.0-0.0-8.0-1.40","4","4","4","4","4","4","4","3","4","4","4","4","3","5","4","5","4","4","5","4","1","1","1","1","1","2","4","1","2","1","0","1","1","0","0","0","1","0","1","1","0","1","0","1","5","2","4","4","4","5","2","4","2","2","1","753301347197259777","赵","137","","","","","","","","","","","","","","","","","","","true","4","4","ability","697","self","我","","","","","","","","","","","","","","","","",""
"null","","null","html-keyboard-response","190","367907","0.0-6.0-0.0-8.0-0.41","4","4","4","4","4","4","4","3","4","4","4","4","3","5","4","5","4","4","5","4","1","1","1","1","1","2","4","1","2","1","0","1","1","0","0","0","1","0","1","1","0","1","0","1","5","2","4","4","4","5","2","4","2","2","1","753301347197259777","赵","137","","","","","","","","","","","","","","","","","","","","","","","","","","","","","","","","","","","","","","","","","",""
"619","<p style=""color:white; font-size: 35px;"">废物</p>","e","categorize-html","191","368528","0.0-6.0-0.0-8.0-1.41","4","4","4","4","4","4","4","3","4","4","4","4","3","5","4","5","4","4","5","4","1","1","1","1","1","2","4","1","2","1","0","1","1","0","0","0","1","0","1","1","0","1","0","1","5","2","4","4","4","5","2","4","2","2","1","753301347197259777","赵","137","","","","","","","","","","","","","","","","","","","true","4","4","ability","619","negative","废物","","","","","","","","","","","","","","","","",""
"null","","null","html-keyboard-response","192","368792","0.0-6.0-0.0-8.0-0.42","4","4","4","4","4","4","4","3","4","4","4","4","3","5","4","5","4","4","5","4","1","1","1","1","1","2","4","1","2","1","0","1","1","0","0","0","1","0","1","1","0","1","0","1","5","2","4","4","4","5","2","4","2","2","1","753301347197259777","赵","137","","","","","","","","","","","","","","","","","","","","","","","","","","","","","","","","","","","","","","","","","",""
