"rt","stimulus","response","trial_type","trial_index","time_elapsed","internal_node_id","ses_1","ses_2","ses_3","ses_4","ses_5","ses_6","ses_7","ses_8","ses_9","ses_10","coreself_1","coreself_2","coreself_3","coreself_4","coreself_5","coreself_6","coreself_7","coreself_8","coreself_9","coreself_10","SGPS_1","SGPS_2","SGPS_3","SGPS_4","SGPS_5","SGPS_6","SGPS_7","SGPS_8","SGPS_9","NPI1","NPI2","NPI3","NPI4","NPI5","NPI6","NPI7","NPI8","NPI9","NPI10","NPI11","NPI12","NPI13","NPI14","NPI15","hsns_1","hsns_2","hsns_3","hsns_4","hsns_5","trap1","hsns_6","hsns_7","hsns_8","hsns_9","hsns_10","subj_idx","friend_name","ParticipantID","value","success","user_agent","responses","item_order","radio_event_ids","radio_event_times","key_event_times","mouse_event_times","straightlining","zigzagging","honeypot","timeout","failed_images","failed_audio","failed_video","version_attrib","version_target","correct","IAT","screen_id","task_id","RT","condition","word","varname","summary","version_attrib2","version_target2","time_stamp","view_history","response_type","key_press","avg_frame_time","center_x","center_y","correct_response","identity","Image","question_order","correct_answer","trap1_item"
"16109","
   <p><div style = ""color: white;font-size:25px;"">您好，欢迎参加本次实验。</div> </p>
   <p><div style = ""color: white;font-size:25px;"">为充分保障您的权利，请确保您已经知晓并同意《参与实验同意书》以及《数据公开知情同意书》。</div></p>
   <p><div style = ""color: white;font-size:25px;"">如果您未见过上述内容，请咨询实验员。</div></p>
   <p><div style = ""color: white;font-size:25px;"">如果您选择继续实验，则表示您已经清楚两份知情同意书的内容并同意。</div></p>
   <p><div style = ""color: pink;font-size:30px;"">请确保您记得day0的实验编号，您将在本次实验输入该编号，若您忘记，请咨询实验员后作答。</div></p>
   <p><div style = ""color: lightblue;font-size:25px;"">请您尽可能认真地作答，我们将依据您在各问卷和按键任务中的作答质量发放报酬。</div></p>
   <p> <div style = ""color: green;font-size:25px;""><按空格键至下页></div> </p>
   "," ","html-keyboard-response","0","16111","0.0-0.0","3","3","3","3","3","3","3","3","3","2","4","2","2","4","4","4","4","4","4","4","4","4","4","4","4","4","4","4","4","1","0","1","1","0","0","1","1","1","1","1","0","1","0","1","4","2","2","2","4","5","2","4","4","4","4","718769387863015424","黄","442","","","","","","","","","","","","","","","","","","","","","","","","","","","","","","","","","","","","","","","","","",""
"","","","call-function","1","16112","0.0-1.0-0.0","3","3","3","3","3","3","3","3","3","2","4","2","2","4","4","4","4","4","4","4","4","4","4","4","4","4","4","4","4","1","0","1","1","0","0","1","1","1","1","1","0","1","0","1","4","2","2","2","4","5","2","4","4","4","4","718769387863015424","黄","442","","","","","","","","","","","","","","","","","","","","","","","","","","","","","","","","","","","","","","","","","",""
"24939","","{""friend_name"":""黄"",""ParticipantID"":""442""}","survey-html-form","2","41051","0.0-1.0-1.0","3","3","3","3","3","3","3","3","3","2","4","2","2","4","4","4","4","4","4","4","4","4","4","4","4","4","4","4","4","1","0","1","1","0","0","1","1","1","1","1","0","1","0","1","4","2","2","2","4","5","2","4","4","4","4","718769387863015424","黄","442","","","","","","","","","","","","","","","","","","","","","","","","","","","","","","","","","","","","","","","","","",""
"","","","fullscreen","3","55376","0.0-2.0","3","3","3","3","3","3","3","3","3","2","4","2","2","4","4","4","4","4","4","4","4","4","4","4","4","4","4","4","4","1","0","1","1","0","0","1","1","1","1","1","0","1","0","1","4","2","2","2","4","5","2","4","4","4","4","718769387863015424","黄","442","","true","{}","","","","","","","","","","","","","","","","","","","","","","","","","","","","","","","","","","","","","","",""
"26714.600000023842","","{""Q01"":""3"",""Q02"":""3"",""Q03"":""3"",""Q04"":""3"",""Q05"":""3"",""Q06"":""3"",""Q07"":""3"",""Q08"":""3"",""Q09"":""3"",""Q10"":""2""}","survey-template","4","82092","0.0-3.0","3","3","3","3","3","3","3","3","3","2","4","2","2","4","4","4","4","4","4","4","4","4","4","4","4","4","4","4","4","1","0","1","1","0","0","1","1","1","1","1","0","1","0","1","4","2","2","2","4","5","2","4","4","4","4","718769387863015424","黄","442","","","","{""Q01"":""3"",""Q02"":""3"",""Q03"":""3"",""Q04"":""3"",""Q05"":""3"",""Q06"":""3"",""Q07"":""3"",""Q08"":""3"",""Q09"":""3"",""Q10"":""2""}","[0,1,2,3,4,5,6,7,8,9]","[""Q01"",""Q02"",""Q03"",""Q04"",""Q05"",""Q06"",""Q07"",""Q08"",""Q08"",""Q09"",""Q10""]","[2121.899999976158,5466.100000023842,6914,8378,10618.100000023842,11674,12394,13017.899999976158,13946,15074.299999952316,15986]","[]","[2121.899999976158,5466.100000023842,6914,8378,10618.100000023842,11674,12394,13017.899999976158,13946,15074.299999952316,15986,26714]","0.6","0.6666666666666666","0","","","","","","","","","","","","","","","","","","","","","","","","","","","","","",""
"21812.700000047684","","{""Q01"":""4"",""Q02"":""2"",""Q03"":""2"",""Q04"":""4"",""Q05"":""4"",""Q06"":""4"",""Q07"":""4"",""Q08"":""4"",""Q09"":""4"",""Q10"":""4""}","survey-template","5","103908","0.0-4.0","3","3","3","3","3","3","3","3","3","2","4","2","2","4","4","4","4","4","4","4","4","4","4","4","4","4","4","4","4","1","0","1","1","0","0","1","1","1","1","1","0","1","0","1","4","2","2","2","4","5","2","4","4","4","4","718769387863015424","黄","442","","","","{""Q01"":""4"",""Q02"":""2"",""Q03"":""2"",""Q04"":""4"",""Q05"":""4"",""Q06"":""4"",""Q07"":""4"",""Q08"":""4"",""Q09"":""4"",""Q10"":""4""}","[0,1,2,3,4,5,6,7,8,9]","[""Q01"",""Q02"",""Q03"",""Q04"",""Q05"",""Q06"",""Q07"",""Q08"",""Q09"",""Q10""]","[3636.100000023842,6140,6556.200000047684,7820.100000023842,12724.100000023842,13516,14540,16844.100000023842,19684.100000023842,21100]","[]","[3636.100000023842,5508.100000023842,6140,6556.200000047684,7820.100000023842,9652.200000047684,11708,12724.100000023842,13516,14540,16844.100000023842,17980.100000023842,18811.799999952316,19684.100000023842,20564,21100,21812]","0.6","0","0","","","","","","","","","","","","","","","","","","","","","","","","","","","","","",""
"","","","preload","6","104692","0.0-5.0","3","3","3","3","3","3","3","3","3","2","4","2","2","4","4","4","4","4","4","4","4","4","4","4","4","4","4","4","4","1","0","1","1","0","0","1","1","1","1","1","0","1","0","1","4","2","2","2","4","5","2","4","4","4","4","718769387863015424","黄","442","","true","","","","","","","","","","","false","[]","[]","[]","","","","","","","","","","","","","","","","","","","","","","","","","",""
"12951","
    <h3>词语分类任务</h3>
    <p>在接下来的任务中，你需要对一系列词语进行分类。</p>
    <p>请先熟悉这些词语，这有利于你完成接下来的任务。</p>
    <table align=""center"" border=1 cellpadding=3 cellspacing=0>
    <tr> <th>类别</th> <th>词语</th> </tr>
    <tr> <td>&emsp;积极&emsp;</td> <td>&emsp;能干、全能、全才、高效、精干、天才&emsp;</td> </tr>
    <tr> <td>&emsp;消极&emsp;</td> <td>&emsp;无能、低能、废物、拙笨、愚钝、蠢笨&emsp;</td> </tr>
    <tr> <td>&emsp;自我&emsp;</td> <td>&emsp;我、我的、自己、自己的、本人、本人的&emsp;</td> </tr>
    <tr> <td>&emsp;他人&emsp;</td> <td>&emsp;他、他的、别人、别人的、他人、他人的&emsp;</td> </tr>
    </table><br/>","0","html-button-response","7","117643","0.0-6.0-0.0-0.0","3","3","3","3","3","3","3","3","3","2","4","2","2","4","4","4","4","4","4","4","4","4","4","4","4","4","4","4","4","1","0","1","1","0","0","1","1","1","1","1","0","1","0","1","4","2","2","2","4","5","2","4","4","4","4","718769387863015424","黄","442","","","","","","","","","","","","","","","","","1","2","","","","","","","","","","","","","","","","","","","","","","","",""
"9170","
    <div class=""tag-bottom"">
    <p> —— 任务1：对“他人”词和“自我”词分类 ——<p/>
    不同词语会出现在屏幕中央，类别标签将始终显示在屏幕上方<p/>   
    <span style=""color:#FFD866""><b>请根据上方标签的提示，尽可能正确并且快速地做出按键反应</b></span><p/>
    当按键错误时屏幕中会出现<span style=""color:red""> X </span>，需要按另一个键纠正才能继续<br/><p/>
    请把双手食指分别放在键盘的“E”键和“I”键上<p/>
    按<空格键>开始
    </p></div>"," ","html-keyboard-response","8","126815","0.0-6.0-0.0-1.0","3","3","3","3","3","3","3","3","3","2","4","2","2","4","4","4","4","4","4","4","4","4","4","4","4","4","4","4","4","1","0","1","1","0","0","1","1","1","1","1","0","1","0","1","4","2","2","2","4","5","2","4","4","4","4","718769387863015424","黄","442","","","","","","","","","","","","","","","","","","","","","","","","","","","","","","","","","","","","","","","","","",""
"null","","null","html-keyboard-response","9","127066","0.0-6.0-0.0-2.0-0.0","3","3","3","3","3","3","3","3","3","2","4","2","2","4","4","4","4","4","4","4","4","4","4","4","4","4","4","4","4","1","0","1","1","0","0","1","1","1","1","1","0","1","0","1","4","2","2","2","4","5","2","4","4","4","4","718769387863015424","黄","442","","","","","","","","","","","","","","","","","","","","","","","","","","","","","","","","","","","","","","","","","",""
"955","<p style=""color:rgb(150, 250, 100); font-size: 35px;"">我的</p>","i","categorize-html","10","128023","0.0-6.0-0.0-2.0-1.0","3","3","3","3","3","3","3","3","3","2","4","2","2","4","4","4","4","4","4","4","4","4","4","4","4","4","4","4","4","1","0","1","1","0","0","1","1","1","1","1","0","1","0","1","4","2","2","2","4","5","2","4","4","4","4","718769387863015424","黄","442","","","","","","","","","","","","","","","","","","","true","1","1","ability","955","self","我的","","","","","","","","","","","","","","","","",""
"null","","null","html-keyboard-response","11","128273","0.0-6.0-0.0-2.0-0.1","3","3","3","3","3","3","3","3","3","2","4","2","2","4","4","4","4","4","4","4","4","4","4","4","4","4","4","4","4","1","0","1","1","0","0","1","1","1","1","1","0","1","0","1","4","2","2","2","4","5","2","4","4","4","4","718769387863015424","黄","442","","","","","","","","","","","","","","","","","","","","","","","","","","","","","","","","","","","","","","","","","",""
"602","<p style=""color:rgb(150, 250, 100); font-size: 35px;"">本人</p>","i","categorize-html","12","128877","0.0-6.0-0.0-2.0-1.1","3","3","3","3","3","3","3","3","3","2","4","2","2","4","4","4","4","4","4","4","4","4","4","4","4","4","4","4","4","1","0","1","1","0","0","1","1","1","1","1","0","1","0","1","4","2","2","2","4","5","2","4","4","4","4","718769387863015424","黄","442","","","","","","","","","","","","","","","","","","","true","1","1","ability","602","self","本人","","","","","","","","","","","","","","","","",""
"null","","null","html-keyboard-response","13","129128","0.0-6.0-0.0-2.0-0.2","3","3","3","3","3","3","3","3","3","2","4","2","2","4","4","4","4","4","4","4","4","4","4","4","4","4","4","4","4","1","0","1","1","0","0","1","1","1","1","1","0","1","0","1","4","2","2","2","4","5","2","4","4","4","4","718769387863015424","黄","442","","","","","","","","","","","","","","","","","","","","","","","","","","","","","","","","","","","","","","","","","",""
"502","<p style=""color:rgb(150, 250, 100); font-size: 35px;"">他</p>","e","categorize-html","14","129631","0.0-6.0-0.0-2.0-1.2","3","3","3","3","3","3","3","3","3","2","4","2","2","4","4","4","4","4","4","4","4","4","4","4","4","4","4","4","4","1","0","1","1","0","0","1","1","1","1","1","0","1","0","1","4","2","2","2","4","5","2","4","4","4","4","718769387863015424","黄","442","","","","","","","","","","","","","","","","","","","true","1","1","ability","502","other","他","","","","","","","","","","","","","","","","",""
"null","","null","html-keyboard-response","15","129882","0.0-6.0-0.0-2.0-0.3","3","3","3","3","3","3","3","3","3","2","4","2","2","4","4","4","4","4","4","4","4","4","4","4","4","4","4","4","4","1","0","1","1","0","0","1","1","1","1","1","0","1","0","1","4","2","2","2","4","5","2","4","4","4","4","718769387863015424","黄","442","","","","","","","","","","","","","","","","","","","","","","","","","","","","","","","","","","","","","","","","","",""
"468","<p style=""color:rgb(150, 250, 100); font-size: 35px;"">我</p>","i","categorize-html","16","130351","0.0-6.0-0.0-2.0-1.3","3","3","3","3","3","3","3","3","3","2","4","2","2","4","4","4","4","4","4","4","4","4","4","4","4","4","4","4","4","1","0","1","1","0","0","1","1","1","1","1","0","1","0","1","4","2","2","2","4","5","2","4","4","4","4","718769387863015424","黄","442","","","","","","","","","","","","","","","","","","","true","1","1","ability","468","self","我","","","","","","","","","","","","","","","","",""
"null","","null","html-keyboard-response","17","130601","0.0-6.0-0.0-2.0-0.4","3","3","3","3","3","3","3","3","3","2","4","2","2","4","4","4","4","4","4","4","4","4","4","4","4","4","4","4","4","1","0","1","1","0","0","1","1","1","1","1","0","1","0","1","4","2","2","2","4","5","2","4","4","4","4","718769387863015424","黄","442","","","","","","","","","","","","","","","","","","","","","","","","","","","","","","","","","","","","","","","","","",""
"593","<p style=""color:rgb(150, 250, 100); font-size: 35px;"">他人</p>","e","categorize-html","18","131196","0.0-6.0-0.0-2.0-1.4","3","3","3","3","3","3","3","3","3","2","4","2","2","4","4","4","4","4","4","4","4","4","4","4","4","4","4","4","4","1","0","1","1","0","0","1","1","1","1","1","0","1","0","1","4","2","2","2","4","5","2","4","4","4","4","718769387863015424","黄","442","","","","","","","","","","","","","","","","","","","true","1","1","ability","593","other","他人","","","","","","","","","","","","","","","","",""
"null","","null","html-keyboard-response","19","131446","0.0-6.0-0.0-2.0-0.5","3","3","3","3","3","3","3","3","3","2","4","2","2","4","4","4","4","4","4","4","4","4","4","4","4","4","4","4","4","1","0","1","1","0","0","1","1","1","1","1","0","1","0","1","4","2","2","2","4","5","2","4","4","4","4","718769387863015424","黄","442","","","","","","","","","","","","","","","","","","","","","","","","","","","","","","","","","","","","","","","","","",""
"528","<p style=""color:rgb(150, 250, 100); font-size: 35px;"">他的</p>","e","categorize-html","20","131975","0.0-6.0-0.0-2.0-1.5","3","3","3","3","3","3","3","3","3","2","4","2","2","4","4","4","4","4","4","4","4","4","4","4","4","4","4","4","4","1","0","1","1","0","0","1","1","1","1","1","0","1","0","1","4","2","2","2","4","5","2","4","4","4","4","718769387863015424","黄","442","","","","","","","","","","","","","","","","","","","true","1","1","ability","528","other","他的","","","","","","","","","","","","","","","","",""
"null","","null","html-keyboard-response","21","132226","0.0-6.0-0.0-2.0-0.6","3","3","3","3","3","3","3","3","3","2","4","2","2","4","4","4","4","4","4","4","4","4","4","4","4","4","4","4","4","1","0","1","1","0","0","1","1","1","1","1","0","1","0","1","4","2","2","2","4","5","2","4","4","4","4","718769387863015424","黄","442","","","","","","","","","","","","","","","","","","","","","","","","","","","","","","","","","","","","","","","","","",""
"548","<p style=""color:rgb(150, 250, 100); font-size: 35px;"">自己的</p>","i","categorize-html","22","132775","0.0-6.0-0.0-2.0-1.6","3","3","3","3","3","3","3","3","3","2","4","2","2","4","4","4","4","4","4","4","4","4","4","4","4","4","4","4","4","1","0","1","1","0","0","1","1","1","1","1","0","1","0","1","4","2","2","2","4","5","2","4","4","4","4","718769387863015424","黄","442","","","","","","","","","","","","","","","","","","","true","1","1","ability","548","self","自己的","","","","","","","","","","","","","","","","",""
"null","","null","html-keyboard-response","23","133025","0.0-6.0-0.0-2.0-0.7","3","3","3","3","3","3","3","3","3","2","4","2","2","4","4","4","4","4","4","4","4","4","4","4","4","4","4","4","4","1","0","1","1","0","0","1","1","1","1","1","0","1","0","1","4","2","2","2","4","5","2","4","4","4","4","718769387863015424","黄","442","","","","","","","","","","","","","","","","","","","","","","","","","","","","","","","","","","","","","","","","","",""
"617","<p style=""color:rgb(150, 250, 100); font-size: 35px;"">别人的</p>","e","categorize-html","24","133643","0.0-6.0-0.0-2.0-1.7","3","3","3","3","3","3","3","3","3","2","4","2","2","4","4","4","4","4","4","4","4","4","4","4","4","4","4","4","4","1","0","1","1","0","0","1","1","1","1","1","0","1","0","1","4","2","2","2","4","5","2","4","4","4","4","718769387863015424","黄","442","","","","","","","","","","","","","","","","","","","true","1","1","ability","617","other","别人的","","","","","","","","","","","","","","","","",""
"null","","null","html-keyboard-response","25","133894","0.0-6.0-0.0-2.0-0.8","3","3","3","3","3","3","3","3","3","2","4","2","2","4","4","4","4","4","4","4","4","4","4","4","4","4","4","4","4","1","0","1","1","0","0","1","1","1","1","1","0","1","0","1","4","2","2","2","4","5","2","4","4","4","4","718769387863015424","黄","442","","","","","","","","","","","","","","","","","","","","","","","","","","","","","","","","","","","","","","","","","",""
"802","<p style=""color:rgb(150, 250, 100); font-size: 35px;"">别人</p>","e","categorize-html","26","134696","0.0-6.0-0.0-2.0-1.8","3","3","3","3","3","3","3","3","3","2","4","2","2","4","4","4","4","4","4","4","4","4","4","4","4","4","4","4","4","1","0","1","1","0","0","1","1","1","1","1","0","1","0","1","4","2","2","2","4","5","2","4","4","4","4","718769387863015424","黄","442","","","","","","","","","","","","","","","","","","","true","1","1","ability","802","other","别人","","","","","","","","","","","","","","","","",""
"null","","null","html-keyboard-response","27","134947","0.0-6.0-0.0-2.0-0.9","3","3","3","3","3","3","3","3","3","2","4","2","2","4","4","4","4","4","4","4","4","4","4","4","4","4","4","4","4","1","0","1","1","0","0","1","1","1","1","1","0","1","0","1","4","2","2","2","4","5","2","4","4","4","4","718769387863015424","黄","442","","","","","","","","","","","","","","","","","","","","","","","","","","","","","","","","","","","","","","","","","",""
"480","<p style=""color:rgb(150, 250, 100); font-size: 35px;"">本人的</p>","i","categorize-html","28","135428","0.0-6.0-0.0-2.0-1.9","3","3","3","3","3","3","3","3","3","2","4","2","2","4","4","4","4","4","4","4","4","4","4","4","4","4","4","4","4","1","0","1","1","0","0","1","1","1","1","1","0","1","0","1","4","2","2","2","4","5","2","4","4","4","4","718769387863015424","黄","442","","","","","","","","","","","","","","","","","","","true","1","1","ability","480","self","本人的","","","","","","","","","","","","","","","","",""
"null","","null","html-keyboard-response","29","135679","0.0-6.0-0.0-2.0-0.10","3","3","3","3","3","3","3","3","3","2","4","2","2","4","4","4","4","4","4","4","4","4","4","4","4","4","4","4","4","1","0","1","1","0","0","1","1","1","1","1","0","1","0","1","4","2","2","2","4","5","2","4","4","4","4","718769387863015424","黄","442","","","","","","","","","","","","","","","","","","","","","","","","","","","","","","","","","","","","","","","","","",""
"567","<p style=""color:rgb(150, 250, 100); font-size: 35px;"">他人的</p>","e","categorize-html","30","136247","0.0-6.0-0.0-2.0-1.10","3","3","3","3","3","3","3","3","3","2","4","2","2","4","4","4","4","4","4","4","4","4","4","4","4","4","4","4","4","1","0","1","1","0","0","1","1","1","1","1","0","1","0","1","4","2","2","2","4","5","2","4","4","4","4","718769387863015424","黄","442","","","","","","","","","","","","","","","","","","","true","1","1","ability","567","other","他人的","","","","","","","","","","","","","","","","",""
"null","","null","html-keyboard-response","31","136497","0.0-6.0-0.0-2.0-0.11","3","3","3","3","3","3","3","3","3","2","4","2","2","4","4","4","4","4","4","4","4","4","4","4","4","4","4","4","4","1","0","1","1","0","0","1","1","1","1","1","0","1","0","1","4","2","2","2","4","5","2","4","4","4","4","718769387863015424","黄","442","","","","","","","","","","","","","","","","","","","","","","","","","","","","","","","","","","","","","","","","","",""
"529","<p style=""color:rgb(150, 250, 100); font-size: 35px;"">自己</p>","i","categorize-html","32","137027","0.0-6.0-0.0-2.0-1.11","3","3","3","3","3","3","3","3","3","2","4","2","2","4","4","4","4","4","4","4","4","4","4","4","4","4","4","4","4","1","0","1","1","0","0","1","1","1","1","1","0","1","0","1","4","2","2","2","4","5","2","4","4","4","4","718769387863015424","黄","442","","","","","","","","","","","","","","","","","","","true","1","1","ability","529","self","自己","","","","","","","","","","","","","","","","",""
"4701","
    <div class=""tag-bottom""><p>
    —— 任务2：对“积极”词和“消极”词分类 ——<p/>   
    <span style=""color:#78DCE8""><b>注意上方，类别标签和需要分类的词语都已经改变</b></span><p/>
    <span style=""color:#FFD866""><b>请根据上方标签的提示，尽可能正确并且快速地做出按键反应</b></span><p/>
    当按键错误时屏幕中会出现<span style=""color:red""> X </span>，需要按另一个键纠正才能继续<br/><p/>
    请把双手食指分别放在键盘的“E”键和“I”键上<p/>
    按<空格键>开始
    </p></div>"," ","html-keyboard-response","33","141728","0.0-6.0-0.0-3.0","3","3","3","3","3","3","3","3","3","2","4","2","2","4","4","4","4","4","4","4","4","4","4","4","4","4","4","4","4","1","0","1","1","0","0","1","1","1","1","1","0","1","0","1","4","2","2","2","4","5","2","4","4","4","4","718769387863015424","黄","442","","","","","","","","","","","","","","","","","","","","","","","","","","","","","","","","","","","","","","","","","",""
"null","","null","html-keyboard-response","34","141979","0.0-6.0-0.0-4.0-0.0","3","3","3","3","3","3","3","3","3","2","4","2","2","4","4","4","4","4","4","4","4","4","4","4","4","4","4","4","4","1","0","1","1","0","0","1","1","1","1","1","0","1","0","1","4","2","2","2","4","5","2","4","4","4","4","718769387863015424","黄","442","","","","","","","","","","","","","","","","","","","","","","","","","","","","","","","","","","","","","","","","","",""
"1283","<p style=""color:white; font-size: 35px;"">愚钝</p>","i","categorize-html","35","143262","0.0-6.0-0.0-4.0-1.0","3","3","3","3","3","3","3","3","3","2","4","2","2","4","4","4","4","4","4","4","4","4","4","4","4","4","4","4","4","1","0","1","1","0","0","1","1","1","1","1","0","1","0","1","4","2","2","2","4","5","2","4","4","4","4","718769387863015424","黄","442","","","","","","","","","","","","","","","","","","","true","2","2","ability","1283","negative","愚钝","","","","","","","","","","","","","","","","",""
"null","","null","html-keyboard-response","36","143513","0.0-6.0-0.0-4.0-0.1","3","3","3","3","3","3","3","3","3","2","4","2","2","4","4","4","4","4","4","4","4","4","4","4","4","4","4","4","4","1","0","1","1","0","0","1","1","1","1","1","0","1","0","1","4","2","2","2","4","5","2","4","4","4","4","718769387863015424","黄","442","","","","","","","","","","","","","","","","","","","","","","","","","","","","","","","","","","","","","","","","","",""
"615","<p style=""color:white; font-size: 35px;"">废物</p>","i","categorize-html","37","144129","0.0-6.0-0.0-4.0-1.1","3","3","3","3","3","3","3","3","3","2","4","2","2","4","4","4","4","4","4","4","4","4","4","4","4","4","4","4","4","1","0","1","1","0","0","1","1","1","1","1","0","1","0","1","4","2","2","2","4","5","2","4","4","4","4","718769387863015424","黄","442","","","","","","","","","","","","","","","","","","","true","2","2","ability","615","negative","废物","","","","","","","","","","","","","","","","",""
"null","","null","html-keyboard-response","38","144380","0.0-6.0-0.0-4.0-0.2","3","3","3","3","3","3","3","3","3","2","4","2","2","4","4","4","4","4","4","4","4","4","4","4","4","4","4","4","4","1","0","1","1","0","0","1","1","1","1","1","0","1","0","1","4","2","2","2","4","5","2","4","4","4","4","718769387863015424","黄","442","","","","","","","","","","","","","","","","","","","","","","","","","","","","","","","","","","","","","","","","","",""
"528","<p style=""color:white; font-size: 35px;"">无能</p>","i","categorize-html","39","144909","0.0-6.0-0.0-4.0-1.2","3","3","3","3","3","3","3","3","3","2","4","2","2","4","4","4","4","4","4","4","4","4","4","4","4","4","4","4","4","1","0","1","1","0","0","1","1","1","1","1","0","1","0","1","4","2","2","2","4","5","2","4","4","4","4","718769387863015424","黄","442","","","","","","","","","","","","","","","","","","","true","2","2","ability","528","negative","无能","","","","","","","","","","","","","","","","",""
"null","","null","html-keyboard-response","40","145159","0.0-6.0-0.0-4.0-0.3","3","3","3","3","3","3","3","3","3","2","4","2","2","4","4","4","4","4","4","4","4","4","4","4","4","4","4","4","4","1","0","1","1","0","0","1","1","1","1","1","0","1","0","1","4","2","2","2","4","5","2","4","4","4","4","718769387863015424","黄","442","","","","","","","","","","","","","","","","","","","","","","","","","","","","","","","","","","","","","","","","","",""
"446","<p style=""color:white; font-size: 35px;"">拙笨</p>","i","categorize-html","41","145607","0.0-6.0-0.0-4.0-1.3","3","3","3","3","3","3","3","3","3","2","4","2","2","4","4","4","4","4","4","4","4","4","4","4","4","4","4","4","4","1","0","1","1","0","0","1","1","1","1","1","0","1","0","1","4","2","2","2","4","5","2","4","4","4","4","718769387863015424","黄","442","","","","","","","","","","","","","","","","","","","true","2","2","ability","446","negative","拙笨","","","","","","","","","","","","","","","","",""
"null","","null","html-keyboard-response","42","145857","0.0-6.0-0.0-4.0-0.4","3","3","3","3","3","3","3","3","3","2","4","2","2","4","4","4","4","4","4","4","4","4","4","4","4","4","4","4","4","1","0","1","1","0","0","1","1","1","1","1","0","1","0","1","4","2","2","2","4","5","2","4","4","4","4","718769387863015424","黄","442","","","","","","","","","","","","","","","","","","","","","","","","","","","","","","","","","","","","","","","","","",""
"616","<p style=""color:white; font-size: 35px;"">能干</p>","e","categorize-html","43","146475","0.0-6.0-0.0-4.0-1.4","3","3","3","3","3","3","3","3","3","2","4","2","2","4","4","4","4","4","4","4","4","4","4","4","4","4","4","4","4","1","0","1","1","0","0","1","1","1","1","1","0","1","0","1","4","2","2","2","4","5","2","4","4","4","4","718769387863015424","黄","442","","","","","","","","","","","","","","","","","","","true","2","2","ability","616","positive","能干","","","","","","","","","","","","","","","","",""
"null","","null","html-keyboard-response","44","146726","0.0-6.0-0.0-4.0-0.5","3","3","3","3","3","3","3","3","3","2","4","2","2","4","4","4","4","4","4","4","4","4","4","4","4","4","4","4","4","1","0","1","1","0","0","1","1","1","1","1","0","1","0","1","4","2","2","2","4","5","2","4","4","4","4","718769387863015424","黄","442","","","","","","","","","","","","","","","","","","","","","","","","","","","","","","","","","","","","","","","","","",""
"491","<p style=""color:white; font-size: 35px;"">低能</p>","i","categorize-html","45","147217","0.0-6.0-0.0-4.0-1.5","3","3","3","3","3","3","3","3","3","2","4","2","2","4","4","4","4","4","4","4","4","4","4","4","4","4","4","4","4","1","0","1","1","0","0","1","1","1","1","1","0","1","0","1","4","2","2","2","4","5","2","4","4","4","4","718769387863015424","黄","442","","","","","","","","","","","","","","","","","","","true","2","2","ability","491","negative","低能","","","","","","","","","","","","","","","","",""
"null","","null","html-keyboard-response","46","147468","0.0-6.0-0.0-4.0-0.6","3","3","3","3","3","3","3","3","3","2","4","2","2","4","4","4","4","4","4","4","4","4","4","4","4","4","4","4","4","1","0","1","1","0","0","1","1","1","1","1","0","1","0","1","4","2","2","2","4","5","2","4","4","4","4","718769387863015424","黄","442","","","","","","","","","","","","","","","","","","","","","","","","","","","","","","","","","","","","","","","","","",""
"602","<p style=""color:white; font-size: 35px;"">精干</p>","e","categorize-html","47","148070","0.0-6.0-0.0-4.0-1.6","3","3","3","3","3","3","3","3","3","2","4","2","2","4","4","4","4","4","4","4","4","4","4","4","4","4","4","4","4","1","0","1","1","0","0","1","1","1","1","1","0","1","0","1","4","2","2","2","4","5","2","4","4","4","4","718769387863015424","黄","442","","","","","","","","","","","","","","","","","","","true","2","2","ability","602","positive","精干","","","","","","","","","","","","","","","","",""
"null","","null","html-keyboard-response","48","148321","0.0-6.0-0.0-4.0-0.7","3","3","3","3","3","3","3","3","3","2","4","2","2","4","4","4","4","4","4","4","4","4","4","4","4","4","4","4","4","1","0","1","1","0","0","1","1","1","1","1","0","1","0","1","4","2","2","2","4","5","2","4","4","4","4","718769387863015424","黄","442","","","","","","","","","","","","","","","","","","","","","","","","","","","","","","","","","","","","","","","","","",""
"571","<p style=""color:white; font-size: 35px;"">蠢笨</p>","i","categorize-html","49","148894","0.0-6.0-0.0-4.0-1.7","3","3","3","3","3","3","3","3","3","2","4","2","2","4","4","4","4","4","4","4","4","4","4","4","4","4","4","4","4","1","0","1","1","0","0","1","1","1","1","1","0","1","0","1","4","2","2","2","4","5","2","4","4","4","4","718769387863015424","黄","442","","","","","","","","","","","","","","","","","","","true","2","2","ability","571","negative","蠢笨","","","","","","","","","","","","","","","","",""
"null","","null","html-keyboard-response","50","149144","0.0-6.0-0.0-4.0-0.8","3","3","3","3","3","3","3","3","3","2","4","2","2","4","4","4","4","4","4","4","4","4","4","4","4","4","4","4","4","1","0","1","1","0","0","1","1","1","1","1","0","1","0","1","4","2","2","2","4","5","2","4","4","4","4","718769387863015424","黄","442","","","","","","","","","","","","","","","","","","","","","","","","","","","","","","","","","","","","","","","","","",""
"561","<p style=""color:white; font-size: 35px;"">高效</p>","e","categorize-html","51","149706","0.0-6.0-0.0-4.0-1.8","3","3","3","3","3","3","3","3","3","2","4","2","2","4","4","4","4","4","4","4","4","4","4","4","4","4","4","4","4","1","0","1","1","0","0","1","1","1","1","1","0","1","0","1","4","2","2","2","4","5","2","4","4","4","4","718769387863015424","黄","442","","","","","","","","","","","","","","","","","","","true","2","2","ability","561","positive","高效","","","","","","","","","","","","","","","","",""
"null","","null","html-keyboard-response","52","149956","0.0-6.0-0.0-4.0-0.9","3","3","3","3","3","3","3","3","3","2","4","2","2","4","4","4","4","4","4","4","4","4","4","4","4","4","4","4","4","1","0","1","1","0","0","1","1","1","1","1","0","1","0","1","4","2","2","2","4","5","2","4","4","4","4","718769387863015424","黄","442","","","","","","","","","","","","","","","","","","","","","","","","","","","","","","","","","","","","","","","","","",""
"528","<p style=""color:white; font-size: 35px;"">全能</p>","e","categorize-html","53","150485","0.0-6.0-0.0-4.0-1.9","3","3","3","3","3","3","3","3","3","2","4","2","2","4","4","4","4","4","4","4","4","4","4","4","4","4","4","4","4","1","0","1","1","0","0","1","1","1","1","1","0","1","0","1","4","2","2","2","4","5","2","4","4","4","4","718769387863015424","黄","442","","","","","","","","","","","","","","","","","","","true","2","2","ability","528","positive","全能","","","","","","","","","","","","","","","","",""
"null","","null","html-keyboard-response","54","150736","0.0-6.0-0.0-4.0-0.10","3","3","3","3","3","3","3","3","3","2","4","2","2","4","4","4","4","4","4","4","4","4","4","4","4","4","4","4","4","1","0","1","1","0","0","1","1","1","1","1","0","1","0","1","4","2","2","2","4","5","2","4","4","4","4","718769387863015424","黄","442","","","","","","","","","","","","","","","","","","","","","","","","","","","","","","","","","","","","","","","","","",""
"671","<p style=""color:white; font-size: 35px;"">全才</p>","e","categorize-html","55","151407","0.0-6.0-0.0-4.0-1.10","3","3","3","3","3","3","3","3","3","2","4","2","2","4","4","4","4","4","4","4","4","4","4","4","4","4","4","4","4","1","0","1","1","0","0","1","1","1","1","1","0","1","0","1","4","2","2","2","4","5","2","4","4","4","4","718769387863015424","黄","442","","","","","","","","","","","","","","","","","","","true","2","2","ability","671","positive","全才","","","","","","","","","","","","","","","","",""
"null","","null","html-keyboard-response","56","151658","0.0-6.0-0.0-4.0-0.11","3","3","3","3","3","3","3","3","3","2","4","2","2","4","4","4","4","4","4","4","4","4","4","4","4","4","4","4","4","1","0","1","1","0","0","1","1","1","1","1","0","1","0","1","4","2","2","2","4","5","2","4","4","4","4","718769387863015424","黄","442","","","","","","","","","","","","","","","","","","","","","","","","","","","","","","","","","","","","","","","","","",""
"617","<p style=""color:white; font-size: 35px;"">天才</p>","e","categorize-html","57","152275","0.0-6.0-0.0-4.0-1.11","3","3","3","3","3","3","3","3","3","2","4","2","2","4","4","4","4","4","4","4","4","4","4","4","4","4","4","4","4","1","0","1","1","0","0","1","1","1","1","1","0","1","0","1","4","2","2","2","4","5","2","4","4","4","4","718769387863015424","黄","442","","","","","","","","","","","","","","","","","","","true","2","2","ability","617","positive","天才","","","","","","","","","","","","","","","","",""
"3720","
    <div class=""tag-bottom""><p>
    —— 任务3：对“他人/积极”词和“自我/消极”词分类 ——<p/>
    <span style=""color:#78DCE8""><b>注意上方，之前的四类词语将混合在一起交替呈现</b></span><p/>
    <span style=""color:#FFD866""><b>请根据上方标签的提示，尽可能正确并且快速地做出按键反应</b></span><p/>
    当按键错误时屏幕中会出现<span style=""color:red""> X </span>，需要按另一个键纠正才能继续<br/><p/>
    请把双手食指分别放在键盘的“E”键和“I”键上<p/>
    按<空格键>开始
    </p></div>"," ","html-keyboard-response","58","155995","0.0-6.0-0.0-5.0","3","3","3","3","3","3","3","3","3","2","4","2","2","4","4","4","4","4","4","4","4","4","4","4","4","4","4","4","4","1","0","1","1","0","0","1","1","1","1","1","0","1","0","1","4","2","2","2","4","5","2","4","4","4","4","718769387863015424","黄","442","","","","","","","","","","","","","","","","","","","","","","","","","","","","","","","","","","","","","","","","","",""
"null","","null","html-keyboard-response","59","156247","0.0-6.0-0.0-6.0-0.0","3","3","3","3","3","3","3","3","3","2","4","2","2","4","4","4","4","4","4","4","4","4","4","4","4","4","4","4","4","1","0","1","1","0","0","1","1","1","1","1","0","1","0","1","4","2","2","2","4","5","2","4","4","4","4","718769387863015424","黄","442","","","","","","","","","","","","","","","","","","","","","","","","","","","","","","","","","","","","","","","","","",""
"1073","<p style=""color:rgb(150, 250, 100); font-size: 35px;"">他的</p>","e","categorize-html","60","157321","0.0-6.0-0.0-6.0-1.0","3","3","3","3","3","3","3","3","3","2","4","2","2","4","4","4","4","4","4","4","4","4","4","4","4","4","4","4","4","1","0","1","1","0","0","1","1","1","1","1","0","1","0","1","4","2","2","2","4","5","2","4","4","4","4","718769387863015424","黄","442","","","","","","","","","","","","","","","","","","","true","3","3","ability","1073","other","他的","","","","","","","","","","","","","","","","",""
"null","","null","html-keyboard-response","61","157571","0.0-6.0-0.0-6.0-0.1","3","3","3","3","3","3","3","3","3","2","4","2","2","4","4","4","4","4","4","4","4","4","4","4","4","4","4","4","4","1","0","1","1","0","0","1","1","1","1","1","0","1","0","1","4","2","2","2","4","5","2","4","4","4","4","718769387863015424","黄","442","","","","","","","","","","","","","","","","","","","","","","","","","","","","","","","","","","","","","","","","","",""
"642","<p style=""color:white; font-size: 35px;"">愚钝</p>","i","categorize-html","62","158215","0.0-6.0-0.0-6.0-1.1","3","3","3","3","3","3","3","3","3","2","4","2","2","4","4","4","4","4","4","4","4","4","4","4","4","4","4","4","4","1","0","1","1","0","0","1","1","1","1","1","0","1","0","1","4","2","2","2","4","5","2","4","4","4","4","718769387863015424","黄","442","","","","","","","","","","","","","","","","","","","true","3","3","ability","642","negative","愚钝","","","","","","","","","","","","","","","","",""
"null","","null","html-keyboard-response","63","158465","0.0-6.0-0.0-6.0-0.2","3","3","3","3","3","3","3","3","3","2","4","2","2","4","4","4","4","4","4","4","4","4","4","4","4","4","4","4","4","1","0","1","1","0","0","1","1","1","1","1","0","1","0","1","4","2","2","2","4","5","2","4","4","4","4","718769387863015424","黄","442","","","","","","","","","","","","","","","","","","","","","","","","","","","","","","","","","","","","","","","","","",""
"571","<p style=""color:rgb(150, 250, 100); font-size: 35px;"">自己</p>","i","categorize-html","64","159037","0.0-6.0-0.0-6.0-1.2","3","3","3","3","3","3","3","3","3","2","4","2","2","4","4","4","4","4","4","4","4","4","4","4","4","4","4","4","4","1","0","1","1","0","0","1","1","1","1","1","0","1","0","1","4","2","2","2","4","5","2","4","4","4","4","718769387863015424","黄","442","","","","","","","","","","","","","","","","","","","true","3","3","ability","571","self","自己","","","","","","","","","","","","","","","","",""
"null","","null","html-keyboard-response","65","159287","0.0-6.0-0.0-6.0-0.3","3","3","3","3","3","3","3","3","3","2","4","2","2","4","4","4","4","4","4","4","4","4","4","4","4","4","4","4","4","1","0","1","1","0","0","1","1","1","1","1","0","1","0","1","4","2","2","2","4","5","2","4","4","4","4","718769387863015424","黄","442","","","","","","","","","","","","","","","","","","","","","","","","","","","","","","","","","","","","","","","","","",""
"996","<p style=""color:white; font-size: 35px;"">能干</p>","e","categorize-html","66","160285","0.0-6.0-0.0-6.0-1.3","3","3","3","3","3","3","3","3","3","2","4","2","2","4","4","4","4","4","4","4","4","4","4","4","4","4","4","4","4","1","0","1","1","0","0","1","1","1","1","1","0","1","0","1","4","2","2","2","4","5","2","4","4","4","4","718769387863015424","黄","442","","","","","","","","","","","","","","","","","","","true","3","3","ability","996","positive","能干","","","","","","","","","","","","","","","","",""
"null","","null","html-keyboard-response","67","160535","0.0-6.0-0.0-6.0-0.4","3","3","3","3","3","3","3","3","3","2","4","2","2","4","4","4","4","4","4","4","4","4","4","4","4","4","4","4","4","1","0","1","1","0","0","1","1","1","1","1","0","1","0","1","4","2","2","2","4","5","2","4","4","4","4","718769387863015424","黄","442","","","","","","","","","","","","","","","","","","","","","","","","","","","","","","","","","","","","","","","","","",""
"700","<p style=""color:rgb(150, 250, 100); font-size: 35px;"">别人</p>","e","categorize-html","68","161236","0.0-6.0-0.0-6.0-1.4","3","3","3","3","3","3","3","3","3","2","4","2","2","4","4","4","4","4","4","4","4","4","4","4","4","4","4","4","4","1","0","1","1","0","0","1","1","1","1","1","0","1","0","1","4","2","2","2","4","5","2","4","4","4","4","718769387863015424","黄","442","","","","","","","","","","","","","","","","","","","true","3","3","ability","700","other","别人","","","","","","","","","","","","","","","","",""
"null","","null","html-keyboard-response","69","161487","0.0-6.0-0.0-6.0-0.5","3","3","3","3","3","3","3","3","3","2","4","2","2","4","4","4","4","4","4","4","4","4","4","4","4","4","4","4","4","1","0","1","1","0","0","1","1","1","1","1","0","1","0","1","4","2","2","2","4","5","2","4","4","4","4","718769387863015424","黄","442","","","","","","","","","","","","","","","","","","","","","","","","","","","","","","","","","","","","","","","","","",""
"812","<p style=""color:white; font-size: 35px;"">蠢笨</p>","i","categorize-html","70","162300","0.0-6.0-0.0-6.0-1.5","3","3","3","3","3","3","3","3","3","2","4","2","2","4","4","4","4","4","4","4","4","4","4","4","4","4","4","4","4","1","0","1","1","0","0","1","1","1","1","1","0","1","0","1","4","2","2","2","4","5","2","4","4","4","4","718769387863015424","黄","442","","","","","","","","","","","","","","","","","","","true","3","3","ability","812","negative","蠢笨","","","","","","","","","","","","","","","","",""
"null","","null","html-keyboard-response","71","162551","0.0-6.0-0.0-6.0-0.6","3","3","3","3","3","3","3","3","3","2","4","2","2","4","4","4","4","4","4","4","4","4","4","4","4","4","4","4","4","1","0","1","1","0","0","1","1","1","1","1","0","1","0","1","4","2","2","2","4","5","2","4","4","4","4","718769387863015424","黄","442","","","","","","","","","","","","","","","","","","","","","","","","","","","","","","","","","","","","","","","","","",""
"525","<p style=""color:rgb(150, 250, 100); font-size: 35px;"">我的</p>","i","categorize-html","72","163078","0.0-6.0-0.0-6.0-1.6","3","3","3","3","3","3","3","3","3","2","4","2","2","4","4","4","4","4","4","4","4","4","4","4","4","4","4","4","4","1","0","1","1","0","0","1","1","1","1","1","0","1","0","1","4","2","2","2","4","5","2","4","4","4","4","718769387863015424","黄","442","","","","","","","","","","","","","","","","","","","true","3","3","ability","525","self","我的","","","","","","","","","","","","","","","","",""
"null","","null","html-keyboard-response","73","163328","0.0-6.0-0.0-6.0-0.7","3","3","3","3","3","3","3","3","3","2","4","2","2","4","4","4","4","4","4","4","4","4","4","4","4","4","4","4","4","1","0","1","1","0","0","1","1","1","1","1","0","1","0","1","4","2","2","2","4","5","2","4","4","4","4","718769387863015424","黄","442","","","","","","","","","","","","","","","","","","","","","","","","","","","","","","","","","","","","","","","","","",""
"783","<p style=""color:white; font-size: 35px;"">精干</p>","e","categorize-html","74","164112","0.0-6.0-0.0-6.0-1.7","3","3","3","3","3","3","3","3","3","2","4","2","2","4","4","4","4","4","4","4","4","4","4","4","4","4","4","4","4","1","0","1","1","0","0","1","1","1","1","1","0","1","0","1","4","2","2","2","4","5","2","4","4","4","4","718769387863015424","黄","442","","","","","","","","","","","","","","","","","","","true","3","3","ability","783","positive","精干","","","","","","","","","","","","","","","","",""
"null","","null","html-keyboard-response","75","164363","0.0-6.0-0.0-6.0-0.8","3","3","3","3","3","3","3","3","3","2","4","2","2","4","4","4","4","4","4","4","4","4","4","4","4","4","4","4","4","1","0","1","1","0","0","1","1","1","1","1","0","1","0","1","4","2","2","2","4","5","2","4","4","4","4","718769387863015424","黄","442","","","","","","","","","","","","","","","","","","","","","","","","","","","","","","","","","","","","","","","","","",""
"569","<p style=""color:rgb(150, 250, 100); font-size: 35px;"">别人的</p>","e","categorize-html","76","164934","0.0-6.0-0.0-6.0-1.8","3","3","3","3","3","3","3","3","3","2","4","2","2","4","4","4","4","4","4","4","4","4","4","4","4","4","4","4","4","1","0","1","1","0","0","1","1","1","1","1","0","1","0","1","4","2","2","2","4","5","2","4","4","4","4","718769387863015424","黄","442","","","","","","","","","","","","","","","","","","","true","3","3","ability","569","other","别人的","","","","","","","","","","","","","","","","",""
"null","","null","html-keyboard-response","77","165184","0.0-6.0-0.0-6.0-0.9","3","3","3","3","3","3","3","3","3","2","4","2","2","4","4","4","4","4","4","4","4","4","4","4","4","4","4","4","4","1","0","1","1","0","0","1","1","1","1","1","0","1","0","1","4","2","2","2","4","5","2","4","4","4","4","718769387863015424","黄","442","","","","","","","","","","","","","","","","","","","","","","","","","","","","","","","","","","","","","","","","","",""
"1299","<p style=""color:white; font-size: 35px;"">拙笨</p>","i","categorize-html","78","166484","0.0-6.0-0.0-6.0-1.9","3","3","3","3","3","3","3","3","3","2","4","2","2","4","4","4","4","4","4","4","4","4","4","4","4","4","4","4","4","1","0","1","1","0","0","1","1","1","1","1","0","1","0","1","4","2","2","2","4","5","2","4","4","4","4","718769387863015424","黄","442","","","","","","","","","","","","","","","","","","","true","3","3","ability","1299","negative","拙笨","","","","","","","","","","","","","","","","",""
"null","","null","html-keyboard-response","79","166736","0.0-6.0-0.0-6.0-0.10","3","3","3","3","3","3","3","3","3","2","4","2","2","4","4","4","4","4","4","4","4","4","4","4","4","4","4","4","4","1","0","1","1","0","0","1","1","1","1","1","0","1","0","1","4","2","2","2","4","5","2","4","4","4","4","718769387863015424","黄","442","","","","","","","","","","","","","","","","","","","","","","","","","","","","","","","","","","","","","","","","","",""
"758","<p style=""color:rgb(150, 250, 100); font-size: 35px;"">本人</p>","i","categorize-html","80","167494","0.0-6.0-0.0-6.0-1.10","3","3","3","3","3","3","3","3","3","2","4","2","2","4","4","4","4","4","4","4","4","4","4","4","4","4","4","4","4","1","0","1","1","0","0","1","1","1","1","1","0","1","0","1","4","2","2","2","4","5","2","4","4","4","4","718769387863015424","黄","442","","","","","","","","","","","","","","","","","","","true","3","3","ability","758","self","本人","","","","","","","","","","","","","","","","",""
"null","","null","html-keyboard-response","81","167745","0.0-6.0-0.0-6.0-0.11","3","3","3","3","3","3","3","3","3","2","4","2","2","4","4","4","4","4","4","4","4","4","4","4","4","4","4","4","4","1","0","1","1","0","0","1","1","1","1","1","0","1","0","1","4","2","2","2","4","5","2","4","4","4","4","718769387863015424","黄","442","","","","","","","","","","","","","","","","","","","","","","","","","","","","","","","","","","","","","","","","","",""
"865","<p style=""color:white; font-size: 35px;"">全才</p>","e","categorize-html","82","168611","0.0-6.0-0.0-6.0-1.11","3","3","3","3","3","3","3","3","3","2","4","2","2","4","4","4","4","4","4","4","4","4","4","4","4","4","4","4","4","1","0","1","1","0","0","1","1","1","1","1","0","1","0","1","4","2","2","2","4","5","2","4","4","4","4","718769387863015424","黄","442","","","","","","","","","","","","","","","","","","","true","3","3","ability","865","positive","全才","","","","","","","","","","","","","","","","",""
"null","","null","html-keyboard-response","83","168862","0.0-6.0-0.0-6.0-0.12","3","3","3","3","3","3","3","3","3","2","4","2","2","4","4","4","4","4","4","4","4","4","4","4","4","4","4","4","4","1","0","1","1","0","0","1","1","1","1","1","0","1","0","1","4","2","2","2","4","5","2","4","4","4","4","718769387863015424","黄","442","","","","","","","","","","","","","","","","","","","","","","","","","","","","","","","","","","","","","","","","","",""
"540","<p style=""color:rgb(150, 250, 100); font-size: 35px;"">他人</p>","e","categorize-html","84","169403","0.0-6.0-0.0-6.0-1.12","3","3","3","3","3","3","3","3","3","2","4","2","2","4","4","4","4","4","4","4","4","4","4","4","4","4","4","4","4","1","0","1","1","0","0","1","1","1","1","1","0","1","0","1","4","2","2","2","4","5","2","4","4","4","4","718769387863015424","黄","442","","","","","","","","","","","","","","","","","","","true","3","3","ability","540","other","他人","","","","","","","","","","","","","","","","",""
"null","","null","html-keyboard-response","85","169655","0.0-6.0-0.0-6.0-0.13","3","3","3","3","3","3","3","3","3","2","4","2","2","4","4","4","4","4","4","4","4","4","4","4","4","4","4","4","4","1","0","1","1","0","0","1","1","1","1","1","0","1","0","1","4","2","2","2","4","5","2","4","4","4","4","718769387863015424","黄","442","","","","","","","","","","","","","","","","","","","","","","","","","","","","","","","","","","","","","","","","","",""
"1635","<p style=""color:white; font-size: 35px;"">天才</p>","e","categorize-html","86","171290","0.0-6.0-0.0-6.0-1.13","3","3","3","3","3","3","3","3","3","2","4","2","2","4","4","4","4","4","4","4","4","4","4","4","4","4","4","4","4","1","0","1","1","0","0","1","1","1","1","1","0","1","0","1","4","2","2","2","4","5","2","4","4","4","4","718769387863015424","黄","442","","","","","","","","","","","","","","","","","","","true","3","3","ability","1635","positive","天才","","","","","","","","","","","","","","","","",""
"null","","null","html-keyboard-response","87","171541","0.0-6.0-0.0-6.0-0.14","3","3","3","3","3","3","3","3","3","2","4","2","2","4","4","4","4","4","4","4","4","4","4","4","4","4","4","4","4","1","0","1","1","0","0","1","1","1","1","1","0","1","0","1","4","2","2","2","4","5","2","4","4","4","4","718769387863015424","黄","442","","","","","","","","","","","","","","","","","","","","","","","","","","","","","","","","","","","","","","","","","",""
"921","<p style=""color:rgb(150, 250, 100); font-size: 35px;"">本人的</p>","i","categorize-html","88","172463","0.0-6.0-0.0-6.0-1.14","3","3","3","3","3","3","3","3","3","2","4","2","2","4","4","4","4","4","4","4","4","4","4","4","4","4","4","4","4","1","0","1","1","0","0","1","1","1","1","1","0","1","0","1","4","2","2","2","4","5","2","4","4","4","4","718769387863015424","黄","442","","","","","","","","","","","","","","","","","","","true","3","3","ability","921","self","本人的","","","","","","","","","","","","","","","","",""
"null","","null","html-keyboard-response","89","172713","0.0-6.0-0.0-6.0-0.15","3","3","3","3","3","3","3","3","3","2","4","2","2","4","4","4","4","4","4","4","4","4","4","4","4","4","4","4","4","1","0","1","1","0","0","1","1","1","1","1","0","1","0","1","4","2","2","2","4","5","2","4","4","4","4","718769387863015424","黄","442","","","","","","","","","","","","","","","","","","","","","","","","","","","","","","","","","","","","","","","","","",""
"922","<p style=""color:white; font-size: 35px;"">废物</p>","e","categorize-html","90","174174","0.0-6.0-0.0-6.0-1.15","3","3","3","3","3","3","3","3","3","2","4","2","2","4","4","4","4","4","4","4","4","4","4","4","4","4","4","4","4","1","0","1","1","0","0","1","1","1","1","1","0","1","0","1","4","2","2","2","4","5","2","4","4","4","4","718769387863015424","黄","442","","","","","","","","","","","","","","","","","","","false","3","3","ability","1439.3809523809523","negative","废物","","","","","","","","","","","","","","","","",""
"null","","null","html-keyboard-response","91","174424","0.0-6.0-0.0-6.0-0.16","3","3","3","3","3","3","3","3","3","2","4","2","2","4","4","4","4","4","4","4","4","4","4","4","4","4","4","4","4","1","0","1","1","0","0","1","1","1","1","1","0","1","0","1","4","2","2","2","4","5","2","4","4","4","4","718769387863015424","黄","442","","","","","","","","","","","","","","","","","","","","","","","","","","","","","","","","","","","","","","","","","",""
"732","<p style=""color:rgb(150, 250, 100); font-size: 35px;"">我</p>","i","categorize-html","92","175158","0.0-6.0-0.0-6.0-1.16","3","3","3","3","3","3","3","3","3","2","4","2","2","4","4","4","4","4","4","4","4","4","4","4","4","4","4","4","4","1","0","1","1","0","0","1","1","1","1","1","0","1","0","1","4","2","2","2","4","5","2","4","4","4","4","718769387863015424","黄","442","","","","","","","","","","","","","","","","","","","true","3","3","ability","732","self","我","","","","","","","","","","","","","","","","",""
"null","","null","html-keyboard-response","93","175408","0.0-6.0-0.0-6.0-0.17","3","3","3","3","3","3","3","3","3","2","4","2","2","4","4","4","4","4","4","4","4","4","4","4","4","4","4","4","4","1","0","1","1","0","0","1","1","1","1","1","0","1","0","1","4","2","2","2","4","5","2","4","4","4","4","718769387863015424","黄","442","","","","","","","","","","","","","","","","","","","","","","","","","","","","","","","","","","","","","","","","","",""
"571","<p style=""color:white; font-size: 35px;"">无能</p>","i","categorize-html","94","175981","0.0-6.0-0.0-6.0-1.17","3","3","3","3","3","3","3","3","3","2","4","2","2","4","4","4","4","4","4","4","4","4","4","4","4","4","4","4","4","1","0","1","1","0","0","1","1","1","1","1","0","1","0","1","4","2","2","2","4","5","2","4","4","4","4","718769387863015424","黄","442","","","","","","","","","","","","","","","","","","","true","3","3","ability","571","negative","无能","","","","","","","","","","","","","","","","",""
"null","","null","html-keyboard-response","95","176231","0.0-6.0-0.0-6.0-0.18","3","3","3","3","3","3","3","3","3","2","4","2","2","4","4","4","4","4","4","4","4","4","4","4","4","4","4","4","4","1","0","1","1","0","0","1","1","1","1","1","0","1","0","1","4","2","2","2","4","5","2","4","4","4","4","718769387863015424","黄","442","","","","","","","","","","","","","","","","","","","","","","","","","","","","","","","","","","","","","","","","","",""
"767","<p style=""color:rgb(150, 250, 100); font-size: 35px;"">他人的</p>","e","categorize-html","96","176999","0.0-6.0-0.0-6.0-1.18","3","3","3","3","3","3","3","3","3","2","4","2","2","4","4","4","4","4","4","4","4","4","4","4","4","4","4","4","4","1","0","1","1","0","0","1","1","1","1","1","0","1","0","1","4","2","2","2","4","5","2","4","4","4","4","718769387863015424","黄","442","","","","","","","","","","","","","","","","","","","true","3","3","ability","767","other","他人的","","","","","","","","","","","","","","","","",""
"null","","null","html-keyboard-response","97","177250","0.0-6.0-0.0-6.0-0.19","3","3","3","3","3","3","3","3","3","2","4","2","2","4","4","4","4","4","4","4","4","4","4","4","4","4","4","4","4","1","0","1","1","0","0","1","1","1","1","1","0","1","0","1","4","2","2","2","4","5","2","4","4","4","4","718769387863015424","黄","442","","","","","","","","","","","","","","","","","","","","","","","","","","","","","","","","","","","","","","","","","",""
"679","<p style=""color:white; font-size: 35px;"">高效</p>","i","categorize-html","98","178532","0.0-6.0-0.0-6.0-1.19","3","3","3","3","3","3","3","3","3","2","4","2","2","4","4","4","4","4","4","4","4","4","4","4","4","4","4","4","4","1","0","1","1","0","0","1","1","1","1","1","0","1","0","1","4","2","2","2","4","5","2","4","4","4","4","718769387863015424","黄","442","","","","","","","","","","","","","","","","","","","false","3","3","ability","1439.3809523809523","positive","高效","","","","","","","","","","","","","","","","",""
"null","","null","html-keyboard-response","99","178783","0.0-6.0-0.0-6.0-0.20","3","3","3","3","3","3","3","3","3","2","4","2","2","4","4","4","4","4","4","4","4","4","4","4","4","4","4","4","4","1","0","1","1","0","0","1","1","1","1","1","0","1","0","1","4","2","2","2","4","5","2","4","4","4","4","718769387863015424","黄","442","","","","","","","","","","","","","","","","","","","","","","","","","","","","","","","","","","","","","","","","","",""
"670","<p style=""color:rgb(150, 250, 100); font-size: 35px;"">他</p>","e","categorize-html","100","179453","0.0-6.0-0.0-6.0-1.20","3","3","3","3","3","3","3","3","3","2","4","2","2","4","4","4","4","4","4","4","4","4","4","4","4","4","4","4","4","1","0","1","1","0","0","1","1","1","1","1","0","1","0","1","4","2","2","2","4","5","2","4","4","4","4","718769387863015424","黄","442","","","","","","","","","","","","","","","","","","","true","3","3","ability","670","other","他","","","","","","","","","","","","","","","","",""
"null","","null","html-keyboard-response","101","179704","0.0-6.0-0.0-6.0-0.21","3","3","3","3","3","3","3","3","3","2","4","2","2","4","4","4","4","4","4","4","4","4","4","4","4","4","4","4","4","1","0","1","1","0","0","1","1","1","1","1","0","1","0","1","4","2","2","2","4","5","2","4","4","4","4","718769387863015424","黄","442","","","","","","","","","","","","","","","","","","","","","","","","","","","","","","","","","","","","","","","","","",""
"1241","<p style=""color:white; font-size: 35px;"">低能</p>","i","categorize-html","102","180946","0.0-6.0-0.0-6.0-1.21","3","3","3","3","3","3","3","3","3","2","4","2","2","4","4","4","4","4","4","4","4","4","4","4","4","4","4","4","4","1","0","1","1","0","0","1","1","1","1","1","0","1","0","1","4","2","2","2","4","5","2","4","4","4","4","718769387863015424","黄","442","","","","","","","","","","","","","","","","","","","true","3","3","ability","1241","negative","低能","","","","","","","","","","","","","","","","",""
"null","","null","html-keyboard-response","103","181196","0.0-6.0-0.0-6.0-0.22","3","3","3","3","3","3","3","3","3","2","4","2","2","4","4","4","4","4","4","4","4","4","4","4","4","4","4","4","4","1","0","1","1","0","0","1","1","1","1","1","0","1","0","1","4","2","2","2","4","5","2","4","4","4","4","718769387863015424","黄","442","","","","","","","","","","","","","","","","","","","","","","","","","","","","","","","","","","","","","","","","","",""
"878","<p style=""color:rgb(150, 250, 100); font-size: 35px;"">自己的</p>","e","categorize-html","104","182620","0.0-6.0-0.0-6.0-1.22","3","3","3","3","3","3","3","3","3","2","4","2","2","4","4","4","4","4","4","4","4","4","4","4","4","4","4","4","4","1","0","1","1","0","0","1","1","1","1","1","0","1","0","1","4","2","2","2","4","5","2","4","4","4","4","718769387863015424","黄","442","","","","","","","","","","","","","","","","","","","false","3","3","ability","1439.3809523809523","self","自己的","","","","","","","","","","","","","","","","",""
"null","","null","html-keyboard-response","105","182872","0.0-6.0-0.0-6.0-0.23","3","3","3","3","3","3","3","3","3","2","4","2","2","4","4","4","4","4","4","4","4","4","4","4","4","4","4","4","4","1","0","1","1","0","0","1","1","1","1","1","0","1","0","1","4","2","2","2","4","5","2","4","4","4","4","718769387863015424","黄","442","","","","","","","","","","","","","","","","","","","","","","","","","","","","","","","","","","","","","","","","","",""
"957","<p style=""color:white; font-size: 35px;"">全能</p>","e","categorize-html","106","183830","0.0-6.0-0.0-6.0-1.23","3","3","3","3","3","3","3","3","3","2","4","2","2","4","4","4","4","4","4","4","4","4","4","4","4","4","4","4","4","1","0","1","1","0","0","1","1","1","1","1","0","1","0","1","4","2","2","2","4","5","2","4","4","4","4","718769387863015424","黄","442","","","","","","","","","","","","","","","","","","","true","3","3","ability","957","positive","全能","","","","","","","","","","","","","","","","",""
"1602","
    <div class=""tag-bottom""><p>
    —— 任务4：对“他人/积极”词和“自我/消极”词分类 ——<p/>
    <span style=""color:#78DCE8""><b>与刚才的任务完全相同，请再次对这四类词语分类</b></span><p/>
    <span style=""color:#FFD866""><b>请根据上方标签的提示，尽可能正确并且快速地做出按键反应</b></span><p/>
    当按键错误时屏幕中会出现<span style=""color:red""> X </span>，需要按另一个键纠正才能继续<br/><p/>
    请把双手食指分别放在键盘的“E”键和“I”键上<p/>
    按<空格键>开始
    </p></div>"," ","html-keyboard-response","107","185432","0.0-6.0-0.0-7.0","3","3","3","3","3","3","3","3","3","2","4","2","2","4","4","4","4","4","4","4","4","4","4","4","4","4","4","4","4","1","0","1","1","0","0","1","1","1","1","1","0","1","0","1","4","2","2","2","4","5","2","4","4","4","4","718769387863015424","黄","442","","","","","","","","","","","","","","","","","","","","","","","","","","","","","","","","","","","","","","","","","",""
"null","","null","html-keyboard-response","108","185683","0.0-6.0-0.0-8.0-0.0","3","3","3","3","3","3","3","3","3","2","4","2","2","4","4","4","4","4","4","4","4","4","4","4","4","4","4","4","4","1","0","1","1","0","0","1","1","1","1","1","0","1","0","1","4","2","2","2","4","5","2","4","4","4","4","718769387863015424","黄","442","","","","","","","","","","","","","","","","","","","","","","","","","","","","","","","","","","","","","","","","","",""
"1134","<p style=""color:rgb(150, 250, 100); font-size: 35px;"">别人的</p>","e","categorize-html","109","186818","0.0-6.0-0.0-8.0-1.0","3","3","3","3","3","3","3","3","3","2","4","2","2","4","4","4","4","4","4","4","4","4","4","4","4","4","4","4","4","1","0","1","1","0","0","1","1","1","1","1","0","1","0","1","4","2","2","2","4","5","2","4","4","4","4","718769387863015424","黄","442","","","","","","","","","","","","","","","","","","","true","4","4","ability","1134","other","别人的","","","","","","","","","","","","","","","","",""
"null","","null","html-keyboard-response","110","187068","0.0-6.0-0.0-8.0-0.1","3","3","3","3","3","3","3","3","3","2","4","2","2","4","4","4","4","4","4","4","4","4","4","4","4","4","4","4","4","1","0","1","1","0","0","1","1","1","1","1","0","1","0","1","4","2","2","2","4","5","2","4","4","4","4","718769387863015424","黄","442","","","","","","","","","","","","","","","","","","","","","","","","","","","","","","","","","","","","","","","","","",""
"528","<p style=""color:white; font-size: 35px;"">能干</p>","e","categorize-html","111","187598","0.0-6.0-0.0-8.0-1.1","3","3","3","3","3","3","3","3","3","2","4","2","2","4","4","4","4","4","4","4","4","4","4","4","4","4","4","4","4","1","0","1","1","0","0","1","1","1","1","1","0","1","0","1","4","2","2","2","4","5","2","4","4","4","4","718769387863015424","黄","442","","","","","","","","","","","","","","","","","","","true","4","4","ability","528","positive","能干","","","","","","","","","","","","","","","","",""
"null","","null","html-keyboard-response","112","187848","0.0-6.0-0.0-8.0-0.2","3","3","3","3","3","3","3","3","3","2","4","2","2","4","4","4","4","4","4","4","4","4","4","4","4","4","4","4","4","1","0","1","1","0","0","1","1","1","1","1","0","1","0","1","4","2","2","2","4","5","2","4","4","4","4","718769387863015424","黄","442","","","","","","","","","","","","","","","","","","","","","","","","","","","","","","","","","","","","","","","","","",""
"464","<p style=""color:rgb(150, 250, 100); font-size: 35px;"">我的</p>","i","categorize-html","113","188313","0.0-6.0-0.0-8.0-1.2","3","3","3","3","3","3","3","3","3","2","4","2","2","4","4","4","4","4","4","4","4","4","4","4","4","4","4","4","4","1","0","1","1","0","0","1","1","1","1","1","0","1","0","1","4","2","2","2","4","5","2","4","4","4","4","718769387863015424","黄","442","","","","","","","","","","","","","","","","","","","true","4","4","ability","464","self","我的","","","","","","","","","","","","","","","","",""
"null","","null","html-keyboard-response","114","188563","0.0-6.0-0.0-8.0-0.3","3","3","3","3","3","3","3","3","3","2","4","2","2","4","4","4","4","4","4","4","4","4","4","4","4","4","4","4","4","1","0","1","1","0","0","1","1","1","1","1","0","1","0","1","4","2","2","2","4","5","2","4","4","4","4","718769387863015424","黄","442","","","","","","","","","","","","","","","","","","","","","","","","","","","","","","","","","","","","","","","","","",""
"496","<p style=""color:white; font-size: 35px;"">蠢笨</p>","i","categorize-html","115","189060","0.0-6.0-0.0-8.0-1.3","3","3","3","3","3","3","3","3","3","2","4","2","2","4","4","4","4","4","4","4","4","4","4","4","4","4","4","4","4","1","0","1","1","0","0","1","1","1","1","1","0","1","0","1","4","2","2","2","4","5","2","4","4","4","4","718769387863015424","黄","442","","","","","","","","","","","","","","","","","","","true","4","4","ability","496","negative","蠢笨","","","","","","","","","","","","","","","","",""
"null","","null","html-keyboard-response","116","189310","0.0-6.0-0.0-8.0-0.4","3","3","3","3","3","3","3","3","3","2","4","2","2","4","4","4","4","4","4","4","4","4","4","4","4","4","4","4","4","1","0","1","1","0","0","1","1","1","1","1","0","1","0","1","4","2","2","2","4","5","2","4","4","4","4","718769387863015424","黄","442","","","","","","","","","","","","","","","","","","","","","","","","","","","","","","","","","","","","","","","","","",""
"602","<p style=""color:rgb(150, 250, 100); font-size: 35px;"">别人的</p>","e","categorize-html","117","189913","0.0-6.0-0.0-8.0-1.4","3","3","3","3","3","3","3","3","3","2","4","2","2","4","4","4","4","4","4","4","4","4","4","4","4","4","4","4","4","1","0","1","1","0","0","1","1","1","1","1","0","1","0","1","4","2","2","2","4","5","2","4","4","4","4","718769387863015424","黄","442","","","","","","","","","","","","","","","","","","","true","4","4","ability","602","other","别人的","","","","","","","","","","","","","","","","",""
"null","","null","html-keyboard-response","118","190164","0.0-6.0-0.0-8.0-0.5","3","3","3","3","3","3","3","3","3","2","4","2","2","4","4","4","4","4","4","4","4","4","4","4","4","4","4","4","4","1","0","1","1","0","0","1","1","1","1","1","0","1","0","1","4","2","2","2","4","5","2","4","4","4","4","718769387863015424","黄","442","","","","","","","","","","","","","","","","","","","","","","","","","","","","","","","","","","","","","","","","","",""
"824","<p style=""color:white; font-size: 35px;"">废物</p>","i","categorize-html","119","190988","0.0-6.0-0.0-8.0-1.5","3","3","3","3","3","3","3","3","3","2","4","2","2","4","4","4","4","4","4","4","4","4","4","4","4","4","4","4","4","1","0","1","1","0","0","1","1","1","1","1","0","1","0","1","4","2","2","2","4","5","2","4","4","4","4","718769387863015424","黄","442","","","","","","","","","","","","","","","","","","","true","4","4","ability","824","negative","废物","","","","","","","","","","","","","","","","",""
"null","","null","html-keyboard-response","120","191239","0.0-6.0-0.0-8.0-0.6","3","3","3","3","3","3","3","3","3","2","4","2","2","4","4","4","4","4","4","4","4","4","4","4","4","4","4","4","4","1","0","1","1","0","0","1","1","1","1","1","0","1","0","1","4","2","2","2","4","5","2","4","4","4","4","718769387863015424","黄","442","","","","","","","","","","","","","","","","","","","","","","","","","","","","","","","","","","","","","","","","","",""
"548","<p style=""color:rgb(150, 250, 100); font-size: 35px;"">本人的</p>","i","categorize-html","121","191788","0.0-6.0-0.0-8.0-1.6","3","3","3","3","3","3","3","3","3","2","4","2","2","4","4","4","4","4","4","4","4","4","4","4","4","4","4","4","4","1","0","1","1","0","0","1","1","1","1","1","0","1","0","1","4","2","2","2","4","5","2","4","4","4","4","718769387863015424","黄","442","","","","","","","","","","","","","","","","","","","true","4","4","ability","548","self","本人的","","","","","","","","","","","","","","","","",""
"null","","null","html-keyboard-response","122","192039","0.0-6.0-0.0-8.0-0.7","3","3","3","3","3","3","3","3","3","2","4","2","2","4","4","4","4","4","4","4","4","4","4","4","4","4","4","4","4","1","0","1","1","0","0","1","1","1","1","1","0","1","0","1","4","2","2","2","4","5","2","4","4","4","4","718769387863015424","黄","442","","","","","","","","","","","","","","","","","","","","","","","","","","","","","","","","","","","","","","","","","",""
"724","<p style=""color:white; font-size: 35px;"">全才</p>","e","categorize-html","123","192764","0.0-6.0-0.0-8.0-1.7","3","3","3","3","3","3","3","3","3","2","4","2","2","4","4","4","4","4","4","4","4","4","4","4","4","4","4","4","4","1","0","1","1","0","0","1","1","1","1","1","0","1","0","1","4","2","2","2","4","5","2","4","4","4","4","718769387863015424","黄","442","","","","","","","","","","","","","","","","","","","true","4","4","ability","724","positive","全才","","","","","","","","","","","","","","","","",""
"null","","null","html-keyboard-response","124","193015","0.0-6.0-0.0-8.0-0.8","3","3","3","3","3","3","3","3","3","2","4","2","2","4","4","4","4","4","4","4","4","4","4","4","4","4","4","4","4","1","0","1","1","0","0","1","1","1","1","1","0","1","0","1","4","2","2","2","4","5","2","4","4","4","4","718769387863015424","黄","442","","","","","","","","","","","","","","","","","","","","","","","","","","","","","","","","","","","","","","","","","",""
"561","<p style=""color:rgb(150, 250, 100); font-size: 35px;"">自己的</p>","i","categorize-html","125","193577","0.0-6.0-0.0-8.0-1.8","3","3","3","3","3","3","3","3","3","2","4","2","2","4","4","4","4","4","4","4","4","4","4","4","4","4","4","4","4","1","0","1","1","0","0","1","1","1","1","1","0","1","0","1","4","2","2","2","4","5","2","4","4","4","4","718769387863015424","黄","442","","","","","","","","","","","","","","","","","","","true","4","4","ability","561","self","自己的","","","","","","","","","","","","","","","","",""
"null","","null","html-keyboard-response","126","193828","0.0-6.0-0.0-8.0-0.9","3","3","3","3","3","3","3","3","3","2","4","2","2","4","4","4","4","4","4","4","4","4","4","4","4","4","4","4","4","1","0","1","1","0","0","1","1","1","1","1","0","1","0","1","4","2","2","2","4","5","2","4","4","4","4","718769387863015424","黄","442","","","","","","","","","","","","","","","","","","","","","","","","","","","","","","","","","","","","","","","","","",""
"781","<p style=""color:white; font-size: 35px;"">精干</p>","e","categorize-html","127","194610","0.0-6.0-0.0-8.0-1.9","3","3","3","3","3","3","3","3","3","2","4","2","2","4","4","4","4","4","4","4","4","4","4","4","4","4","4","4","4","1","0","1","1","0","0","1","1","1","1","1","0","1","0","1","4","2","2","2","4","5","2","4","4","4","4","718769387863015424","黄","442","","","","","","","","","","","","","","","","","","","true","4","4","ability","781","positive","精干","","","","","","","","","","","","","","","","",""
"null","","null","html-keyboard-response","128","194861","0.0-6.0-0.0-8.0-0.10","3","3","3","3","3","3","3","3","3","2","4","2","2","4","4","4","4","4","4","4","4","4","4","4","4","4","4","4","4","1","0","1","1","0","0","1","1","1","1","1","0","1","0","1","4","2","2","2","4","5","2","4","4","4","4","718769387863015424","黄","442","","","","","","","","","","","","","","","","","","","","","","","","","","","","","","","","","","","","","","","","","",""
"638","<p style=""color:rgb(150, 250, 100); font-size: 35px;"">他人的</p>","e","categorize-html","129","195500","0.0-6.0-0.0-8.0-1.10","3","3","3","3","3","3","3","3","3","2","4","2","2","4","4","4","4","4","4","4","4","4","4","4","4","4","4","4","4","1","0","1","1","0","0","1","1","1","1","1","0","1","0","1","4","2","2","2","4","5","2","4","4","4","4","718769387863015424","黄","442","","","","","","","","","","","","","","","","","","","true","4","4","ability","638","other","他人的","","","","","","","","","","","","","","","","",""
"null","","null","html-keyboard-response","130","195750","0.0-6.0-0.0-8.0-0.11","3","3","3","3","3","3","3","3","3","2","4","2","2","4","4","4","4","4","4","4","4","4","4","4","4","4","4","4","4","1","0","1","1","0","0","1","1","1","1","1","0","1","0","1","4","2","2","2","4","5","2","4","4","4","4","718769387863015424","黄","442","","","","","","","","","","","","","","","","","","","","","","","","","","","","","","","","","","","","","","","","","",""
"601","<p style=""color:white; font-size: 35px;"">拙笨</p>","i","categorize-html","131","196352","0.0-6.0-0.0-8.0-1.11","3","3","3","3","3","3","3","3","3","2","4","2","2","4","4","4","4","4","4","4","4","4","4","4","4","4","4","4","4","1","0","1","1","0","0","1","1","1","1","1","0","1","0","1","4","2","2","2","4","5","2","4","4","4","4","718769387863015424","黄","442","","","","","","","","","","","","","","","","","","","true","4","4","ability","601","negative","拙笨","","","","","","","","","","","","","","","","",""
"null","","null","html-keyboard-response","132","196603","0.0-6.0-0.0-8.0-0.12","3","3","3","3","3","3","3","3","3","2","4","2","2","4","4","4","4","4","4","4","4","4","4","4","4","4","4","4","4","1","0","1","1","0","0","1","1","1","1","1","0","1","0","1","4","2","2","2","4","5","2","4","4","4","4","718769387863015424","黄","442","","","","","","","","","","","","","","","","","","","","","","","","","","","","","","","","","","","","","","","","","",""
"715","<p style=""color:rgb(150, 250, 100); font-size: 35px;"">本人</p>","i","categorize-html","133","197318","0.0-6.0-0.0-8.0-1.12","3","3","3","3","3","3","3","3","3","2","4","2","2","4","4","4","4","4","4","4","4","4","4","4","4","4","4","4","4","1","0","1","1","0","0","1","1","1","1","1","0","1","0","1","4","2","2","2","4","5","2","4","4","4","4","718769387863015424","黄","442","","","","","","","","","","","","","","","","","","","true","4","4","ability","715","self","本人","","","","","","","","","","","","","","","","",""
"null","","null","html-keyboard-response","134","197569","0.0-6.0-0.0-8.0-0.13","3","3","3","3","3","3","3","3","3","2","4","2","2","4","4","4","4","4","4","4","4","4","4","4","4","4","4","4","4","1","0","1","1","0","0","1","1","1","1","1","0","1","0","1","4","2","2","2","4","5","2","4","4","4","4","718769387863015424","黄","442","","","","","","","","","","","","","","","","","","","","","","","","","","","","","","","","","","","","","","","","","",""
"539","<p style=""color:white; font-size: 35px;"">全才</p>","e","categorize-html","135","198109","0.0-6.0-0.0-8.0-1.13","3","3","3","3","3","3","3","3","3","2","4","2","2","4","4","4","4","4","4","4","4","4","4","4","4","4","4","4","4","1","0","1","1","0","0","1","1","1","1","1","0","1","0","1","4","2","2","2","4","5","2","4","4","4","4","718769387863015424","黄","442","","","","","","","","","","","","","","","","","","","true","4","4","ability","539","positive","全才","","","","","","","","","","","","","","","","",""
"null","","null","html-keyboard-response","136","198360","0.0-6.0-0.0-8.0-0.14","3","3","3","3","3","3","3","3","3","2","4","2","2","4","4","4","4","4","4","4","4","4","4","4","4","4","4","4","4","1","0","1","1","0","0","1","1","1","1","1","0","1","0","1","4","2","2","2","4","5","2","4","4","4","4","718769387863015424","黄","442","","","","","","","","","","","","","","","","","","","","","","","","","","","","","","","","","","","","","","","","","",""
"546","<p style=""color:rgb(150, 250, 100); font-size: 35px;"">他人的</p>","e","categorize-html","137","198906","0.0-6.0-0.0-8.0-1.14","3","3","3","3","3","3","3","3","3","2","4","2","2","4","4","4","4","4","4","4","4","4","4","4","4","4","4","4","4","1","0","1","1","0","0","1","1","1","1","1","0","1","0","1","4","2","2","2","4","5","2","4","4","4","4","718769387863015424","黄","442","","","","","","","","","","","","","","","","","","","true","4","4","ability","546","other","他人的","","","","","","","","","","","","","","","","",""
"null","","null","html-keyboard-response","138","199157","0.0-6.0-0.0-8.0-0.15","3","3","3","3","3","3","3","3","3","2","4","2","2","4","4","4","4","4","4","4","4","4","4","4","4","4","4","4","4","1","0","1","1","0","0","1","1","1","1","1","0","1","0","1","4","2","2","2","4","5","2","4","4","4","4","718769387863015424","黄","442","","","","","","","","","","","","","","","","","","","","","","","","","","","","","","","","","","","","","","","","","",""
"702","<p style=""color:white; font-size: 35px;"">无能</p>","e","categorize-html","139","200255","0.0-6.0-0.0-8.0-1.15","3","3","3","3","3","3","3","3","3","2","4","2","2","4","4","4","4","4","4","4","4","4","4","4","4","4","4","4","4","1","0","1","1","0","0","1","1","1","1","1","0","1","0","1","4","2","2","2","4","5","2","4","4","4","4","718769387863015424","黄","442","","","","","","","","","","","","","","","","","","","false","4","4","ability","1273.3191489361702","negative","无能","","","","","","","","","","","","","","","","",""
"null","","null","html-keyboard-response","140","200507","0.0-6.0-0.0-8.0-0.16","3","3","3","3","3","3","3","3","3","2","4","2","2","4","4","4","4","4","4","4","4","4","4","4","4","4","4","4","4","1","0","1","1","0","0","1","1","1","1","1","0","1","0","1","4","2","2","2","4","5","2","4","4","4","4","718769387863015424","黄","442","","","","","","","","","","","","","","","","","","","","","","","","","","","","","","","","","","","","","","","","","",""
"650","<p style=""color:rgb(150, 250, 100); font-size: 35px;"">自己</p>","i","categorize-html","141","201158","0.0-6.0-0.0-8.0-1.16","3","3","3","3","3","3","3","3","3","2","4","2","2","4","4","4","4","4","4","4","4","4","4","4","4","4","4","4","4","1","0","1","1","0","0","1","1","1","1","1","0","1","0","1","4","2","2","2","4","5","2","4","4","4","4","718769387863015424","黄","442","","","","","","","","","","","","","","","","","","","true","4","4","ability","650","self","自己","","","","","","","","","","","","","","","","",""
"null","","null","html-keyboard-response","142","201408","0.0-6.0-0.0-8.0-0.17","3","3","3","3","3","3","3","3","3","2","4","2","2","4","4","4","4","4","4","4","4","4","4","4","4","4","4","4","4","1","0","1","1","0","0","1","1","1","1","1","0","1","0","1","4","2","2","2","4","5","2","4","4","4","4","718769387863015424","黄","442","","","","","","","","","","","","","","","","","","","","","","","","","","","","","","","","","","","","","","","","","",""
"869","<p style=""color:white; font-size: 35px;"">全能</p>","e","categorize-html","143","202278","0.0-6.0-0.0-8.0-1.17","3","3","3","3","3","3","3","3","3","2","4","2","2","4","4","4","4","4","4","4","4","4","4","4","4","4","4","4","4","1","0","1","1","0","0","1","1","1","1","1","0","1","0","1","4","2","2","2","4","5","2","4","4","4","4","718769387863015424","黄","442","","","","","","","","","","","","","","","","","","","true","4","4","ability","869","positive","全能","","","","","","","","","","","","","","","","",""
"null","","null","html-keyboard-response","144","202528","0.0-6.0-0.0-8.0-0.18","3","3","3","3","3","3","3","3","3","2","4","2","2","4","4","4","4","4","4","4","4","4","4","4","4","4","4","4","4","1","0","1","1","0","0","1","1","1","1","1","0","1","0","1","4","2","2","2","4","5","2","4","4","4","4","718769387863015424","黄","442","","","","","","","","","","","","","","","","","","","","","","","","","","","","","","","","","","","","","","","","","",""
"626","<p style=""color:rgb(150, 250, 100); font-size: 35px;"">他人</p>","e","categorize-html","145","203155","0.0-6.0-0.0-8.0-1.18","3","3","3","3","3","3","3","3","3","2","4","2","2","4","4","4","4","4","4","4","4","4","4","4","4","4","4","4","4","1","0","1","1","0","0","1","1","1","1","1","0","1","0","1","4","2","2","2","4","5","2","4","4","4","4","718769387863015424","黄","442","","","","","","","","","","","","","","","","","","","true","4","4","ability","626","other","他人","","","","","","","","","","","","","","","","",""
"null","","null","html-keyboard-response","146","203406","0.0-6.0-0.0-8.0-0.19","3","3","3","3","3","3","3","3","3","2","4","2","2","4","4","4","4","4","4","4","4","4","4","4","4","4","4","4","4","1","0","1","1","0","0","1","1","1","1","1","0","1","0","1","4","2","2","2","4","5","2","4","4","4","4","718769387863015424","黄","442","","","","","","","","","","","","","","","","","","","","","","","","","","","","","","","","","","","","","","","","","",""
"758","<p style=""color:white; font-size: 35px;"">低能</p>","i","categorize-html","147","204165","0.0-6.0-0.0-8.0-1.19","3","3","3","3","3","3","3","3","3","2","4","2","2","4","4","4","4","4","4","4","4","4","4","4","4","4","4","4","4","1","0","1","1","0","0","1","1","1","1","1","0","1","0","1","4","2","2","2","4","5","2","4","4","4","4","718769387863015424","黄","442","","","","","","","","","","","","","","","","","","","true","4","4","ability","758","negative","低能","","","","","","","","","","","","","","","","",""
"null","","null","html-keyboard-response","148","204415","0.0-6.0-0.0-8.0-0.20","3","3","3","3","3","3","3","3","3","2","4","2","2","4","4","4","4","4","4","4","4","4","4","4","4","4","4","4","4","1","0","1","1","0","0","1","1","1","1","1","0","1","0","1","4","2","2","2","4","5","2","4","4","4","4","718769387863015424","黄","442","","","","","","","","","","","","","","","","","","","","","","","","","","","","","","","","","","","","","","","","","",""
"734","<p style=""color:rgb(150, 250, 100); font-size: 35px;"">他</p>","e","categorize-html","149","205150","0.0-6.0-0.0-8.0-1.20","3","3","3","3","3","3","3","3","3","2","4","2","2","4","4","4","4","4","4","4","4","4","4","4","4","4","4","4","4","1","0","1","1","0","0","1","1","1","1","1","0","1","0","1","4","2","2","2","4","5","2","4","4","4","4","718769387863015424","黄","442","","","","","","","","","","","","","","","","","","","true","4","4","ability","734","other","他","","","","","","","","","","","","","","","","",""
"null","","null","html-keyboard-response","150","205401","0.0-6.0-0.0-8.0-0.21","3","3","3","3","3","3","3","3","3","2","4","2","2","4","4","4","4","4","4","4","4","4","4","4","4","4","4","4","4","1","0","1","1","0","0","1","1","1","1","1","0","1","0","1","4","2","2","2","4","5","2","4","4","4","4","718769387863015424","黄","442","","","","","","","","","","","","","","","","","","","","","","","","","","","","","","","","","","","","","","","","","",""
"691","<p style=""color:white; font-size: 35px;"">能干</p>","e","categorize-html","151","206093","0.0-6.0-0.0-8.0-1.21","3","3","3","3","3","3","3","3","3","2","4","2","2","4","4","4","4","4","4","4","4","4","4","4","4","4","4","4","4","1","0","1","1","0","0","1","1","1","1","1","0","1","0","1","4","2","2","2","4","5","2","4","4","4","4","718769387863015424","黄","442","","","","","","","","","","","","","","","","","","","true","4","4","ability","691","positive","能干","","","","","","","","","","","","","","","","",""
"null","","null","html-keyboard-response","152","206344","0.0-6.0-0.0-8.0-0.22","3","3","3","3","3","3","3","3","3","2","4","2","2","4","4","4","4","4","4","4","4","4","4","4","4","4","4","4","4","1","0","1","1","0","0","1","1","1","1","1","0","1","0","1","4","2","2","2","4","5","2","4","4","4","4","718769387863015424","黄","442","","","","","","","","","","","","","","","","","","","","","","","","","","","","","","","","","","","","","","","","","",""
"588","<p style=""color:rgb(150, 250, 100); font-size: 35px;"">自己的</p>","i","categorize-html","153","206933","0.0-6.0-0.0-8.0-1.22","3","3","3","3","3","3","3","3","3","2","4","2","2","4","4","4","4","4","4","4","4","4","4","4","4","4","4","4","4","1","0","1","1","0","0","1","1","1","1","1","0","1","0","1","4","2","2","2","4","5","2","4","4","4","4","718769387863015424","黄","442","","","","","","","","","","","","","","","","","","","true","4","4","ability","588","self","自己的","","","","","","","","","","","","","","","","",""
"null","","null","html-keyboard-response","154","207183","0.0-6.0-0.0-8.0-0.23","3","3","3","3","3","3","3","3","3","2","4","2","2","4","4","4","4","4","4","4","4","4","4","4","4","4","4","4","4","1","0","1","1","0","0","1","1","1","1","1","0","1","0","1","4","2","2","2","4","5","2","4","4","4","4","718769387863015424","黄","442","","","","","","","","","","","","","","","","","","","","","","","","","","","","","","","","","","","","","","","","","",""
"910","<p style=""color:white; font-size: 35px;"">愚钝</p>","i","categorize-html","155","208094","0.0-6.0-0.0-8.0-1.23","3","3","3","3","3","3","3","3","3","2","4","2","2","4","4","4","4","4","4","4","4","4","4","4","4","4","4","4","4","1","0","1","1","0","0","1","1","1","1","1","0","1","0","1","4","2","2","2","4","5","2","4","4","4","4","718769387863015424","黄","442","","","","","","","","","","","","","","","","","","","true","4","4","ability","910","negative","愚钝","","","","","","","","","","","","","","","","",""
"null","","null","html-keyboard-response","156","208345","0.0-6.0-0.0-8.0-0.24","3","3","3","3","3","3","3","3","3","2","4","2","2","4","4","4","4","4","4","4","4","4","4","4","4","4","4","4","4","1","0","1","1","0","0","1","1","1","1","1","0","1","0","1","4","2","2","2","4","5","2","4","4","4","4","718769387863015424","黄","442","","","","","","","","","","","","","","","","","","","","","","","","","","","","","","","","","","","","","","","","","",""
"625","<p style=""color:rgb(150, 250, 100); font-size: 35px;"">他人</p>","e","categorize-html","157","208971","0.0-6.0-0.0-8.0-1.24","3","3","3","3","3","3","3","3","3","2","4","2","2","4","4","4","4","4","4","4","4","4","4","4","4","4","4","4","4","1","0","1","1","0","0","1","1","1","1","1","0","1","0","1","4","2","2","2","4","5","2","4","4","4","4","718769387863015424","黄","442","","","","","","","","","","","","","","","","","","","true","4","4","ability","625","other","他人","","","","","","","","","","","","","","","","",""
"null","","null","html-keyboard-response","158","209222","0.0-6.0-0.0-8.0-0.25","3","3","3","3","3","3","3","3","3","2","4","2","2","4","4","4","4","4","4","4","4","4","4","4","4","4","4","4","4","1","0","1","1","0","0","1","1","1","1","1","0","1","0","1","4","2","2","2","4","5","2","4","4","4","4","718769387863015424","黄","442","","","","","","","","","","","","","","","","","","","","","","","","","","","","","","","","","","","","","","","","","",""
"575","<p style=""color:white; font-size: 35px;"">蠢笨</p>","i","categorize-html","159","209798","0.0-6.0-0.0-8.0-1.25","3","3","3","3","3","3","3","3","3","2","4","2","2","4","4","4","4","4","4","4","4","4","4","4","4","4","4","4","4","1","0","1","1","0","0","1","1","1","1","1","0","1","0","1","4","2","2","2","4","5","2","4","4","4","4","718769387863015424","黄","442","","","","","","","","","","","","","","","","","","","true","4","4","ability","575","negative","蠢笨","","","","","","","","","","","","","","","","",""
"null","","null","html-keyboard-response","160","210048","0.0-6.0-0.0-8.0-0.26","3","3","3","3","3","3","3","3","3","2","4","2","2","4","4","4","4","4","4","4","4","4","4","4","4","4","4","4","4","1","0","1","1","0","0","1","1","1","1","1","0","1","0","1","4","2","2","2","4","5","2","4","4","4","4","718769387863015424","黄","442","","","","","","","","","","","","","","","","","","","","","","","","","","","","","","","","","","","","","","","","","",""
"997","<p style=""color:rgb(150, 250, 100); font-size: 35px;"">本人</p>","i","categorize-html","161","211046","0.0-6.0-0.0-8.0-1.26","3","3","3","3","3","3","3","3","3","2","4","2","2","4","4","4","4","4","4","4","4","4","4","4","4","4","4","4","4","1","0","1","1","0","0","1","1","1","1","1","0","1","0","1","4","2","2","2","4","5","2","4","4","4","4","718769387863015424","黄","442","","","","","","","","","","","","","","","","","","","true","4","4","ability","997","self","本人","","","","","","","","","","","","","","","","",""
"null","","null","html-keyboard-response","162","211297","0.0-6.0-0.0-8.0-0.27","3","3","3","3","3","3","3","3","3","2","4","2","2","4","4","4","4","4","4","4","4","4","4","4","4","4","4","4","4","1","0","1","1","0","0","1","1","1","1","1","0","1","0","1","4","2","2","2","4","5","2","4","4","4","4","718769387863015424","黄","442","","","","","","","","","","","","","","","","","","","","","","","","","","","","","","","","","","","","","","","","","",""
"567","<p style=""color:white; font-size: 35px;"">精干</p>","e","categorize-html","163","211865","0.0-6.0-0.0-8.0-1.27","3","3","3","3","3","3","3","3","3","2","4","2","2","4","4","4","4","4","4","4","4","4","4","4","4","4","4","4","4","1","0","1","1","0","0","1","1","1","1","1","0","1","0","1","4","2","2","2","4","5","2","4","4","4","4","718769387863015424","黄","442","","","","","","","","","","","","","","","","","","","true","4","4","ability","567","positive","精干","","","","","","","","","","","","","","","","",""
"null","","null","html-keyboard-response","164","212115","0.0-6.0-0.0-8.0-0.28","3","3","3","3","3","3","3","3","3","2","4","2","2","4","4","4","4","4","4","4","4","4","4","4","4","4","4","4","4","1","0","1","1","0","0","1","1","1","1","1","0","1","0","1","4","2","2","2","4","5","2","4","4","4","4","718769387863015424","黄","442","","","","","","","","","","","","","","","","","","","","","","","","","","","","","","","","","","","","","","","","","",""
"585","<p style=""color:rgb(150, 250, 100); font-size: 35px;"">他的</p>","e","categorize-html","165","212701","0.0-6.0-0.0-8.0-1.28","3","3","3","3","3","3","3","3","3","2","4","2","2","4","4","4","4","4","4","4","4","4","4","4","4","4","4","4","4","1","0","1","1","0","0","1","1","1","1","1","0","1","0","1","4","2","2","2","4","5","2","4","4","4","4","718769387863015424","黄","442","","","","","","","","","","","","","","","","","","","true","4","4","ability","585","other","他的","","","","","","","","","","","","","","","","",""
"null","","null","html-keyboard-response","166","212952","0.0-6.0-0.0-8.0-0.29","3","3","3","3","3","3","3","3","3","2","4","2","2","4","4","4","4","4","4","4","4","4","4","4","4","4","4","4","4","1","0","1","1","0","0","1","1","1","1","1","0","1","0","1","4","2","2","2","4","5","2","4","4","4","4","718769387863015424","黄","442","","","","","","","","","","","","","","","","","","","","","","","","","","","","","","","","","","","","","","","","","",""
"616","<p style=""color:white; font-size: 35px;"">愚钝</p>","i","categorize-html","167","213568","0.0-6.0-0.0-8.0-1.29","3","3","3","3","3","3","3","3","3","2","4","2","2","4","4","4","4","4","4","4","4","4","4","4","4","4","4","4","4","1","0","1","1","0","0","1","1","1","1","1","0","1","0","1","4","2","2","2","4","5","2","4","4","4","4","718769387863015424","黄","442","","","","","","","","","","","","","","","","","","","true","4","4","ability","616","negative","愚钝","","","","","","","","","","","","","","","","",""
"null","","null","html-keyboard-response","168","213819","0.0-6.0-0.0-8.0-0.30","3","3","3","3","3","3","3","3","3","2","4","2","2","4","4","4","4","4","4","4","4","4","4","4","4","4","4","4","4","1","0","1","1","0","0","1","1","1","1","1","0","1","0","1","4","2","2","2","4","5","2","4","4","4","4","718769387863015424","黄","442","","","","","","","","","","","","","","","","","","","","","","","","","","","","","","","","","","","","","","","","","",""
"626","<p style=""color:rgb(150, 250, 100); font-size: 35px;"">本人的</p>","i","categorize-html","169","214446","0.0-6.0-0.0-8.0-1.30","3","3","3","3","3","3","3","3","3","2","4","2","2","4","4","4","4","4","4","4","4","4","4","4","4","4","4","4","4","1","0","1","1","0","0","1","1","1","1","1","0","1","0","1","4","2","2","2","4","5","2","4","4","4","4","718769387863015424","黄","442","","","","","","","","","","","","","","","","","","","true","4","4","ability","626","self","本人的","","","","","","","","","","","","","","","","",""
"null","","null","html-keyboard-response","170","214696","0.0-6.0-0.0-8.0-0.31","3","3","3","3","3","3","3","3","3","2","4","2","2","4","4","4","4","4","4","4","4","4","4","4","4","4","4","4","4","1","0","1","1","0","0","1","1","1","1","1","0","1","0","1","4","2","2","2","4","5","2","4","4","4","4","718769387863015424","黄","442","","","","","","","","","","","","","","","","","","","","","","","","","","","","","","","","","","","","","","","","","",""
"820","<p style=""color:white; font-size: 35px;"">全能</p>","e","categorize-html","171","215518","0.0-6.0-0.0-8.0-1.31","3","3","3","3","3","3","3","3","3","2","4","2","2","4","4","4","4","4","4","4","4","4","4","4","4","4","4","4","4","1","0","1","1","0","0","1","1","1","1","1","0","1","0","1","4","2","2","2","4","5","2","4","4","4","4","718769387863015424","黄","442","","","","","","","","","","","","","","","","","","","true","4","4","ability","820","positive","全能","","","","","","","","","","","","","","","","",""
"null","","null","html-keyboard-response","172","215769","0.0-6.0-0.0-8.0-0.32","3","3","3","3","3","3","3","3","3","2","4","2","2","4","4","4","4","4","4","4","4","4","4","4","4","4","4","4","4","1","0","1","1","0","0","1","1","1","1","1","0","1","0","1","4","2","2","2","4","5","2","4","4","4","4","718769387863015424","黄","442","","","","","","","","","","","","","","","","","","","","","","","","","","","","","","","","","","","","","","","","","",""
"537","<p style=""color:rgb(150, 250, 100); font-size: 35px;"">他</p>","e","categorize-html","173","216307","0.0-6.0-0.0-8.0-1.32","3","3","3","3","3","3","3","3","3","2","4","2","2","4","4","4","4","4","4","4","4","4","4","4","4","4","4","4","4","1","0","1","1","0","0","1","1","1","1","1","0","1","0","1","4","2","2","2","4","5","2","4","4","4","4","718769387863015424","黄","442","","","","","","","","","","","","","","","","","","","true","4","4","ability","537","other","他","","","","","","","","","","","","","","","","",""
"null","","null","html-keyboard-response","174","216557","0.0-6.0-0.0-8.0-0.33","3","3","3","3","3","3","3","3","3","2","4","2","2","4","4","4","4","4","4","4","4","4","4","4","4","4","4","4","4","1","0","1","1","0","0","1","1","1","1","1","0","1","0","1","4","2","2","2","4","5","2","4","4","4","4","718769387863015424","黄","442","","","","","","","","","","","","","","","","","","","","","","","","","","","","","","","","","","","","","","","","","",""
"561","<p style=""color:white; font-size: 35px;"">拙笨</p>","i","categorize-html","175","217119","0.0-6.0-0.0-8.0-1.33","3","3","3","3","3","3","3","3","3","2","4","2","2","4","4","4","4","4","4","4","4","4","4","4","4","4","4","4","4","1","0","1","1","0","0","1","1","1","1","1","0","1","0","1","4","2","2","2","4","5","2","4","4","4","4","718769387863015424","黄","442","","","","","","","","","","","","","","","","","","","true","4","4","ability","561","negative","拙笨","","","","","","","","","","","","","","","","",""
"null","","null","html-keyboard-response","176","217370","0.0-6.0-0.0-8.0-0.34","3","3","3","3","3","3","3","3","3","2","4","2","2","4","4","4","4","4","4","4","4","4","4","4","4","4","4","4","4","1","0","1","1","0","0","1","1","1","1","1","0","1","0","1","4","2","2","2","4","5","2","4","4","4","4","718769387863015424","黄","442","","","","","","","","","","","","","","","","","","","","","","","","","","","","","","","","","","","","","","","","","",""
"550","<p style=""color:rgb(150, 250, 100); font-size: 35px;"">我</p>","i","categorize-html","177","217921","0.0-6.0-0.0-8.0-1.34","3","3","3","3","3","3","3","3","3","2","4","2","2","4","4","4","4","4","4","4","4","4","4","4","4","4","4","4","4","1","0","1","1","0","0","1","1","1","1","1","0","1","0","1","4","2","2","2","4","5","2","4","4","4","4","718769387863015424","黄","442","","","","","","","","","","","","","","","","","","","true","4","4","ability","550","self","我","","","","","","","","","","","","","","","","",""
"null","","null","html-keyboard-response","178","218172","0.0-6.0-0.0-8.0-0.35","3","3","3","3","3","3","3","3","3","2","4","2","2","4","4","4","4","4","4","4","4","4","4","4","4","4","4","4","4","1","0","1","1","0","0","1","1","1","1","1","0","1","0","1","4","2","2","2","4","5","2","4","4","4","4","718769387863015424","黄","442","","","","","","","","","","","","","","","","","","","","","","","","","","","","","","","","","","","","","","","","","",""
"826","<p style=""color:white; font-size: 35px;"">高效</p>","e","categorize-html","179","218999","0.0-6.0-0.0-8.0-1.35","3","3","3","3","3","3","3","3","3","2","4","2","2","4","4","4","4","4","4","4","4","4","4","4","4","4","4","4","4","1","0","1","1","0","0","1","1","1","1","1","0","1","0","1","4","2","2","2","4","5","2","4","4","4","4","718769387863015424","黄","442","","","","","","","","","","","","","","","","","","","true","4","4","ability","826","positive","高效","","","","","","","","","","","","","","","","",""
"null","","null","html-keyboard-response","180","219250","0.0-6.0-0.0-8.0-0.36","3","3","3","3","3","3","3","3","3","2","4","2","2","4","4","4","4","4","4","4","4","4","4","4","4","4","4","4","4","1","0","1","1","0","0","1","1","1","1","1","0","1","0","1","4","2","2","2","4","5","2","4","4","4","4","718769387863015424","黄","442","","","","","","","","","","","","","","","","","","","","","","","","","","","","","","","","","","","","","","","","","",""
"1085","<p style=""color:rgb(150, 250, 100); font-size: 35px;"">我的</p>","i","categorize-html","181","220336","0.0-6.0-0.0-8.0-1.36","3","3","3","3","3","3","3","3","3","2","4","2","2","4","4","4","4","4","4","4","4","4","4","4","4","4","4","4","4","1","0","1","1","0","0","1","1","1","1","1","0","1","0","1","4","2","2","2","4","5","2","4","4","4","4","718769387863015424","黄","442","","","","","","","","","","","","","","","","","","","true","4","4","ability","1085","self","我的","","","","","","","","","","","","","","","","",""
"null","","null","html-keyboard-response","182","220587","0.0-6.0-0.0-8.0-0.37","3","3","3","3","3","3","3","3","3","2","4","2","2","4","4","4","4","4","4","4","4","4","4","4","4","4","4","4","4","1","0","1","1","0","0","1","1","1","1","1","0","1","0","1","4","2","2","2","4","5","2","4","4","4","4","718769387863015424","黄","442","","","","","","","","","","","","","","","","","","","","","","","","","","","","","","","","","","","","","","","","","",""
"571","<p style=""color:white; font-size: 35px;"">天才</p>","e","categorize-html","183","221159","0.0-6.0-0.0-8.0-1.37","3","3","3","3","3","3","3","3","3","2","4","2","2","4","4","4","4","4","4","4","4","4","4","4","4","4","4","4","4","1","0","1","1","0","0","1","1","1","1","1","0","1","0","1","4","2","2","2","4","5","2","4","4","4","4","718769387863015424","黄","442","","","","","","","","","","","","","","","","","","","true","4","4","ability","571","positive","天才","","","","","","","","","","","","","","","","",""
"null","","null","html-keyboard-response","184","221410","0.0-6.0-0.0-8.0-0.38","3","3","3","3","3","3","3","3","3","2","4","2","2","4","4","4","4","4","4","4","4","4","4","4","4","4","4","4","4","1","0","1","1","0","0","1","1","1","1","1","0","1","0","1","4","2","2","2","4","5","2","4","4","4","4","718769387863015424","黄","442","","","","","","","","","","","","","","","","","","","","","","","","","","","","","","","","","","","","","","","","","",""
"580","<p style=""color:rgb(150, 250, 100); font-size: 35px;"">别人</p>","e","categorize-html","185","221990","0.0-6.0-0.0-8.0-1.38","3","3","3","3","3","3","3","3","3","2","4","2","2","4","4","4","4","4","4","4","4","4","4","4","4","4","4","4","4","1","0","1","1","0","0","1","1","1","1","1","0","1","0","1","4","2","2","2","4","5","2","4","4","4","4","718769387863015424","黄","442","","","","","","","","","","","","","","","","","","","true","4","4","ability","580","other","别人","","","","","","","","","","","","","","","","",""
"null","","null","html-keyboard-response","186","222241","0.0-6.0-0.0-8.0-0.39","3","3","3","3","3","3","3","3","3","2","4","2","2","4","4","4","4","4","4","4","4","4","4","4","4","4","4","4","4","1","0","1","1","0","0","1","1","1","1","1","0","1","0","1","4","2","2","2","4","5","2","4","4","4","4","718769387863015424","黄","442","","","","","","","","","","","","","","","","","","","","","","","","","","","","","","","","","","","","","","","","","",""
"551","<p style=""color:white; font-size: 35px;"">低能</p>","i","categorize-html","187","222793","0.0-6.0-0.0-8.0-1.39","3","3","3","3","3","3","3","3","3","2","4","2","2","4","4","4","4","4","4","4","4","4","4","4","4","4","4","4","4","1","0","1","1","0","0","1","1","1","1","1","0","1","0","1","4","2","2","2","4","5","2","4","4","4","4","718769387863015424","黄","442","","","","","","","","","","","","","","","","","","","true","4","4","ability","551","negative","低能","","","","","","","","","","","","","","","","",""
"null","","null","html-keyboard-response","188","223043","0.0-6.0-0.0-8.0-0.40","3","3","3","3","3","3","3","3","3","2","4","2","2","4","4","4","4","4","4","4","4","4","4","4","4","4","4","4","4","1","0","1","1","0","0","1","1","1","1","1","0","1","0","1","4","2","2","2","4","5","2","4","4","4","4","718769387863015424","黄","442","","","","","","","","","","","","","","","","","","","","","","","","","","","","","","","","","","","","","","","","","",""
"889","<p style=""color:rgb(150, 250, 100); font-size: 35px;"">我</p>","i","categorize-html","189","223933","0.0-6.0-0.0-8.0-1.40","3","3","3","3","3","3","3","3","3","2","4","2","2","4","4","4","4","4","4","4","4","4","4","4","4","4","4","4","4","1","0","1","1","0","0","1","1","1","1","1","0","1","0","1","4","2","2","2","4","5","2","4","4","4","4","718769387863015424","黄","442","","","","","","","","","","","","","","","","","","","true","4","4","ability","889","self","我","","","","","","","","","","","","","","","","",""
"null","","null","html-keyboard-response","190","224184","0.0-6.0-0.0-8.0-0.41","3","3","3","3","3","3","3","3","3","2","4","2","2","4","4","4","4","4","4","4","4","4","4","4","4","4","4","4","4","1","0","1","1","0","0","1","1","1","1","1","0","1","0","1","4","2","2","2","4","5","2","4","4","4","4","718769387863015424","黄","442","","","","","","","","","","","","","","","","","","","","","","","","","","","","","","","","","","","","","","","","","",""
"617","<p style=""color:white; font-size: 35px;"">天才</p>","e","categorize-html","191","224801","0.0-6.0-0.0-8.0-1.41","3","3","3","3","3","3","3","3","3","2","4","2","2","4","4","4","4","4","4","4","4","4","4","4","4","4","4","4","4","1","0","1","1","0","0","1","1","1","1","1","0","1","0","1","4","2","2","2","4","5","2","4","4","4","4","718769387863015424","黄","442","","","","","","","","","","","","","","","","","","","true","4","4","ability","617","positive","天才","","","","","","","","","","","","","","","","",""
"null","","null","html-keyboard-response","192","225052","0.0-6.0-0.0-8.0-0.42","3","3","3","3","3","3","3","3","3","2","4","2","2","4","4","4","4","4","4","4","4","4","4","4","4","4","4","4","4","1","0","1","1","0","0","1","1","1","1","1","0","1","0","1","4","2","2","2","4","5","2","4","4","4","4","718769387863015424","黄","442","","","","","","","","","","","","","","","","","","","","","","","","","","","","","","","","","","","","","","","","","",""
"863","<p style=""color:rgb(150, 250, 100); font-size: 35px;"">别人</p>","e","categorize-html","193","225916","0.0-6.0-0.0-8.0-1.42","3","3","3","3","3","3","3","3","3","2","4","2","2","4","4","4","4","4","4","4","4","4","4","4","4","4","4","4","4","1","0","1","1","0","0","1","1","1","1","1","0","1","0","1","4","2","2","2","4","5","2","4","4","4","4","718769387863015424","黄","442","","","","","","","","","","","","","","","","","","","true","4","4","ability","863","other","别人","","","","","","","","","","","","","","","","",""
