"rt","stimulus","response","trial_type","trial_index","time_elapsed","internal_node_id","ses_1","ses_2","ses_3","ses_4","ses_5","ses_6","ses_7","ses_8","ses_9","ses_10","coreself_1","coreself_2","coreself_3","coreself_4","coreself_5","coreself_6","coreself_7","coreself_8","coreself_9","coreself_10","SGPS_1","SGPS_2","SGPS_3","SGPS_4","SGPS_5","SGPS_6","SGPS_7","SGPS_8","SGPS_9","NPI1","NPI2","NPI3","NPI4","NPI5","NPI6","NPI7","NPI8","NPI9","NPI10","NPI11","NPI12","NPI13","NPI14","NPI15","hsns_1","hsns_2","hsns_3","hsns_4","hsns_5","trap1","hsns_6","hsns_7","hsns_8","hsns_9","hsns_10","subj_idx","friend_name","ParticipantID","value","success","user_agent","responses","item_order","radio_event_ids","radio_event_times","key_event_times","mouse_event_times","straightlining","zigzagging","honeypot","timeout","failed_images","failed_audio","failed_video","version_attrib","version_target","correct","IAT","screen_id","task_id","RT","condition","word","varname","summary","version_attrib2","version_target2","time_stamp","view_history","response_type","key_press","avg_frame_time","center_x","center_y","correct_response","identity","Image","question_order","correct_answer","trap1_item"
"46907","
   <p><div style = ""color: white;font-size:25px;"">您好，欢迎参加本次实验。</div> </p>
   <p><div style = ""color: white;font-size:25px;"">为充分保障您的权利，请确保您已经知晓并同意《参与实验同意书》以及《数据公开知情同意书》。</div></p>
   <p><div style = ""color: white;font-size:25px;"">如果您未见过上述内容，请咨询实验员。</div></p>
   <p><div style = ""color: white;font-size:25px;"">如果您选择继续实验，则表示您已经清楚两份知情同意书的内容并同意。</div></p>
   <p><div style = ""color: pink;font-size:30px;"">请确保您记得day0的实验编号，您将在本次实验输入该编号，若您忘记，请咨询实验员后作答。</div></p>
   <p><div style = ""color: lightblue;font-size:25px;"">请您尽可能认真地作答，我们将依据您在各问卷和按键任务中的作答质量发放报酬。</div></p>
   <p> <div style = ""color: green;font-size:25px;""><按空格键至下页></div> </p>
   "," ","html-keyboard-response","0","46909","0.0-0.0","4","4","4","4","4","4","4","4","4","3","5","2","2","4","2","5","5","5","4","4","5","5","5","5","5","5","5","5","5","1","1","0","0","1","1","0","1","1","0","1","0","1","0","0","5","5","5","1","5","","1","5","5","5","2","787084202704248834","秦","378","","","","","","","","","","","","","","","","","","","","","","","","","","","","","","","","","","","","","","","","","",""
"","","","call-function","1","46910","0.0-1.0-0.0","4","4","4","4","4","4","4","4","4","3","5","2","2","4","2","5","5","5","4","4","5","5","5","5","5","5","5","5","5","1","1","0","0","1","1","0","1","1","0","1","0","1","0","0","5","5","5","1","5","","1","5","5","5","2","787084202704248834","秦","378","","","","","","","","","","","","","","","","","","","","","","","","","","","","","","","","","","","","","","","","","",""
"84119","","{""friend_name"":""秦"",""ParticipantID"":""378""}","survey-html-form","2","131031","0.0-1.0-1.0","4","4","4","4","4","4","4","4","4","3","5","2","2","4","2","5","5","5","4","4","5","5","5","5","5","5","5","5","5","1","1","0","0","1","1","0","1","1","0","1","0","1","0","0","5","5","5","1","5","","1","5","5","5","2","787084202704248834","秦","378","","","","","","","","","","","","","","","","","","","","","","","","","","","","","","","","","","","","","","","","","",""
"","","","fullscreen","3","199709","0.0-2.0","4","4","4","4","4","4","4","4","4","3","5","2","2","4","2","5","5","5","4","4","5","5","5","5","5","5","5","5","5","1","1","0","0","1","1","0","1","1","0","1","0","1","0","0","5","5","5","1","5","","1","5","5","5","2","787084202704248834","秦","378","","true","{}","","","","","","","","","","","","","","","","","","","","","","","","","","","","","","","","","","","","","","",""
"61739.5","","{""Q01"":""4"",""Q02"":""4"",""Q03"":""4"",""Q04"":""4"",""Q05"":""4"",""Q06"":""4"",""Q07"":""4"",""Q08"":""4"",""Q09"":""4"",""Q10"":""3""}","survey-template","4","261450","0.0-3.0","4","4","4","4","4","4","4","4","4","3","5","2","2","4","2","5","5","5","4","4","5","5","5","5","5","5","5","5","5","1","1","0","0","1","1","0","1","1","0","1","0","1","0","0","5","5","5","1","5","","1","5","5","5","2","787084202704248834","秦","378","","","","{""Q01"":""4"",""Q02"":""4"",""Q03"":""4"",""Q04"":""4"",""Q05"":""4"",""Q06"":""4"",""Q07"":""4"",""Q08"":""4"",""Q09"":""4"",""Q10"":""3""}","[0,1,2,3,4,5,6,7,8,9]","[""Q01"",""Q02"",""Q03"",""Q04"",""Q05"",""Q06"",""Q07"",""Q08"",""Q09"",""Q10""]","[15190.70000000298,19542.5,24478,29678.59999999404,33790.39999999106,37518.59999999404,42477.89999999106,51142.70000000298,53494.09999999404,60151]","[]","[15190.70000000298,19542.5,24478,29678.59999999404,33790.39999999106,37518.59999999404,42477.89999999106,48622.39999999106,51142.70000000298,53494.09999999404,60151,61738.39999999106]","0.5","0.6666666666666666","0","","","","","","","","","","","","","","","","","","","","","","","","","","","","","",""
"57567.59999999404","","{""Q01"":""5"",""Q02"":""2"",""Q03"":""2"",""Q04"":""4"",""Q05"":""2"",""Q06"":""5"",""Q07"":""5"",""Q08"":""5"",""Q09"":""4"",""Q10"":""4""}","survey-template","5","319023","0.0-4.0","4","4","4","4","4","4","4","4","4","3","5","2","2","4","2","5","5","5","4","4","5","5","5","5","5","5","5","5","5","1","1","0","0","1","1","0","1","1","0","1","0","1","0","0","5","5","5","1","5","","1","5","5","5","2","787084202704248834","秦","378","","","","{""Q01"":""5"",""Q02"":""2"",""Q03"":""2"",""Q04"":""4"",""Q05"":""2"",""Q06"":""5"",""Q07"":""5"",""Q08"":""5"",""Q09"":""4"",""Q10"":""4""}","[0,1,2,3,4,5,6,7,8,9]","[""Q01"",""Q02"",""Q03"",""Q04"",""Q05"",""Q06"",""Q07"",""Q07"",""Q08"",""Q09"",""Q10""]","[9376.09999999404,15838.40000000596,19909.79999999702,23533.40000000596,28413.29999999702,30269.59999999404,41029.79999999702,43605.59999999404,49117.79999999702,51917.40000000596,56272]","[]","[9376.09999999404,15838.40000000596,19909.79999999702,23533.40000000596,28413.29999999702,30269.59999999404,41029.79999999702,43605.59999999404,48406,49117.79999999702,51917.40000000596,56272,57566.09999999404]","0.5","0.3333333333333333","0","","","","","","","","","","","","","","","","","","","","","","","","","","","","","",""
"","","","preload","6","319429","0.0-5.0","4","4","4","4","4","4","4","4","4","3","5","2","2","4","2","5","5","5","4","4","5","5","5","5","5","5","5","5","5","1","1","0","0","1","1","0","1","1","0","1","0","1","0","0","5","5","5","1","5","","1","5","5","5","2","787084202704248834","秦","378","","true","","","","","","","","","","","false","[]","[]","[]","","","","","","","","","","","","","","","","","","","","","","","","","",""
"25735","
    <h3>词语分类任务</h3>
    <p>在接下来的任务中，你需要对一系列词语进行分类。</p>
    <p>请先熟悉这些词语，这有利于你完成接下来的任务。</p>
    <table align=""center"" border=1 cellpadding=3 cellspacing=0>
    <tr> <th>类别</th> <th>词语</th> </tr>
    <tr> <td>&emsp;积极&emsp;</td> <td>&emsp;能干、全能、全才、高效、精干、天才&emsp;</td> </tr>
    <tr> <td>&emsp;消极&emsp;</td> <td>&emsp;无能、低能、废物、拙笨、愚钝、蠢笨&emsp;</td> </tr>
    <tr> <td>&emsp;自我&emsp;</td> <td>&emsp;我、我的、自己、自己的、本人、本人的&emsp;</td> </tr>
    <tr> <td>&emsp;他人&emsp;</td> <td>&emsp;他、他的、别人、别人的、他人、他人的&emsp;</td> </tr>
    </table><br/>","0","html-button-response","7","345165","0.0-6.0-0.0-0.0","4","4","4","4","4","4","4","4","4","3","5","2","2","4","2","5","5","5","4","4","5","5","5","5","5","5","5","5","5","1","1","0","0","1","1","0","1","1","0","1","0","1","0","0","5","5","5","1","5","","1","5","5","5","2","787084202704248834","秦","378","","","","","","","","","","","","","","","","","2","2","","","","","","","","","","","","","","","","","","","","","","","",""
"55143","
    <div class=""tag-bottom"">
    <p> —— 任务1：对“他人”词和“自我”词分类 ——<p/>
    不同词语会出现在屏幕中央，类别标签将始终显示在屏幕上方<p/>   
    <span style=""color:#FFD866""><b>请根据上方标签的提示，尽可能正确并且快速地做出按键反应</b></span><p/>
    当按键错误时屏幕中会出现<span style=""color:red""> X </span>，需要按另一个键纠正才能继续<br/><p/>
    请把双手食指分别放在键盘的“E”键和“I”键上<p/>
    按<空格键>开始
    </p></div>"," ","html-keyboard-response","8","400311","0.0-6.0-0.0-1.0","4","4","4","4","4","4","4","4","4","3","5","2","2","4","2","5","5","5","4","4","5","5","5","5","5","5","5","5","5","1","1","0","0","1","1","0","1","1","0","1","0","1","0","0","5","5","5","1","5","","1","5","5","5","2","787084202704248834","秦","378","","","","","","","","","","","","","","","","","","","","","","","","","","","","","","","","","","","","","","","","","",""
"null","","null","html-keyboard-response","9","400562","0.0-6.0-0.0-2.0-0.0","4","4","4","4","4","4","4","4","4","3","5","2","2","4","2","5","5","5","4","4","5","5","5","5","5","5","5","5","5","1","1","0","0","1","1","0","1","1","0","1","0","1","0","0","5","5","5","1","5","","1","5","5","5","2","787084202704248834","秦","378","","","","","","","","","","","","","","","","","","","","","","","","","","","","","","","","","","","","","","","","","",""
"1680","<p style=""color:rgb(150, 250, 100); font-size: 35px;"">本人的</p>","i","categorize-html","10","402245","0.0-6.0-0.0-2.0-1.0","4","4","4","4","4","4","4","4","4","3","5","2","2","4","2","5","5","5","4","4","5","5","5","5","5","5","5","5","5","1","1","0","0","1","1","0","1","1","0","1","0","1","0","0","5","5","5","1","5","","1","5","5","5","2","787084202704248834","秦","378","","","","","","","","","","","","","","","","","","","true","1","1","ability","1680","self","本人的","","","","","","","","","","","","","","","","",""
"null","","null","html-keyboard-response","11","402497","0.0-6.0-0.0-2.0-0.1","4","4","4","4","4","4","4","4","4","3","5","2","2","4","2","5","5","5","4","4","5","5","5","5","5","5","5","5","5","1","1","0","0","1","1","0","1","1","0","1","0","1","0","0","5","5","5","1","5","","1","5","5","5","2","787084202704248834","秦","378","","","","","","","","","","","","","","","","","","","","","","","","","","","","","","","","","","","","","","","","","",""
"585","<p style=""color:rgb(150, 250, 100); font-size: 35px;"">本人</p>","i","categorize-html","12","403082","0.0-6.0-0.0-2.0-1.1","4","4","4","4","4","4","4","4","4","3","5","2","2","4","2","5","5","5","4","4","5","5","5","5","5","5","5","5","5","1","1","0","0","1","1","0","1","1","0","1","0","1","0","0","5","5","5","1","5","","1","5","5","5","2","787084202704248834","秦","378","","","","","","","","","","","","","","","","","","","true","1","1","ability","585","self","本人","","","","","","","","","","","","","","","","",""
"null","","null","html-keyboard-response","13","403334","0.0-6.0-0.0-2.0-0.2","4","4","4","4","4","4","4","4","4","3","5","2","2","4","2","5","5","5","4","4","5","5","5","5","5","5","5","5","5","1","1","0","0","1","1","0","1","1","0","1","0","1","0","0","5","5","5","1","5","","1","5","5","5","2","787084202704248834","秦","378","","","","","","","","","","","","","","","","","","","","","","","","","","","","","","","","","","","","","","","","","",""
"488","<p style=""color:rgb(150, 250, 100); font-size: 35px;"">我</p>","i","categorize-html","14","403822","0.0-6.0-0.0-2.0-1.2","4","4","4","4","4","4","4","4","4","3","5","2","2","4","2","5","5","5","4","4","5","5","5","5","5","5","5","5","5","1","1","0","0","1","1","0","1","1","0","1","0","1","0","0","5","5","5","1","5","","1","5","5","5","2","787084202704248834","秦","378","","","","","","","","","","","","","","","","","","","true","1","1","ability","488","self","我","","","","","","","","","","","","","","","","",""
"null","","null","html-keyboard-response","15","404073","0.0-6.0-0.0-2.0-0.3","4","4","4","4","4","4","4","4","4","3","5","2","2","4","2","5","5","5","4","4","5","5","5","5","5","5","5","5","5","1","1","0","0","1","1","0","1","1","0","1","0","1","0","0","5","5","5","1","5","","1","5","5","5","2","787084202704248834","秦","378","","","","","","","","","","","","","","","","","","","","","","","","","","","","","","","","","","","","","","","","","",""
"663","<p style=""color:rgb(150, 250, 100); font-size: 35px;"">别人的</p>","e","categorize-html","16","404737","0.0-6.0-0.0-2.0-1.3","4","4","4","4","4","4","4","4","4","3","5","2","2","4","2","5","5","5","4","4","5","5","5","5","5","5","5","5","5","1","1","0","0","1","1","0","1","1","0","1","0","1","0","0","5","5","5","1","5","","1","5","5","5","2","787084202704248834","秦","378","","","","","","","","","","","","","","","","","","","true","1","1","ability","663","other","别人的","","","","","","","","","","","","","","","","",""
"null","","null","html-keyboard-response","17","404989","0.0-6.0-0.0-2.0-0.4","4","4","4","4","4","4","4","4","4","3","5","2","2","4","2","5","5","5","4","4","5","5","5","5","5","5","5","5","5","1","1","0","0","1","1","0","1","1","0","1","0","1","0","0","5","5","5","1","5","","1","5","5","5","2","787084202704248834","秦","378","","","","","","","","","","","","","","","","","","","","","","","","","","","","","","","","","","","","","","","","","",""
"606","<p style=""color:rgb(150, 250, 100); font-size: 35px;"">自己的</p>","i","categorize-html","18","405596","0.0-6.0-0.0-2.0-1.4","4","4","4","4","4","4","4","4","4","3","5","2","2","4","2","5","5","5","4","4","5","5","5","5","5","5","5","5","5","1","1","0","0","1","1","0","1","1","0","1","0","1","0","0","5","5","5","1","5","","1","5","5","5","2","787084202704248834","秦","378","","","","","","","","","","","","","","","","","","","true","1","1","ability","606","self","自己的","","","","","","","","","","","","","","","","",""
"null","","null","html-keyboard-response","19","405847","0.0-6.0-0.0-2.0-0.5","4","4","4","4","4","4","4","4","4","3","5","2","2","4","2","5","5","5","4","4","5","5","5","5","5","5","5","5","5","1","1","0","0","1","1","0","1","1","0","1","0","1","0","0","5","5","5","1","5","","1","5","5","5","2","787084202704248834","秦","378","","","","","","","","","","","","","","","","","","","","","","","","","","","","","","","","","","","","","","","","","",""
"547","<p style=""color:rgb(150, 250, 100); font-size: 35px;"">他</p>","e","categorize-html","20","406396","0.0-6.0-0.0-2.0-1.5","4","4","4","4","4","4","4","4","4","3","5","2","2","4","2","5","5","5","4","4","5","5","5","5","5","5","5","5","5","1","1","0","0","1","1","0","1","1","0","1","0","1","0","0","5","5","5","1","5","","1","5","5","5","2","787084202704248834","秦","378","","","","","","","","","","","","","","","","","","","true","1","1","ability","547","other","他","","","","","","","","","","","","","","","","",""
"null","","null","html-keyboard-response","21","406648","0.0-6.0-0.0-2.0-0.6","4","4","4","4","4","4","4","4","4","3","5","2","2","4","2","5","5","5","4","4","5","5","5","5","5","5","5","5","5","1","1","0","0","1","1","0","1","1","0","1","0","1","0","0","5","5","5","1","5","","1","5","5","5","2","787084202704248834","秦","378","","","","","","","","","","","","","","","","","","","","","","","","","","","","","","","","","","","","","","","","","",""
"583","<p style=""color:rgb(150, 250, 100); font-size: 35px;"">别人</p>","e","categorize-html","22","407232","0.0-6.0-0.0-2.0-1.6","4","4","4","4","4","4","4","4","4","3","5","2","2","4","2","5","5","5","4","4","5","5","5","5","5","5","5","5","5","1","1","0","0","1","1","0","1","1","0","1","0","1","0","0","5","5","5","1","5","","1","5","5","5","2","787084202704248834","秦","378","","","","","","","","","","","","","","","","","","","true","1","1","ability","583","other","别人","","","","","","","","","","","","","","","","",""
"null","","null","html-keyboard-response","23","407484","0.0-6.0-0.0-2.0-0.7","4","4","4","4","4","4","4","4","4","3","5","2","2","4","2","5","5","5","4","4","5","5","5","5","5","5","5","5","5","1","1","0","0","1","1","0","1","1","0","1","0","1","0","0","5","5","5","1","5","","1","5","5","5","2","787084202704248834","秦","378","","","","","","","","","","","","","","","","","","","","","","","","","","","","","","","","","","","","","","","","","",""
"604","<p style=""color:rgb(150, 250, 100); font-size: 35px;"">他的</p>","e","categorize-html","24","408089","0.0-6.0-0.0-2.0-1.7","4","4","4","4","4","4","4","4","4","3","5","2","2","4","2","5","5","5","4","4","5","5","5","5","5","5","5","5","5","1","1","0","0","1","1","0","1","1","0","1","0","1","0","0","5","5","5","1","5","","1","5","5","5","2","787084202704248834","秦","378","","","","","","","","","","","","","","","","","","","true","1","1","ability","604","other","他的","","","","","","","","","","","","","","","","",""
"null","","null","html-keyboard-response","25","408340","0.0-6.0-0.0-2.0-0.8","4","4","4","4","4","4","4","4","4","3","5","2","2","4","2","5","5","5","4","4","5","5","5","5","5","5","5","5","5","1","1","0","0","1","1","0","1","1","0","1","0","1","0","0","5","5","5","1","5","","1","5","5","5","2","787084202704248834","秦","378","","","","","","","","","","","","","","","","","","","","","","","","","","","","","","","","","","","","","","","","","",""
"578","<p style=""color:rgb(150, 250, 100); font-size: 35px;"">他人</p>","e","categorize-html","26","408919","0.0-6.0-0.0-2.0-1.8","4","4","4","4","4","4","4","4","4","3","5","2","2","4","2","5","5","5","4","4","5","5","5","5","5","5","5","5","5","1","1","0","0","1","1","0","1","1","0","1","0","1","0","0","5","5","5","1","5","","1","5","5","5","2","787084202704248834","秦","378","","","","","","","","","","","","","","","","","","","true","1","1","ability","578","other","他人","","","","","","","","","","","","","","","","",""
"null","","null","html-keyboard-response","27","409170","0.0-6.0-0.0-2.0-0.9","4","4","4","4","4","4","4","4","4","3","5","2","2","4","2","5","5","5","4","4","5","5","5","5","5","5","5","5","5","1","1","0","0","1","1","0","1","1","0","1","0","1","0","0","5","5","5","1","5","","1","5","5","5","2","787084202704248834","秦","378","","","","","","","","","","","","","","","","","","","","","","","","","","","","","","","","","","","","","","","","","",""
"533","<p style=""color:rgb(150, 250, 100); font-size: 35px;"">自己</p>","i","categorize-html","28","409704","0.0-6.0-0.0-2.0-1.9","4","4","4","4","4","4","4","4","4","3","5","2","2","4","2","5","5","5","4","4","5","5","5","5","5","5","5","5","5","1","1","0","0","1","1","0","1","1","0","1","0","1","0","0","5","5","5","1","5","","1","5","5","5","2","787084202704248834","秦","378","","","","","","","","","","","","","","","","","","","true","1","1","ability","533","self","自己","","","","","","","","","","","","","","","","",""
"null","","null","html-keyboard-response","29","409955","0.0-6.0-0.0-2.0-0.10","4","4","4","4","4","4","4","4","4","3","5","2","2","4","2","5","5","5","4","4","5","5","5","5","5","5","5","5","5","1","1","0","0","1","1","0","1","1","0","1","0","1","0","0","5","5","5","1","5","","1","5","5","5","2","787084202704248834","秦","378","","","","","","","","","","","","","","","","","","","","","","","","","","","","","","","","","","","","","","","","","",""
"577","<p style=""color:rgb(150, 250, 100); font-size: 35px;"">我的</p>","i","categorize-html","30","410533","0.0-6.0-0.0-2.0-1.10","4","4","4","4","4","4","4","4","4","3","5","2","2","4","2","5","5","5","4","4","5","5","5","5","5","5","5","5","5","1","1","0","0","1","1","0","1","1","0","1","0","1","0","0","5","5","5","1","5","","1","5","5","5","2","787084202704248834","秦","378","","","","","","","","","","","","","","","","","","","true","1","1","ability","577","self","我的","","","","","","","","","","","","","","","","",""
"null","","null","html-keyboard-response","31","410784","0.0-6.0-0.0-2.0-0.11","4","4","4","4","4","4","4","4","4","3","5","2","2","4","2","5","5","5","4","4","5","5","5","5","5","5","5","5","5","1","1","0","0","1","1","0","1","1","0","1","0","1","0","0","5","5","5","1","5","","1","5","5","5","2","787084202704248834","秦","378","","","","","","","","","","","","","","","","","","","","","","","","","","","","","","","","","","","","","","","","","",""
"584","<p style=""color:rgb(150, 250, 100); font-size: 35px;"">他人的</p>","e","categorize-html","32","411369","0.0-6.0-0.0-2.0-1.11","4","4","4","4","4","4","4","4","4","3","5","2","2","4","2","5","5","5","4","4","5","5","5","5","5","5","5","5","5","1","1","0","0","1","1","0","1","1","0","1","0","1","0","0","5","5","5","1","5","","1","5","5","5","2","787084202704248834","秦","378","","","","","","","","","","","","","","","","","","","true","1","1","ability","584","other","他人的","","","","","","","","","","","","","","","","",""
"16278","
    <div class=""tag-bottom""><p>
    —— 任务2：对“消极”词和“积极”词分类 ——<p/>   
    <span style=""color:#78DCE8""><b>注意上方，类别标签和需要分类的词语都已经改变</b></span><p/>
    <span style=""color:#FFD866""><b>请根据上方标签的提示，尽可能正确并且快速地做出按键反应</b></span><p/>
    当按键错误时屏幕中会出现<span style=""color:red""> X </span>，需要按另一个键纠正才能继续<br/><p/>
    请把双手食指分别放在键盘的“E”键和“I”键上<p/>
    按<空格键>开始
    </p></div>"," ","html-keyboard-response","33","427647","0.0-6.0-0.0-3.0","4","4","4","4","4","4","4","4","4","3","5","2","2","4","2","5","5","5","4","4","5","5","5","5","5","5","5","5","5","1","1","0","0","1","1","0","1","1","0","1","0","1","0","0","5","5","5","1","5","","1","5","5","5","2","787084202704248834","秦","378","","","","","","","","","","","","","","","","","","","","","","","","","","","","","","","","","","","","","","","","","",""
"null","","null","html-keyboard-response","34","427898","0.0-6.0-0.0-4.0-0.0","4","4","4","4","4","4","4","4","4","3","5","2","2","4","2","5","5","5","4","4","5","5","5","5","5","5","5","5","5","1","1","0","0","1","1","0","1","1","0","1","0","1","0","0","5","5","5","1","5","","1","5","5","5","2","787084202704248834","秦","378","","","","","","","","","","","","","","","","","","","","","","","","","","","","","","","","","","","","","","","","","",""
"972","<p style=""color:white; font-size: 35px;"">全能</p>","i","categorize-html","35","428871","0.0-6.0-0.0-4.0-1.0","4","4","4","4","4","4","4","4","4","3","5","2","2","4","2","5","5","5","4","4","5","5","5","5","5","5","5","5","5","1","1","0","0","1","1","0","1","1","0","1","0","1","0","0","5","5","5","1","5","","1","5","5","5","2","787084202704248834","秦","378","","","","","","","","","","","","","","","","","","","true","2","2","ability","972","positive","全能","","","","","","","","","","","","","","","","",""
"null","","null","html-keyboard-response","36","429121","0.0-6.0-0.0-4.0-0.1","4","4","4","4","4","4","4","4","4","3","5","2","2","4","2","5","5","5","4","4","5","5","5","5","5","5","5","5","5","1","1","0","0","1","1","0","1","1","0","1","0","1","0","0","5","5","5","1","5","","1","5","5","5","2","787084202704248834","秦","378","","","","","","","","","","","","","","","","","","","","","","","","","","","","","","","","","","","","","","","","","",""
"450","<p style=""color:white; font-size: 35px;"">能干</p>","i","categorize-html","37","429572","0.0-6.0-0.0-4.0-1.1","4","4","4","4","4","4","4","4","4","3","5","2","2","4","2","5","5","5","4","4","5","5","5","5","5","5","5","5","5","1","1","0","0","1","1","0","1","1","0","1","0","1","0","0","5","5","5","1","5","","1","5","5","5","2","787084202704248834","秦","378","","","","","","","","","","","","","","","","","","","true","2","2","ability","450","positive","能干","","","","","","","","","","","","","","","","",""
"null","","null","html-keyboard-response","38","429823","0.0-6.0-0.0-4.0-0.2","4","4","4","4","4","4","4","4","4","3","5","2","2","4","2","5","5","5","4","4","5","5","5","5","5","5","5","5","5","1","1","0","0","1","1","0","1","1","0","1","0","1","0","0","5","5","5","1","5","","1","5","5","5","2","787084202704248834","秦","378","","","","","","","","","","","","","","","","","","","","","","","","","","","","","","","","","","","","","","","","","",""
"730","<p style=""color:white; font-size: 35px;"">愚钝</p>","e","categorize-html","39","430554","0.0-6.0-0.0-4.0-1.2","4","4","4","4","4","4","4","4","4","3","5","2","2","4","2","5","5","5","4","4","5","5","5","5","5","5","5","5","5","1","1","0","0","1","1","0","1","1","0","1","0","1","0","0","5","5","5","1","5","","1","5","5","5","2","787084202704248834","秦","378","","","","","","","","","","","","","","","","","","","true","2","2","ability","730","negative","愚钝","","","","","","","","","","","","","","","","",""
"null","","null","html-keyboard-response","40","430805","0.0-6.0-0.0-4.0-0.3","4","4","4","4","4","4","4","4","4","3","5","2","2","4","2","5","5","5","4","4","5","5","5","5","5","5","5","5","5","1","1","0","0","1","1","0","1","1","0","1","0","1","0","0","5","5","5","1","5","","1","5","5","5","2","787084202704248834","秦","378","","","","","","","","","","","","","","","","","","","","","","","","","","","","","","","","","","","","","","","","","",""
"622","<p style=""color:white; font-size: 35px;"">废物</p>","i","categorize-html","41","432937","0.0-6.0-0.0-4.0-1.3","4","4","4","4","4","4","4","4","4","3","5","2","2","4","2","5","5","5","4","4","5","5","5","5","5","5","5","5","5","1","1","0","0","1","1","0","1","1","0","1","0","1","0","0","5","5","5","1","5","","1","5","5","5","2","787084202704248834","秦","378","","","","","","","","","","","","","","","","","","","false","2","2","ability","622","negative","废物","","","","","","","","","","","","","","","","",""
"null","","null","html-keyboard-response","42","433188","0.0-6.0-0.0-4.0-0.4","4","4","4","4","4","4","4","4","4","3","5","2","2","4","2","5","5","5","4","4","5","5","5","5","5","5","5","5","5","1","1","0","0","1","1","0","1","1","0","1","0","1","0","0","5","5","5","1","5","","1","5","5","5","2","787084202704248834","秦","378","","","","","","","","","","","","","","","","","","","","","","","","","","","","","","","","","","","","","","","","","",""
"1558","<p style=""color:white; font-size: 35px;"">拙笨</p>","e","categorize-html","43","434747","0.0-6.0-0.0-4.0-1.4","4","4","4","4","4","4","4","4","4","3","5","2","2","4","2","5","5","5","4","4","5","5","5","5","5","5","5","5","5","1","1","0","0","1","1","0","1","1","0","1","0","1","0","0","5","5","5","1","5","","1","5","5","5","2","787084202704248834","秦","378","","","","","","","","","","","","","","","","","","","true","2","2","ability","1558","negative","拙笨","","","","","","","","","","","","","","","","",""
"null","","null","html-keyboard-response","44","434998","0.0-6.0-0.0-4.0-0.5","4","4","4","4","4","4","4","4","4","3","5","2","2","4","2","5","5","5","4","4","5","5","5","5","5","5","5","5","5","1","1","0","0","1","1","0","1","1","0","1","0","1","0","0","5","5","5","1","5","","1","5","5","5","2","787084202704248834","秦","378","","","","","","","","","","","","","","","","","","","","","","","","","","","","","","","","","","","","","","","","","",""
"1931","<p style=""color:white; font-size: 35px;"">高效</p>","i","categorize-html","45","436929","0.0-6.0-0.0-4.0-1.5","4","4","4","4","4","4","4","4","4","3","5","2","2","4","2","5","5","5","4","4","5","5","5","5","5","5","5","5","5","1","1","0","0","1","1","0","1","1","0","1","0","1","0","0","5","5","5","1","5","","1","5","5","5","2","787084202704248834","秦","378","","","","","","","","","","","","","","","","","","","true","2","2","ability","1931","positive","高效","","","","","","","","","","","","","","","","",""
"null","","null","html-keyboard-response","46","437181","0.0-6.0-0.0-4.0-0.6","4","4","4","4","4","4","4","4","4","3","5","2","2","4","2","5","5","5","4","4","5","5","5","5","5","5","5","5","5","1","1","0","0","1","1","0","1","1","0","1","0","1","0","0","5","5","5","1","5","","1","5","5","5","2","787084202704248834","秦","378","","","","","","","","","","","","","","","","","","","","","","","","","","","","","","","","","","","","","","","","","",""
"788","<p style=""color:white; font-size: 35px;"">蠢笨</p>","e","categorize-html","47","437969","0.0-6.0-0.0-4.0-1.6","4","4","4","4","4","4","4","4","4","3","5","2","2","4","2","5","5","5","4","4","5","5","5","5","5","5","5","5","5","1","1","0","0","1","1","0","1","1","0","1","0","1","0","0","5","5","5","1","5","","1","5","5","5","2","787084202704248834","秦","378","","","","","","","","","","","","","","","","","","","true","2","2","ability","788","negative","蠢笨","","","","","","","","","","","","","","","","",""
"null","","null","html-keyboard-response","48","438220","0.0-6.0-0.0-4.0-0.7","4","4","4","4","4","4","4","4","4","3","5","2","2","4","2","5","5","5","4","4","5","5","5","5","5","5","5","5","5","1","1","0","0","1","1","0","1","1","0","1","0","1","0","0","5","5","5","1","5","","1","5","5","5","2","787084202704248834","秦","378","","","","","","","","","","","","","","","","","","","","","","","","","","","","","","","","","","","","","","","","","",""
"663","<p style=""color:white; font-size: 35px;"">天才</p>","i","categorize-html","49","438884","0.0-6.0-0.0-4.0-1.7","4","4","4","4","4","4","4","4","4","3","5","2","2","4","2","5","5","5","4","4","5","5","5","5","5","5","5","5","5","1","1","0","0","1","1","0","1","1","0","1","0","1","0","0","5","5","5","1","5","","1","5","5","5","2","787084202704248834","秦","378","","","","","","","","","","","","","","","","","","","true","2","2","ability","663","positive","天才","","","","","","","","","","","","","","","","",""
"null","","null","html-keyboard-response","50","439135","0.0-6.0-0.0-4.0-0.8","4","4","4","4","4","4","4","4","4","3","5","2","2","4","2","5","5","5","4","4","5","5","5","5","5","5","5","5","5","1","1","0","0","1","1","0","1","1","0","1","0","1","0","0","5","5","5","1","5","","1","5","5","5","2","787084202704248834","秦","378","","","","","","","","","","","","","","","","","","","","","","","","","","","","","","","","","","","","","","","","","",""
"762","<p style=""color:white; font-size: 35px;"">低能</p>","e","categorize-html","51","439898","0.0-6.0-0.0-4.0-1.8","4","4","4","4","4","4","4","4","4","3","5","2","2","4","2","5","5","5","4","4","5","5","5","5","5","5","5","5","5","1","1","0","0","1","1","0","1","1","0","1","0","1","0","0","5","5","5","1","5","","1","5","5","5","2","787084202704248834","秦","378","","","","","","","","","","","","","","","","","","","true","2","2","ability","762","negative","低能","","","","","","","","","","","","","","","","",""
"null","","null","html-keyboard-response","52","440149","0.0-6.0-0.0-4.0-0.9","4","4","4","4","4","4","4","4","4","3","5","2","2","4","2","5","5","5","4","4","5","5","5","5","5","5","5","5","5","1","1","0","0","1","1","0","1","1","0","1","0","1","0","0","5","5","5","1","5","","1","5","5","5","2","787084202704248834","秦","378","","","","","","","","","","","","","","","","","","","","","","","","","","","","","","","","","","","","","","","","","",""
"814","<p style=""color:white; font-size: 35px;"">精干</p>","i","categorize-html","53","440964","0.0-6.0-0.0-4.0-1.9","4","4","4","4","4","4","4","4","4","3","5","2","2","4","2","5","5","5","4","4","5","5","5","5","5","5","5","5","5","1","1","0","0","1","1","0","1","1","0","1","0","1","0","0","5","5","5","1","5","","1","5","5","5","2","787084202704248834","秦","378","","","","","","","","","","","","","","","","","","","true","2","2","ability","814","positive","精干","","","","","","","","","","","","","","","","",""
"null","","null","html-keyboard-response","54","441216","0.0-6.0-0.0-4.0-0.10","4","4","4","4","4","4","4","4","4","3","5","2","2","4","2","5","5","5","4","4","5","5","5","5","5","5","5","5","5","1","1","0","0","1","1","0","1","1","0","1","0","1","0","0","5","5","5","1","5","","1","5","5","5","2","787084202704248834","秦","378","","","","","","","","","","","","","","","","","","","","","","","","","","","","","","","","","","","","","","","","","",""
"720","<p style=""color:white; font-size: 35px;"">无能</p>","e","categorize-html","55","441936","0.0-6.0-0.0-4.0-1.10","4","4","4","4","4","4","4","4","4","3","5","2","2","4","2","5","5","5","4","4","5","5","5","5","5","5","5","5","5","1","1","0","0","1","1","0","1","1","0","1","0","1","0","0","5","5","5","1","5","","1","5","5","5","2","787084202704248834","秦","378","","","","","","","","","","","","","","","","","","","true","2","2","ability","720","negative","无能","","","","","","","","","","","","","","","","",""
"null","","null","html-keyboard-response","56","442187","0.0-6.0-0.0-4.0-0.11","4","4","4","4","4","4","4","4","4","3","5","2","2","4","2","5","5","5","4","4","5","5","5","5","5","5","5","5","5","1","1","0","0","1","1","0","1","1","0","1","0","1","0","0","5","5","5","1","5","","1","5","5","5","2","787084202704248834","秦","378","","","","","","","","","","","","","","","","","","","","","","","","","","","","","","","","","","","","","","","","","",""
"553","<p style=""color:white; font-size: 35px;"">全才</p>","i","categorize-html","57","442741","0.0-6.0-0.0-4.0-1.11","4","4","4","4","4","4","4","4","4","3","5","2","2","4","2","5","5","5","4","4","5","5","5","5","5","5","5","5","5","1","1","0","0","1","1","0","1","1","0","1","0","1","0","0","5","5","5","1","5","","1","5","5","5","2","787084202704248834","秦","378","","","","","","","","","","","","","","","","","","","true","2","2","ability","553","positive","全才","","","","","","","","","","","","","","","","",""
"20797","
    <div class=""tag-bottom""><p>
    —— 任务3：对“他人/消极”词和“自我/积极”词分类 ——<p/>
    <span style=""color:#78DCE8""><b>注意上方，之前的四类词语将混合在一起交替呈现</b></span><p/>
    <span style=""color:#FFD866""><b>请根据上方标签的提示，尽可能正确并且快速地做出按键反应</b></span><p/>
    当按键错误时屏幕中会出现<span style=""color:red""> X </span>，需要按另一个键纠正才能继续<br/><p/>
    请把双手食指分别放在键盘的“E”键和“I”键上<p/>
    按<空格键>开始
    </p></div>"," ","html-keyboard-response","58","463538","0.0-6.0-0.0-5.0","4","4","4","4","4","4","4","4","4","3","5","2","2","4","2","5","5","5","4","4","5","5","5","5","5","5","5","5","5","1","1","0","0","1","1","0","1","1","0","1","0","1","0","0","5","5","5","1","5","","1","5","5","5","2","787084202704248834","秦","378","","","","","","","","","","","","","","","","","","","","","","","","","","","","","","","","","","","","","","","","","",""
"null","","null","html-keyboard-response","59","463791","0.0-6.0-0.0-6.0-0.0","4","4","4","4","4","4","4","4","4","3","5","2","2","4","2","5","5","5","4","4","5","5","5","5","5","5","5","5","5","1","1","0","0","1","1","0","1","1","0","1","0","1","0","0","5","5","5","1","5","","1","5","5","5","2","787084202704248834","秦","378","","","","","","","","","","","","","","","","","","","","","","","","","","","","","","","","","","","","","","","","","",""
"1255","<p style=""color:rgb(150, 250, 100); font-size: 35px;"">他</p>","e","categorize-html","60","465048","0.0-6.0-0.0-6.0-1.0","4","4","4","4","4","4","4","4","4","3","5","2","2","4","2","5","5","5","4","4","5","5","5","5","5","5","5","5","5","1","1","0","0","1","1","0","1","1","0","1","0","1","0","0","5","5","5","1","5","","1","5","5","5","2","787084202704248834","秦","378","","","","","","","","","","","","","","","","","","","true","3","3","ability","1255","other","他","","","","","","","","","","","","","","","","",""
"null","","null","html-keyboard-response","61","465298","0.0-6.0-0.0-6.0-0.1","4","4","4","4","4","4","4","4","4","3","5","2","2","4","2","5","5","5","4","4","5","5","5","5","5","5","5","5","5","1","1","0","0","1","1","0","1","1","0","1","0","1","0","0","5","5","5","1","5","","1","5","5","5","2","787084202704248834","秦","378","","","","","","","","","","","","","","","","","","","","","","","","","","","","","","","","","","","","","","","","","",""
"853","<p style=""color:white; font-size: 35px;"">废物</p>","e","categorize-html","62","466152","0.0-6.0-0.0-6.0-1.1","4","4","4","4","4","4","4","4","4","3","5","2","2","4","2","5","5","5","4","4","5","5","5","5","5","5","5","5","5","1","1","0","0","1","1","0","1","1","0","1","0","1","0","0","5","5","5","1","5","","1","5","5","5","2","787084202704248834","秦","378","","","","","","","","","","","","","","","","","","","true","3","3","ability","853","negative","废物","","","","","","","","","","","","","","","","",""
"null","","null","html-keyboard-response","63","466404","0.0-6.0-0.0-6.0-0.2","4","4","4","4","4","4","4","4","4","3","5","2","2","4","2","5","5","5","4","4","5","5","5","5","5","5","5","5","5","1","1","0","0","1","1","0","1","1","0","1","0","1","0","0","5","5","5","1","5","","1","5","5","5","2","787084202704248834","秦","378","","","","","","","","","","","","","","","","","","","","","","","","","","","","","","","","","","","","","","","","","",""
"766","<p style=""color:rgb(150, 250, 100); font-size: 35px;"">本人的</p>","i","categorize-html","64","467172","0.0-6.0-0.0-6.0-1.2","4","4","4","4","4","4","4","4","4","3","5","2","2","4","2","5","5","5","4","4","5","5","5","5","5","5","5","5","5","1","1","0","0","1","1","0","1","1","0","1","0","1","0","0","5","5","5","1","5","","1","5","5","5","2","787084202704248834","秦","378","","","","","","","","","","","","","","","","","","","true","3","3","ability","766","self","本人的","","","","","","","","","","","","","","","","",""
"null","","null","html-keyboard-response","65","467423","0.0-6.0-0.0-6.0-0.3","4","4","4","4","4","4","4","4","4","3","5","2","2","4","2","5","5","5","4","4","5","5","5","5","5","5","5","5","5","1","1","0","0","1","1","0","1","1","0","1","0","1","0","0","5","5","5","1","5","","1","5","5","5","2","787084202704248834","秦","378","","","","","","","","","","","","","","","","","","","","","","","","","","","","","","","","","","","","","","","","","",""
"581","<p style=""color:white; font-size: 35px;"">精干</p>","i","categorize-html","66","468004","0.0-6.0-0.0-6.0-1.3","4","4","4","4","4","4","4","4","4","3","5","2","2","4","2","5","5","5","4","4","5","5","5","5","5","5","5","5","5","1","1","0","0","1","1","0","1","1","0","1","0","1","0","0","5","5","5","1","5","","1","5","5","5","2","787084202704248834","秦","378","","","","","","","","","","","","","","","","","","","true","3","3","ability","581","positive","精干","","","","","","","","","","","","","","","","",""
"null","","null","html-keyboard-response","67","468255","0.0-6.0-0.0-6.0-0.4","4","4","4","4","4","4","4","4","4","3","5","2","2","4","2","5","5","5","4","4","5","5","5","5","5","5","5","5","5","1","1","0","0","1","1","0","1","1","0","1","0","1","0","0","5","5","5","1","5","","1","5","5","5","2","787084202704248834","秦","378","","","","","","","","","","","","","","","","","","","","","","","","","","","","","","","","","","","","","","","","","",""
"721","<p style=""color:rgb(150, 250, 100); font-size: 35px;"">别人的</p>","e","categorize-html","68","468977","0.0-6.0-0.0-6.0-1.4","4","4","4","4","4","4","4","4","4","3","5","2","2","4","2","5","5","5","4","4","5","5","5","5","5","5","5","5","5","1","1","0","0","1","1","0","1","1","0","1","0","1","0","0","5","5","5","1","5","","1","5","5","5","2","787084202704248834","秦","378","","","","","","","","","","","","","","","","","","","true","3","3","ability","721","other","别人的","","","","","","","","","","","","","","","","",""
"null","","null","html-keyboard-response","69","469229","0.0-6.0-0.0-6.0-0.5","4","4","4","4","4","4","4","4","4","3","5","2","2","4","2","5","5","5","4","4","5","5","5","5","5","5","5","5","5","1","1","0","0","1","1","0","1","1","0","1","0","1","0","0","5","5","5","1","5","","1","5","5","5","2","787084202704248834","秦","378","","","","","","","","","","","","","","","","","","","","","","","","","","","","","","","","","","","","","","","","","",""
"525","<p style=""color:white; font-size: 35px;"">愚钝</p>","e","categorize-html","70","469755","0.0-6.0-0.0-6.0-1.5","4","4","4","4","4","4","4","4","4","3","5","2","2","4","2","5","5","5","4","4","5","5","5","5","5","5","5","5","5","1","1","0","0","1","1","0","1","1","0","1","0","1","0","0","5","5","5","1","5","","1","5","5","5","2","787084202704248834","秦","378","","","","","","","","","","","","","","","","","","","true","3","3","ability","525","negative","愚钝","","","","","","","","","","","","","","","","",""
"null","","null","html-keyboard-response","71","470006","0.0-6.0-0.0-6.0-0.6","4","4","4","4","4","4","4","4","4","3","5","2","2","4","2","5","5","5","4","4","5","5","5","5","5","5","5","5","5","1","1","0","0","1","1","0","1","1","0","1","0","1","0","0","5","5","5","1","5","","1","5","5","5","2","787084202704248834","秦","378","","","","","","","","","","","","","","","","","","","","","","","","","","","","","","","","","","","","","","","","","",""
"525","<p style=""color:rgb(150, 250, 100); font-size: 35px;"">自己</p>","i","categorize-html","72","470533","0.0-6.0-0.0-6.0-1.6","4","4","4","4","4","4","4","4","4","3","5","2","2","4","2","5","5","5","4","4","5","5","5","5","5","5","5","5","5","1","1","0","0","1","1","0","1","1","0","1","0","1","0","0","5","5","5","1","5","","1","5","5","5","2","787084202704248834","秦","378","","","","","","","","","","","","","","","","","","","true","3","3","ability","525","self","自己","","","","","","","","","","","","","","","","",""
"null","","null","html-keyboard-response","73","470784","0.0-6.0-0.0-6.0-0.7","4","4","4","4","4","4","4","4","4","3","5","2","2","4","2","5","5","5","4","4","5","5","5","5","5","5","5","5","5","1","1","0","0","1","1","0","1","1","0","1","0","1","0","0","5","5","5","1","5","","1","5","5","5","2","787084202704248834","秦","378","","","","","","","","","","","","","","","","","","","","","","","","","","","","","","","","","","","","","","","","","",""
"704","<p style=""color:white; font-size: 35px;"">高效</p>","i","categorize-html","74","471490","0.0-6.0-0.0-6.0-1.7","4","4","4","4","4","4","4","4","4","3","5","2","2","4","2","5","5","5","4","4","5","5","5","5","5","5","5","5","5","1","1","0","0","1","1","0","1","1","0","1","0","1","0","0","5","5","5","1","5","","1","5","5","5","2","787084202704248834","秦","378","","","","","","","","","","","","","","","","","","","true","3","3","ability","704","positive","高效","","","","","","","","","","","","","","","","",""
"null","","null","html-keyboard-response","75","471742","0.0-6.0-0.0-6.0-0.8","4","4","4","4","4","4","4","4","4","3","5","2","2","4","2","5","5","5","4","4","5","5","5","5","5","5","5","5","5","1","1","0","0","1","1","0","1","1","0","1","0","1","0","0","5","5","5","1","5","","1","5","5","5","2","787084202704248834","秦","378","","","","","","","","","","","","","","","","","","","","","","","","","","","","","","","","","","","","","","","","","",""
"721","<p style=""color:rgb(150, 250, 100); font-size: 35px;"">我的</p>","i","categorize-html","76","472464","0.0-6.0-0.0-6.0-1.8","4","4","4","4","4","4","4","4","4","3","5","2","2","4","2","5","5","5","4","4","5","5","5","5","5","5","5","5","5","1","1","0","0","1","1","0","1","1","0","1","0","1","0","0","5","5","5","1","5","","1","5","5","5","2","787084202704248834","秦","378","","","","","","","","","","","","","","","","","","","true","3","3","ability","721","self","我的","","","","","","","","","","","","","","","","",""
"null","","null","html-keyboard-response","77","472716","0.0-6.0-0.0-6.0-0.9","4","4","4","4","4","4","4","4","4","3","5","2","2","4","2","5","5","5","4","4","5","5","5","5","5","5","5","5","5","1","1","0","0","1","1","0","1","1","0","1","0","1","0","0","5","5","5","1","5","","1","5","5","5","2","787084202704248834","秦","378","","","","","","","","","","","","","","","","","","","","","","","","","","","","","","","","","","","","","","","","","",""
"937","<p style=""color:white; font-size: 35px;"">蠢笨</p>","e","categorize-html","78","473654","0.0-6.0-0.0-6.0-1.9","4","4","4","4","4","4","4","4","4","3","5","2","2","4","2","5","5","5","4","4","5","5","5","5","5","5","5","5","5","1","1","0","0","1","1","0","1","1","0","1","0","1","0","0","5","5","5","1","5","","1","5","5","5","2","787084202704248834","秦","378","","","","","","","","","","","","","","","","","","","true","3","3","ability","937","negative","蠢笨","","","","","","","","","","","","","","","","",""
"null","","null","html-keyboard-response","79","473905","0.0-6.0-0.0-6.0-0.10","4","4","4","4","4","4","4","4","4","3","5","2","2","4","2","5","5","5","4","4","5","5","5","5","5","5","5","5","5","1","1","0","0","1","1","0","1","1","0","1","0","1","0","0","5","5","5","1","5","","1","5","5","5","2","787084202704248834","秦","378","","","","","","","","","","","","","","","","","","","","","","","","","","","","","","","","","","","","","","","","","",""
"901","<p style=""color:rgb(150, 250, 100); font-size: 35px;"">别人</p>","e","categorize-html","80","474807","0.0-6.0-0.0-6.0-1.10","4","4","4","4","4","4","4","4","4","3","5","2","2","4","2","5","5","5","4","4","5","5","5","5","5","5","5","5","5","1","1","0","0","1","1","0","1","1","0","1","0","1","0","0","5","5","5","1","5","","1","5","5","5","2","787084202704248834","秦","378","","","","","","","","","","","","","","","","","","","true","3","3","ability","901","other","别人","","","","","","","","","","","","","","","","",""
"null","","null","html-keyboard-response","81","475059","0.0-6.0-0.0-6.0-0.11","4","4","4","4","4","4","4","4","4","3","5","2","2","4","2","5","5","5","4","4","5","5","5","5","5","5","5","5","5","1","1","0","0","1","1","0","1","1","0","1","0","1","0","0","5","5","5","1","5","","1","5","5","5","2","787084202704248834","秦","378","","","","","","","","","","","","","","","","","","","","","","","","","","","","","","","","","","","","","","","","","",""
"666","<p style=""color:white; font-size: 35px;"">能干</p>","i","categorize-html","82","475726","0.0-6.0-0.0-6.0-1.11","4","4","4","4","4","4","4","4","4","3","5","2","2","4","2","5","5","5","4","4","5","5","5","5","5","5","5","5","5","1","1","0","0","1","1","0","1","1","0","1","0","1","0","0","5","5","5","1","5","","1","5","5","5","2","787084202704248834","秦","378","","","","","","","","","","","","","","","","","","","true","3","3","ability","666","positive","能干","","","","","","","","","","","","","","","","",""
"null","","null","html-keyboard-response","83","475978","0.0-6.0-0.0-6.0-0.12","4","4","4","4","4","4","4","4","4","3","5","2","2","4","2","5","5","5","4","4","5","5","5","5","5","5","5","5","5","1","1","0","0","1","1","0","1","1","0","1","0","1","0","0","5","5","5","1","5","","1","5","5","5","2","787084202704248834","秦","378","","","","","","","","","","","","","","","","","","","","","","","","","","","","","","","","","","","","","","","","","",""
"638","<p style=""color:rgb(150, 250, 100); font-size: 35px;"">我</p>","i","categorize-html","84","476617","0.0-6.0-0.0-6.0-1.12","4","4","4","4","4","4","4","4","4","3","5","2","2","4","2","5","5","5","4","4","5","5","5","5","5","5","5","5","5","1","1","0","0","1","1","0","1","1","0","1","0","1","0","0","5","5","5","1","5","","1","5","5","5","2","787084202704248834","秦","378","","","","","","","","","","","","","","","","","","","true","3","3","ability","638","self","我","","","","","","","","","","","","","","","","",""
"null","","null","html-keyboard-response","85","476869","0.0-6.0-0.0-6.0-0.13","4","4","4","4","4","4","4","4","4","3","5","2","2","4","2","5","5","5","4","4","5","5","5","5","5","5","5","5","5","1","1","0","0","1","1","0","1","1","0","1","0","1","0","0","5","5","5","1","5","","1","5","5","5","2","787084202704248834","秦","378","","","","","","","","","","","","","","","","","","","","","","","","","","","","","","","","","","","","","","","","","",""
"825","<p style=""color:white; font-size: 35px;"">无能</p>","e","categorize-html","86","477695","0.0-6.0-0.0-6.0-1.13","4","4","4","4","4","4","4","4","4","3","5","2","2","4","2","5","5","5","4","4","5","5","5","5","5","5","5","5","5","1","1","0","0","1","1","0","1","1","0","1","0","1","0","0","5","5","5","1","5","","1","5","5","5","2","787084202704248834","秦","378","","","","","","","","","","","","","","","","","","","true","3","3","ability","825","negative","无能","","","","","","","","","","","","","","","","",""
"null","","null","html-keyboard-response","87","477947","0.0-6.0-0.0-6.0-0.14","4","4","4","4","4","4","4","4","4","3","5","2","2","4","2","5","5","5","4","4","5","5","5","5","5","5","5","5","5","1","1","0","0","1","1","0","1","1","0","1","0","1","0","0","5","5","5","1","5","","1","5","5","5","2","787084202704248834","秦","378","","","","","","","","","","","","","","","","","","","","","","","","","","","","","","","","","","","","","","","","","",""
"612","<p style=""color:rgb(150, 250, 100); font-size: 35px;"">他人</p>","e","categorize-html","88","478560","0.0-6.0-0.0-6.0-1.14","4","4","4","4","4","4","4","4","4","3","5","2","2","4","2","5","5","5","4","4","5","5","5","5","5","5","5","5","5","1","1","0","0","1","1","0","1","1","0","1","0","1","0","0","5","5","5","1","5","","1","5","5","5","2","787084202704248834","秦","378","","","","","","","","","","","","","","","","","","","true","3","3","ability","612","other","他人","","","","","","","","","","","","","","","","",""
"null","","null","html-keyboard-response","89","478812","0.0-6.0-0.0-6.0-0.15","4","4","4","4","4","4","4","4","4","3","5","2","2","4","2","5","5","5","4","4","5","5","5","5","5","5","5","5","5","1","1","0","0","1","1","0","1","1","0","1","0","1","0","0","5","5","5","1","5","","1","5","5","5","2","787084202704248834","秦","378","","","","","","","","","","","","","","","","","","","","","","","","","","","","","","","","","","","","","","","","","",""
"687","<p style=""color:white; font-size: 35px;"">天才</p>","i","categorize-html","90","479500","0.0-6.0-0.0-6.0-1.15","4","4","4","4","4","4","4","4","4","3","5","2","2","4","2","5","5","5","4","4","5","5","5","5","5","5","5","5","5","1","1","0","0","1","1","0","1","1","0","1","0","1","0","0","5","5","5","1","5","","1","5","5","5","2","787084202704248834","秦","378","","","","","","","","","","","","","","","","","","","true","3","3","ability","687","positive","天才","","","","","","","","","","","","","","","","",""
"null","","null","html-keyboard-response","91","479751","0.0-6.0-0.0-6.0-0.16","4","4","4","4","4","4","4","4","4","3","5","2","2","4","2","5","5","5","4","4","5","5","5","5","5","5","5","5","5","1","1","0","0","1","1","0","1","1","0","1","0","1","0","0","5","5","5","1","5","","1","5","5","5","2","787084202704248834","秦","378","","","","","","","","","","","","","","","","","","","","","","","","","","","","","","","","","","","","","","","","","",""
"658","<p style=""color:rgb(150, 250, 100); font-size: 35px;"">自己的</p>","i","categorize-html","92","480409","0.0-6.0-0.0-6.0-1.16","4","4","4","4","4","4","4","4","4","3","5","2","2","4","2","5","5","5","4","4","5","5","5","5","5","5","5","5","5","1","1","0","0","1","1","0","1","1","0","1","0","1","0","0","5","5","5","1","5","","1","5","5","5","2","787084202704248834","秦","378","","","","","","","","","","","","","","","","","","","true","3","3","ability","658","self","自己的","","","","","","","","","","","","","","","","",""
"null","","null","html-keyboard-response","93","480659","0.0-6.0-0.0-6.0-0.17","4","4","4","4","4","4","4","4","4","3","5","2","2","4","2","5","5","5","4","4","5","5","5","5","5","5","5","5","5","1","1","0","0","1","1","0","1","1","0","1","0","1","0","0","5","5","5","1","5","","1","5","5","5","2","787084202704248834","秦","378","","","","","","","","","","","","","","","","","","","","","","","","","","","","","","","","","","","","","","","","","",""
"638","<p style=""color:white; font-size: 35px;"">全才</p>","i","categorize-html","94","481298","0.0-6.0-0.0-6.0-1.17","4","4","4","4","4","4","4","4","4","3","5","2","2","4","2","5","5","5","4","4","5","5","5","5","5","5","5","5","5","1","1","0","0","1","1","0","1","1","0","1","0","1","0","0","5","5","5","1","5","","1","5","5","5","2","787084202704248834","秦","378","","","","","","","","","","","","","","","","","","","true","3","3","ability","638","positive","全才","","","","","","","","","","","","","","","","",""
"null","","null","html-keyboard-response","95","481550","0.0-6.0-0.0-6.0-0.18","4","4","4","4","4","4","4","4","4","3","5","2","2","4","2","5","5","5","4","4","5","5","5","5","5","5","5","5","5","1","1","0","0","1","1","0","1","1","0","1","0","1","0","0","5","5","5","1","5","","1","5","5","5","2","787084202704248834","秦","378","","","","","","","","","","","","","","","","","","","","","","","","","","","","","","","","","","","","","","","","","",""
"767","<p style=""color:rgb(150, 250, 100); font-size: 35px;"">他人的</p>","e","categorize-html","96","482317","0.0-6.0-0.0-6.0-1.18","4","4","4","4","4","4","4","4","4","3","5","2","2","4","2","5","5","5","4","4","5","5","5","5","5","5","5","5","5","1","1","0","0","1","1","0","1","1","0","1","0","1","0","0","5","5","5","1","5","","1","5","5","5","2","787084202704248834","秦","378","","","","","","","","","","","","","","","","","","","true","3","3","ability","767","other","他人的","","","","","","","","","","","","","","","","",""
"null","","null","html-keyboard-response","97","482570","0.0-6.0-0.0-6.0-0.19","4","4","4","4","4","4","4","4","4","3","5","2","2","4","2","5","5","5","4","4","5","5","5","5","5","5","5","5","5","1","1","0","0","1","1","0","1","1","0","1","0","1","0","0","5","5","5","1","5","","1","5","5","5","2","787084202704248834","秦","378","","","","","","","","","","","","","","","","","","","","","","","","","","","","","","","","","","","","","","","","","",""
"701","<p style=""color:white; font-size: 35px;"">低能</p>","i","categorize-html","98","483922","0.0-6.0-0.0-6.0-1.19","4","4","4","4","4","4","4","4","4","3","5","2","2","4","2","5","5","5","4","4","5","5","5","5","5","5","5","5","5","1","1","0","0","1","1","0","1","1","0","1","0","1","0","0","5","5","5","1","5","","1","5","5","5","2","787084202704248834","秦","378","","","","","","","","","","","","","","","","","","","false","3","3","ability","1328.8695652173913","negative","低能","","","","","","","","","","","","","","","","",""
"null","","null","html-keyboard-response","99","484173","0.0-6.0-0.0-6.0-0.20","4","4","4","4","4","4","4","4","4","3","5","2","2","4","2","5","5","5","4","4","5","5","5","5","5","5","5","5","5","1","1","0","0","1","1","0","1","1","0","1","0","1","0","0","5","5","5","1","5","","1","5","5","5","2","787084202704248834","秦","378","","","","","","","","","","","","","","","","","","","","","","","","","","","","","","","","","","","","","","","","","",""
"653","<p style=""color:rgb(150, 250, 100); font-size: 35px;"">他的</p>","e","categorize-html","100","484828","0.0-6.0-0.0-6.0-1.20","4","4","4","4","4","4","4","4","4","3","5","2","2","4","2","5","5","5","4","4","5","5","5","5","5","5","5","5","5","1","1","0","0","1","1","0","1","1","0","1","0","1","0","0","5","5","5","1","5","","1","5","5","5","2","787084202704248834","秦","378","","","","","","","","","","","","","","","","","","","true","3","3","ability","653","other","他的","","","","","","","","","","","","","","","","",""
"null","","null","html-keyboard-response","101","485078","0.0-6.0-0.0-6.0-0.21","4","4","4","4","4","4","4","4","4","3","5","2","2","4","2","5","5","5","4","4","5","5","5","5","5","5","5","5","5","1","1","0","0","1","1","0","1","1","0","1","0","1","0","0","5","5","5","1","5","","1","5","5","5","2","787084202704248834","秦","378","","","","","","","","","","","","","","","","","","","","","","","","","","","","","","","","","","","","","","","","","",""
"646","<p style=""color:white; font-size: 35px;"">全能</p>","i","categorize-html","102","485726","0.0-6.0-0.0-6.0-1.21","4","4","4","4","4","4","4","4","4","3","5","2","2","4","2","5","5","5","4","4","5","5","5","5","5","5","5","5","5","1","1","0","0","1","1","0","1","1","0","1","0","1","0","0","5","5","5","1","5","","1","5","5","5","2","787084202704248834","秦","378","","","","","","","","","","","","","","","","","","","true","3","3","ability","646","positive","全能","","","","","","","","","","","","","","","","",""
"null","","null","html-keyboard-response","103","485977","0.0-6.0-0.0-6.0-0.22","4","4","4","4","4","4","4","4","4","3","5","2","2","4","2","5","5","5","4","4","5","5","5","5","5","5","5","5","5","1","1","0","0","1","1","0","1","1","0","1","0","1","0","0","5","5","5","1","5","","1","5","5","5","2","787084202704248834","秦","378","","","","","","","","","","","","","","","","","","","","","","","","","","","","","","","","","","","","","","","","","",""
"703","<p style=""color:rgb(150, 250, 100); font-size: 35px;"">本人</p>","i","categorize-html","104","486682","0.0-6.0-0.0-6.0-1.22","4","4","4","4","4","4","4","4","4","3","5","2","2","4","2","5","5","5","4","4","5","5","5","5","5","5","5","5","5","1","1","0","0","1","1","0","1","1","0","1","0","1","0","0","5","5","5","1","5","","1","5","5","5","2","787084202704248834","秦","378","","","","","","","","","","","","","","","","","","","true","3","3","ability","703","self","本人","","","","","","","","","","","","","","","","",""
"null","","null","html-keyboard-response","105","486933","0.0-6.0-0.0-6.0-0.23","4","4","4","4","4","4","4","4","4","3","5","2","2","4","2","5","5","5","4","4","5","5","5","5","5","5","5","5","5","1","1","0","0","1","1","0","1","1","0","1","0","1","0","0","5","5","5","1","5","","1","5","5","5","2","787084202704248834","秦","378","","","","","","","","","","","","","","","","","","","","","","","","","","","","","","","","","","","","","","","","","",""
"782","<p style=""color:white; font-size: 35px;"">拙笨</p>","e","categorize-html","106","487715","0.0-6.0-0.0-6.0-1.23","4","4","4","4","4","4","4","4","4","3","5","2","2","4","2","5","5","5","4","4","5","5","5","5","5","5","5","5","5","1","1","0","0","1","1","0","1","1","0","1","0","1","0","0","5","5","5","1","5","","1","5","5","5","2","787084202704248834","秦","378","","","","","","","","","","","","","","","","","","","true","3","3","ability","782","negative","拙笨","","","","","","","","","","","","","","","","",""
"12442","
    <div class=""tag-bottom""><p>
    —— 任务4：对“他人/消极”词和“自我/积极”词分类 ——<p/>
    <span style=""color:#78DCE8""><b>与刚才的任务完全相同，请再次对这四类词语分类</b></span><p/>
    <span style=""color:#FFD866""><b>请根据上方标签的提示，尽可能正确并且快速地做出按键反应</b></span><p/>
    当按键错误时屏幕中会出现<span style=""color:red""> X </span>，需要按另一个键纠正才能继续<br/><p/>
    请把双手食指分别放在键盘的“E”键和“I”键上<p/>
    按<空格键>开始
    </p></div>"," ","html-keyboard-response","107","500157","0.0-6.0-0.0-7.0","4","4","4","4","4","4","4","4","4","3","5","2","2","4","2","5","5","5","4","4","5","5","5","5","5","5","5","5","5","1","1","0","0","1","1","0","1","1","0","1","0","1","0","0","5","5","5","1","5","","1","5","5","5","2","787084202704248834","秦","378","","","","","","","","","","","","","","","","","","","","","","","","","","","","","","","","","","","","","","","","","",""
"null","","null","html-keyboard-response","108","500409","0.0-6.0-0.0-8.0-0.0","4","4","4","4","4","4","4","4","4","3","5","2","2","4","2","5","5","5","4","4","5","5","5","5","5","5","5","5","5","1","1","0","0","1","1","0","1","1","0","1","0","1","0","0","5","5","5","1","5","","1","5","5","5","2","787084202704248834","秦","378","","","","","","","","","","","","","","","","","","","","","","","","","","","","","","","","","","","","","","","","","",""
"2207","<p style=""color:rgb(150, 250, 100); font-size: 35px;"">别人</p>","e","categorize-html","109","502618","0.0-6.0-0.0-8.0-1.0","4","4","4","4","4","4","4","4","4","3","5","2","2","4","2","5","5","5","4","4","5","5","5","5","5","5","5","5","5","1","1","0","0","1","1","0","1","1","0","1","0","1","0","0","5","5","5","1","5","","1","5","5","5","2","787084202704248834","秦","378","","","","","","","","","","","","","","","","","","","true","4","4","ability","2207","other","别人","","","","","","","","","","","","","","","","",""
"null","","null","html-keyboard-response","110","502868","0.0-6.0-0.0-8.0-0.1","4","4","4","4","4","4","4","4","4","3","5","2","2","4","2","5","5","5","4","4","5","5","5","5","5","5","5","5","5","1","1","0","0","1","1","0","1","1","0","1","0","1","0","0","5","5","5","1","5","","1","5","5","5","2","787084202704248834","秦","378","","","","","","","","","","","","","","","","","","","","","","","","","","","","","","","","","","","","","","","","","",""
"753","<p style=""color:white; font-size: 35px;"">全才</p>","i","categorize-html","111","503622","0.0-6.0-0.0-8.0-1.1","4","4","4","4","4","4","4","4","4","3","5","2","2","4","2","5","5","5","4","4","5","5","5","5","5","5","5","5","5","1","1","0","0","1","1","0","1","1","0","1","0","1","0","0","5","5","5","1","5","","1","5","5","5","2","787084202704248834","秦","378","","","","","","","","","","","","","","","","","","","true","4","4","ability","753","positive","全才","","","","","","","","","","","","","","","","",""
"null","","null","html-keyboard-response","112","503874","0.0-6.0-0.0-8.0-0.2","4","4","4","4","4","4","4","4","4","3","5","2","2","4","2","5","5","5","4","4","5","5","5","5","5","5","5","5","5","1","1","0","0","1","1","0","1","1","0","1","0","1","0","0","5","5","5","1","5","","1","5","5","5","2","787084202704248834","秦","378","","","","","","","","","","","","","","","","","","","","","","","","","","","","","","","","","","","","","","","","","",""
"711","<p style=""color:rgb(150, 250, 100); font-size: 35px;"">本人</p>","i","categorize-html","113","504586","0.0-6.0-0.0-8.0-1.2","4","4","4","4","4","4","4","4","4","3","5","2","2","4","2","5","5","5","4","4","5","5","5","5","5","5","5","5","5","1","1","0","0","1","1","0","1","1","0","1","0","1","0","0","5","5","5","1","5","","1","5","5","5","2","787084202704248834","秦","378","","","","","","","","","","","","","","","","","","","true","4","4","ability","711","self","本人","","","","","","","","","","","","","","","","",""
"null","","null","html-keyboard-response","114","504837","0.0-6.0-0.0-8.0-0.3","4","4","4","4","4","4","4","4","4","3","5","2","2","4","2","5","5","5","4","4","5","5","5","5","5","5","5","5","5","1","1","0","0","1","1","0","1","1","0","1","0","1","0","0","5","5","5","1","5","","1","5","5","5","2","787084202704248834","秦","378","","","","","","","","","","","","","","","","","","","","","","","","","","","","","","","","","","","","","","","","","",""
"817","<p style=""color:white; font-size: 35px;"">废物</p>","e","categorize-html","115","505655","0.0-6.0-0.0-8.0-1.3","4","4","4","4","4","4","4","4","4","3","5","2","2","4","2","5","5","5","4","4","5","5","5","5","5","5","5","5","5","1","1","0","0","1","1","0","1","1","0","1","0","1","0","0","5","5","5","1","5","","1","5","5","5","2","787084202704248834","秦","378","","","","","","","","","","","","","","","","","","","true","4","4","ability","817","negative","废物","","","","","","","","","","","","","","","","",""
"null","","null","html-keyboard-response","116","505906","0.0-6.0-0.0-8.0-0.4","4","4","4","4","4","4","4","4","4","3","5","2","2","4","2","5","5","5","4","4","5","5","5","5","5","5","5","5","5","1","1","0","0","1","1","0","1","1","0","1","0","1","0","0","5","5","5","1","5","","1","5","5","5","2","787084202704248834","秦","378","","","","","","","","","","","","","","","","","","","","","","","","","","","","","","","","","","","","","","","","","",""
"641","<p style=""color:rgb(150, 250, 100); font-size: 35px;"">自己的</p>","i","categorize-html","117","506548","0.0-6.0-0.0-8.0-1.4","4","4","4","4","4","4","4","4","4","3","5","2","2","4","2","5","5","5","4","4","5","5","5","5","5","5","5","5","5","1","1","0","0","1","1","0","1","1","0","1","0","1","0","0","5","5","5","1","5","","1","5","5","5","2","787084202704248834","秦","378","","","","","","","","","","","","","","","","","","","true","4","4","ability","641","self","自己的","","","","","","","","","","","","","","","","",""
"null","","null","html-keyboard-response","118","506808","0.0-6.0-0.0-8.0-0.5","4","4","4","4","4","4","4","4","4","3","5","2","2","4","2","5","5","5","4","4","5","5","5","5","5","5","5","5","5","1","1","0","0","1","1","0","1","1","0","1","0","1","0","0","5","5","5","1","5","","1","5","5","5","2","787084202704248834","秦","378","","","","","","","","","","","","","","","","","","","","","","","","","","","","","","","","","","","","","","","","","",""
"874","<p style=""color:white; font-size: 35px;"">低能</p>","e","categorize-html","119","507683","0.0-6.0-0.0-8.0-1.5","4","4","4","4","4","4","4","4","4","3","5","2","2","4","2","5","5","5","4","4","5","5","5","5","5","5","5","5","5","1","1","0","0","1","1","0","1","1","0","1","0","1","0","0","5","5","5","1","5","","1","5","5","5","2","787084202704248834","秦","378","","","","","","","","","","","","","","","","","","","true","4","4","ability","874","negative","低能","","","","","","","","","","","","","","","","",""
"null","","null","html-keyboard-response","120","507935","0.0-6.0-0.0-8.0-0.6","4","4","4","4","4","4","4","4","4","3","5","2","2","4","2","5","5","5","4","4","5","5","5","5","5","5","5","5","5","1","1","0","0","1","1","0","1","1","0","1","0","1","0","0","5","5","5","1","5","","1","5","5","5","2","787084202704248834","秦","378","","","","","","","","","","","","","","","","","","","","","","","","","","","","","","","","","","","","","","","","","",""
"663","<p style=""color:rgb(150, 250, 100); font-size: 35px;"">他</p>","e","categorize-html","121","508599","0.0-6.0-0.0-8.0-1.6","4","4","4","4","4","4","4","4","4","3","5","2","2","4","2","5","5","5","4","4","5","5","5","5","5","5","5","5","5","1","1","0","0","1","1","0","1","1","0","1","0","1","0","0","5","5","5","1","5","","1","5","5","5","2","787084202704248834","秦","378","","","","","","","","","","","","","","","","","","","true","4","4","ability","663","other","他","","","","","","","","","","","","","","","","",""
"null","","null","html-keyboard-response","122","508851","0.0-6.0-0.0-8.0-0.7","4","4","4","4","4","4","4","4","4","3","5","2","2","4","2","5","5","5","4","4","5","5","5","5","5","5","5","5","5","1","1","0","0","1","1","0","1","1","0","1","0","1","0","0","5","5","5","1","5","","1","5","5","5","2","787084202704248834","秦","378","","","","","","","","","","","","","","","","","","","","","","","","","","","","","","","","","","","","","","","","","",""
"625","<p style=""color:white; font-size: 35px;"">能干</p>","i","categorize-html","123","509477","0.0-6.0-0.0-8.0-1.7","4","4","4","4","4","4","4","4","4","3","5","2","2","4","2","5","5","5","4","4","5","5","5","5","5","5","5","5","5","1","1","0","0","1","1","0","1","1","0","1","0","1","0","0","5","5","5","1","5","","1","5","5","5","2","787084202704248834","秦","378","","","","","","","","","","","","","","","","","","","true","4","4","ability","625","positive","能干","","","","","","","","","","","","","","","","",""
"null","","null","html-keyboard-response","124","509728","0.0-6.0-0.0-8.0-0.8","4","4","4","4","4","4","4","4","4","3","5","2","2","4","2","5","5","5","4","4","5","5","5","5","5","5","5","5","5","1","1","0","0","1","1","0","1","1","0","1","0","1","0","0","5","5","5","1","5","","1","5","5","5","2","787084202704248834","秦","378","","","","","","","","","","","","","","","","","","","","","","","","","","","","","","","","","","","","","","","","","",""
"678","<p style=""color:rgb(150, 250, 100); font-size: 35px;"">我的</p>","i","categorize-html","125","510408","0.0-6.0-0.0-8.0-1.8","4","4","4","4","4","4","4","4","4","3","5","2","2","4","2","5","5","5","4","4","5","5","5","5","5","5","5","5","5","1","1","0","0","1","1","0","1","1","0","1","0","1","0","0","5","5","5","1","5","","1","5","5","5","2","787084202704248834","秦","378","","","","","","","","","","","","","","","","","","","true","4","4","ability","678","self","我的","","","","","","","","","","","","","","","","",""
"null","","null","html-keyboard-response","126","510660","0.0-6.0-0.0-8.0-0.9","4","4","4","4","4","4","4","4","4","3","5","2","2","4","2","5","5","5","4","4","5","5","5","5","5","5","5","5","5","1","1","0","0","1","1","0","1","1","0","1","0","1","0","0","5","5","5","1","5","","1","5","5","5","2","787084202704248834","秦","378","","","","","","","","","","","","","","","","","","","","","","","","","","","","","","","","","","","","","","","","","",""
"737","<p style=""color:white; font-size: 35px;"">全能</p>","e","categorize-html","127","512195","0.0-6.0-0.0-8.0-1.9","4","4","4","4","4","4","4","4","4","3","5","2","2","4","2","5","5","5","4","4","5","5","5","5","5","5","5","5","5","1","1","0","0","1","1","0","1","1","0","1","0","1","0","0","5","5","5","1","5","","1","5","5","5","2","787084202704248834","秦","378","","","","","","","","","","","","","","","","","","","false","4","4","ability","1377.595744680851","positive","全能","","","","","","","","","","","","","","","","",""
"null","","null","html-keyboard-response","128","512446","0.0-6.0-0.0-8.0-0.10","4","4","4","4","4","4","4","4","4","3","5","2","2","4","2","5","5","5","4","4","5","5","5","5","5","5","5","5","5","1","1","0","0","1","1","0","1","1","0","1","0","1","0","0","5","5","5","1","5","","1","5","5","5","2","787084202704248834","秦","378","","","","","","","","","","","","","","","","","","","","","","","","","","","","","","","","","","","","","","","","","",""
"638","<p style=""color:rgb(150, 250, 100); font-size: 35px;"">他的</p>","e","categorize-html","129","513086","0.0-6.0-0.0-8.0-1.10","4","4","4","4","4","4","4","4","4","3","5","2","2","4","2","5","5","5","4","4","5","5","5","5","5","5","5","5","5","1","1","0","0","1","1","0","1","1","0","1","0","1","0","0","5","5","5","1","5","","1","5","5","5","2","787084202704248834","秦","378","","","","","","","","","","","","","","","","","","","true","4","4","ability","638","other","他的","","","","","","","","","","","","","","","","",""
"null","","null","html-keyboard-response","130","513337","0.0-6.0-0.0-8.0-0.11","4","4","4","4","4","4","4","4","4","3","5","2","2","4","2","5","5","5","4","4","5","5","5","5","5","5","5","5","5","1","1","0","0","1","1","0","1","1","0","1","0","1","0","0","5","5","5","1","5","","1","5","5","5","2","787084202704248834","秦","378","","","","","","","","","","","","","","","","","","","","","","","","","","","","","","","","","","","","","","","","","",""
"671","<p style=""color:white; font-size: 35px;"">蠢笨</p>","e","categorize-html","131","514009","0.0-6.0-0.0-8.0-1.11","4","4","4","4","4","4","4","4","4","3","5","2","2","4","2","5","5","5","4","4","5","5","5","5","5","5","5","5","5","1","1","0","0","1","1","0","1","1","0","1","0","1","0","0","5","5","5","1","5","","1","5","5","5","2","787084202704248834","秦","378","","","","","","","","","","","","","","","","","","","true","4","4","ability","671","negative","蠢笨","","","","","","","","","","","","","","","","",""
"null","","null","html-keyboard-response","132","514261","0.0-6.0-0.0-8.0-0.12","4","4","4","4","4","4","4","4","4","3","5","2","2","4","2","5","5","5","4","4","5","5","5","5","5","5","5","5","5","1","1","0","0","1","1","0","1","1","0","1","0","1","0","0","5","5","5","1","5","","1","5","5","5","2","787084202704248834","秦","378","","","","","","","","","","","","","","","","","","","","","","","","","","","","","","","","","","","","","","","","","",""
"760","<p style=""color:rgb(150, 250, 100); font-size: 35px;"">别人的</p>","e","categorize-html","133","515022","0.0-6.0-0.0-8.0-1.12","4","4","4","4","4","4","4","4","4","3","5","2","2","4","2","5","5","5","4","4","5","5","5","5","5","5","5","5","5","1","1","0","0","1","1","0","1","1","0","1","0","1","0","0","5","5","5","1","5","","1","5","5","5","2","787084202704248834","秦","378","","","","","","","","","","","","","","","","","","","true","4","4","ability","760","other","别人的","","","","","","","","","","","","","","","","",""
"null","","null","html-keyboard-response","134","515273","0.0-6.0-0.0-8.0-0.13","4","4","4","4","4","4","4","4","4","3","5","2","2","4","2","5","5","5","4","4","5","5","5","5","5","5","5","5","5","1","1","0","0","1","1","0","1","1","0","1","0","1","0","0","5","5","5","1","5","","1","5","5","5","2","787084202704248834","秦","378","","","","","","","","","","","","","","","","","","","","","","","","","","","","","","","","","","","","","","","","","",""
"709","<p style=""color:white; font-size: 35px;"">愚钝</p>","e","categorize-html","135","515983","0.0-6.0-0.0-8.0-1.13","4","4","4","4","4","4","4","4","4","3","5","2","2","4","2","5","5","5","4","4","5","5","5","5","5","5","5","5","5","1","1","0","0","1","1","0","1","1","0","1","0","1","0","0","5","5","5","1","5","","1","5","5","5","2","787084202704248834","秦","378","","","","","","","","","","","","","","","","","","","true","4","4","ability","709","negative","愚钝","","","","","","","","","","","","","","","","",""
"null","","null","html-keyboard-response","136","516235","0.0-6.0-0.0-8.0-0.14","4","4","4","4","4","4","4","4","4","3","5","2","2","4","2","5","5","5","4","4","5","5","5","5","5","5","5","5","5","1","1","0","0","1","1","0","1","1","0","1","0","1","0","0","5","5","5","1","5","","1","5","5","5","2","787084202704248834","秦","378","","","","","","","","","","","","","","","","","","","","","","","","","","","","","","","","","","","","","","","","","",""
"573","<p style=""color:rgb(150, 250, 100); font-size: 35px;"">我</p>","i","categorize-html","137","516808","0.0-6.0-0.0-8.0-1.14","4","4","4","4","4","4","4","4","4","3","5","2","2","4","2","5","5","5","4","4","5","5","5","5","5","5","5","5","5","1","1","0","0","1","1","0","1","1","0","1","0","1","0","0","5","5","5","1","5","","1","5","5","5","2","787084202704248834","秦","378","","","","","","","","","","","","","","","","","","","true","4","4","ability","573","self","我","","","","","","","","","","","","","","","","",""
"null","","null","html-keyboard-response","138","517059","0.0-6.0-0.0-8.0-0.15","4","4","4","4","4","4","4","4","4","3","5","2","2","4","2","5","5","5","4","4","5","5","5","5","5","5","5","5","5","1","1","0","0","1","1","0","1","1","0","1","0","1","0","0","5","5","5","1","5","","1","5","5","5","2","787084202704248834","秦","378","","","","","","","","","","","","","","","","","","","","","","","","","","","","","","","","","","","","","","","","","",""
"688","<p style=""color:white; font-size: 35px;"">高效</p>","i","categorize-html","139","517748","0.0-6.0-0.0-8.0-1.15","4","4","4","4","4","4","4","4","4","3","5","2","2","4","2","5","5","5","4","4","5","5","5","5","5","5","5","5","5","1","1","0","0","1","1","0","1","1","0","1","0","1","0","0","5","5","5","1","5","","1","5","5","5","2","787084202704248834","秦","378","","","","","","","","","","","","","","","","","","","true","4","4","ability","688","positive","高效","","","","","","","","","","","","","","","","",""
"null","","null","html-keyboard-response","140","517999","0.0-6.0-0.0-8.0-0.16","4","4","4","4","4","4","4","4","4","3","5","2","2","4","2","5","5","5","4","4","5","5","5","5","5","5","5","5","5","1","1","0","0","1","1","0","1","1","0","1","0","1","0","0","5","5","5","1","5","","1","5","5","5","2","787084202704248834","秦","378","","","","","","","","","","","","","","","","","","","","","","","","","","","","","","","","","","","","","","","","","",""
"658","<p style=""color:rgb(150, 250, 100); font-size: 35px;"">自己</p>","i","categorize-html","141","518658","0.0-6.0-0.0-8.0-1.16","4","4","4","4","4","4","4","4","4","3","5","2","2","4","2","5","5","5","4","4","5","5","5","5","5","5","5","5","5","1","1","0","0","1","1","0","1","1","0","1","0","1","0","0","5","5","5","1","5","","1","5","5","5","2","787084202704248834","秦","378","","","","","","","","","","","","","","","","","","","true","4","4","ability","658","self","自己","","","","","","","","","","","","","","","","",""
"null","","null","html-keyboard-response","142","518909","0.0-6.0-0.0-8.0-0.17","4","4","4","4","4","4","4","4","4","3","5","2","2","4","2","5","5","5","4","4","5","5","5","5","5","5","5","5","5","1","1","0","0","1","1","0","1","1","0","1","0","1","0","0","5","5","5","1","5","","1","5","5","5","2","787084202704248834","秦","378","","","","","","","","","","","","","","","","","","","","","","","","","","","","","","","","","","","","","","","","","",""
"960","<p style=""color:white; font-size: 35px;"">无能</p>","e","categorize-html","143","519872","0.0-6.0-0.0-8.0-1.17","4","4","4","4","4","4","4","4","4","3","5","2","2","4","2","5","5","5","4","4","5","5","5","5","5","5","5","5","5","1","1","0","0","1","1","0","1","1","0","1","0","1","0","0","5","5","5","1","5","","1","5","5","5","2","787084202704248834","秦","378","","","","","","","","","","","","","","","","","","","true","4","4","ability","960","negative","无能","","","","","","","","","","","","","","","","",""
"null","","null","html-keyboard-response","144","520123","0.0-6.0-0.0-8.0-0.18","4","4","4","4","4","4","4","4","4","3","5","2","2","4","2","5","5","5","4","4","5","5","5","5","5","5","5","5","5","1","1","0","0","1","1","0","1","1","0","1","0","1","0","0","5","5","5","1","5","","1","5","5","5","2","787084202704248834","秦","378","","","","","","","","","","","","","","","","","","","","","","","","","","","","","","","","","","","","","","","","","",""
"772","<p style=""color:rgb(150, 250, 100); font-size: 35px;"">他人</p>","e","categorize-html","145","520896","0.0-6.0-0.0-8.0-1.18","4","4","4","4","4","4","4","4","4","3","5","2","2","4","2","5","5","5","4","4","5","5","5","5","5","5","5","5","5","1","1","0","0","1","1","0","1","1","0","1","0","1","0","0","5","5","5","1","5","","1","5","5","5","2","787084202704248834","秦","378","","","","","","","","","","","","","","","","","","","true","4","4","ability","772","other","他人","","","","","","","","","","","","","","","","",""
"null","","null","html-keyboard-response","146","521148","0.0-6.0-0.0-8.0-0.19","4","4","4","4","4","4","4","4","4","3","5","2","2","4","2","5","5","5","4","4","5","5","5","5","5","5","5","5","5","1","1","0","0","1","1","0","1","1","0","1","0","1","0","0","5","5","5","1","5","","1","5","5","5","2","787084202704248834","秦","378","","","","","","","","","","","","","","","","","","","","","","","","","","","","","","","","","","","","","","","","","",""
"1105","<p style=""color:white; font-size: 35px;"">全才</p>","i","categorize-html","147","522254","0.0-6.0-0.0-8.0-1.19","4","4","4","4","4","4","4","4","4","3","5","2","2","4","2","5","5","5","4","4","5","5","5","5","5","5","5","5","5","1","1","0","0","1","1","0","1","1","0","1","0","1","0","0","5","5","5","1","5","","1","5","5","5","2","787084202704248834","秦","378","","","","","","","","","","","","","","","","","","","true","4","4","ability","1105","positive","全才","","","","","","","","","","","","","","","","",""
"null","","null","html-keyboard-response","148","522505","0.0-6.0-0.0-8.0-0.20","4","4","4","4","4","4","4","4","4","3","5","2","2","4","2","5","5","5","4","4","5","5","5","5","5","5","5","5","5","1","1","0","0","1","1","0","1","1","0","1","0","1","0","0","5","5","5","1","5","","1","5","5","5","2","787084202704248834","秦","378","","","","","","","","","","","","","","","","","","","","","","","","","","","","","","","","","","","","","","","","","",""
"723","<p style=""color:rgb(150, 250, 100); font-size: 35px;"">他的</p>","e","categorize-html","149","523229","0.0-6.0-0.0-8.0-1.20","4","4","4","4","4","4","4","4","4","3","5","2","2","4","2","5","5","5","4","4","5","5","5","5","5","5","5","5","5","1","1","0","0","1","1","0","1","1","0","1","0","1","0","0","5","5","5","1","5","","1","5","5","5","2","787084202704248834","秦","378","","","","","","","","","","","","","","","","","","","true","4","4","ability","723","other","他的","","","","","","","","","","","","","","","","",""
"null","","null","html-keyboard-response","150","523480","0.0-6.0-0.0-8.0-0.21","4","4","4","4","4","4","4","4","4","3","5","2","2","4","2","5","5","5","4","4","5","5","5","5","5","5","5","5","5","1","1","0","0","1","1","0","1","1","0","1","0","1","0","0","5","5","5","1","5","","1","5","5","5","2","787084202704248834","秦","378","","","","","","","","","","","","","","","","","","","","","","","","","","","","","","","","","","","","","","","","","",""
"823","<p style=""color:white; font-size: 35px;"">高效</p>","i","categorize-html","151","524303","0.0-6.0-0.0-8.0-1.21","4","4","4","4","4","4","4","4","4","3","5","2","2","4","2","5","5","5","4","4","5","5","5","5","5","5","5","5","5","1","1","0","0","1","1","0","1","1","0","1","0","1","0","0","5","5","5","1","5","","1","5","5","5","2","787084202704248834","秦","378","","","","","","","","","","","","","","","","","","","true","4","4","ability","823","positive","高效","","","","","","","","","","","","","","","","",""
"null","","null","html-keyboard-response","152","524557","0.0-6.0-0.0-8.0-0.22","4","4","4","4","4","4","4","4","4","3","5","2","2","4","2","5","5","5","4","4","5","5","5","5","5","5","5","5","5","1","1","0","0","1","1","0","1","1","0","1","0","1","0","0","5","5","5","1","5","","1","5","5","5","2","787084202704248834","秦","378","","","","","","","","","","","","","","","","","","","","","","","","","","","","","","","","","","","","","","","","","",""
"784","<p style=""color:rgb(150, 250, 100); font-size: 35px;"">本人</p>","i","categorize-html","153","525342","0.0-6.0-0.0-8.0-1.22","4","4","4","4","4","4","4","4","4","3","5","2","2","4","2","5","5","5","4","4","5","5","5","5","5","5","5","5","5","1","1","0","0","1","1","0","1","1","0","1","0","1","0","0","5","5","5","1","5","","1","5","5","5","2","787084202704248834","秦","378","","","","","","","","","","","","","","","","","","","true","4","4","ability","784","self","本人","","","","","","","","","","","","","","","","",""
"null","","null","html-keyboard-response","154","525593","0.0-6.0-0.0-8.0-0.23","4","4","4","4","4","4","4","4","4","3","5","2","2","4","2","5","5","5","4","4","5","5","5","5","5","5","5","5","5","1","1","0","0","1","1","0","1","1","0","1","0","1","0","0","5","5","5","1","5","","1","5","5","5","2","787084202704248834","秦","378","","","","","","","","","","","","","","","","","","","","","","","","","","","","","","","","","","","","","","","","","",""
"818","<p style=""color:white; font-size: 35px;"">愚钝</p>","e","categorize-html","155","526411","0.0-6.0-0.0-8.0-1.23","4","4","4","4","4","4","4","4","4","3","5","2","2","4","2","5","5","5","4","4","5","5","5","5","5","5","5","5","5","1","1","0","0","1","1","0","1","1","0","1","0","1","0","0","5","5","5","1","5","","1","5","5","5","2","787084202704248834","秦","378","","","","","","","","","","","","","","","","","","","true","4","4","ability","818","negative","愚钝","","","","","","","","","","","","","","","","",""
"null","","null","html-keyboard-response","156","526663","0.0-6.0-0.0-8.0-0.24","4","4","4","4","4","4","4","4","4","3","5","2","2","4","2","5","5","5","4","4","5","5","5","5","5","5","5","5","5","1","1","0","0","1","1","0","1","1","0","1","0","1","0","0","5","5","5","1","5","","1","5","5","5","2","787084202704248834","秦","378","","","","","","","","","","","","","","","","","","","","","","","","","","","","","","","","","","","","","","","","","",""
"752","<p style=""color:rgb(150, 250, 100); font-size: 35px;"">别人的</p>","e","categorize-html","157","527417","0.0-6.0-0.0-8.0-1.24","4","4","4","4","4","4","4","4","4","3","5","2","2","4","2","5","5","5","4","4","5","5","5","5","5","5","5","5","5","1","1","0","0","1","1","0","1","1","0","1","0","1","0","0","5","5","5","1","5","","1","5","5","5","2","787084202704248834","秦","378","","","","","","","","","","","","","","","","","","","true","4","4","ability","752","other","别人的","","","","","","","","","","","","","","","","",""
"null","","null","html-keyboard-response","158","527669","0.0-6.0-0.0-8.0-0.25","4","4","4","4","4","4","4","4","4","3","5","2","2","4","2","5","5","5","4","4","5","5","5","5","5","5","5","5","5","1","1","0","0","1","1","0","1","1","0","1","0","1","0","0","5","5","5","1","5","","1","5","5","5","2","787084202704248834","秦","378","","","","","","","","","","","","","","","","","","","","","","","","","","","","","","","","","","","","","","","","","",""
"728","<p style=""color:white; font-size: 35px;"">精干</p>","i","categorize-html","159","528398","0.0-6.0-0.0-8.0-1.25","4","4","4","4","4","4","4","4","4","3","5","2","2","4","2","5","5","5","4","4","5","5","5","5","5","5","5","5","5","1","1","0","0","1","1","0","1","1","0","1","0","1","0","0","5","5","5","1","5","","1","5","5","5","2","787084202704248834","秦","378","","","","","","","","","","","","","","","","","","","true","4","4","ability","728","positive","精干","","","","","","","","","","","","","","","","",""
"null","","null","html-keyboard-response","160","528663","0.0-6.0-0.0-8.0-0.26","4","4","4","4","4","4","4","4","4","3","5","2","2","4","2","5","5","5","4","4","5","5","5","5","5","5","5","5","5","1","1","0","0","1","1","0","1","1","0","1","0","1","0","0","5","5","5","1","5","","1","5","5","5","2","787084202704248834","秦","378","","","","","","","","","","","","","","","","","","","","","","","","","","","","","","","","","","","","","","","","","",""
"616","<p style=""color:rgb(150, 250, 100); font-size: 35px;"">自己的</p>","i","categorize-html","161","529281","0.0-6.0-0.0-8.0-1.26","4","4","4","4","4","4","4","4","4","3","5","2","2","4","2","5","5","5","4","4","5","5","5","5","5","5","5","5","5","1","1","0","0","1","1","0","1","1","0","1","0","1","0","0","5","5","5","1","5","","1","5","5","5","2","787084202704248834","秦","378","","","","","","","","","","","","","","","","","","","true","4","4","ability","616","self","自己的","","","","","","","","","","","","","","","","",""
"null","","null","html-keyboard-response","162","529532","0.0-6.0-0.0-8.0-0.27","4","4","4","4","4","4","4","4","4","3","5","2","2","4","2","5","5","5","4","4","5","5","5","5","5","5","5","5","5","1","1","0","0","1","1","0","1","1","0","1","0","1","0","0","5","5","5","1","5","","1","5","5","5","2","787084202704248834","秦","378","","","","","","","","","","","","","","","","","","","","","","","","","","","","","","","","","","","","","","","","","",""
"902","<p style=""color:white; font-size: 35px;"">废物</p>","e","categorize-html","163","530435","0.0-6.0-0.0-8.0-1.27","4","4","4","4","4","4","4","4","4","3","5","2","2","4","2","5","5","5","4","4","5","5","5","5","5","5","5","5","5","1","1","0","0","1","1","0","1","1","0","1","0","1","0","0","5","5","5","1","5","","1","5","5","5","2","787084202704248834","秦","378","","","","","","","","","","","","","","","","","","","true","4","4","ability","902","negative","废物","","","","","","","","","","","","","","","","",""
"null","","null","html-keyboard-response","164","530687","0.0-6.0-0.0-8.0-0.28","4","4","4","4","4","4","4","4","4","3","5","2","2","4","2","5","5","5","4","4","5","5","5","5","5","5","5","5","5","1","1","0","0","1","1","0","1","1","0","1","0","1","0","0","5","5","5","1","5","","1","5","5","5","2","787084202704248834","秦","378","","","","","","","","","","","","","","","","","","","","","","","","","","","","","","","","","","","","","","","","","",""
"752","<p style=""color:rgb(150, 250, 100); font-size: 35px;"">他</p>","e","categorize-html","165","531440","0.0-6.0-0.0-8.0-1.28","4","4","4","4","4","4","4","4","4","3","5","2","2","4","2","5","5","5","4","4","5","5","5","5","5","5","5","5","5","1","1","0","0","1","1","0","1","1","0","1","0","1","0","0","5","5","5","1","5","","1","5","5","5","2","787084202704248834","秦","378","","","","","","","","","","","","","","","","","","","true","4","4","ability","752","other","他","","","","","","","","","","","","","","","","",""
"null","","null","html-keyboard-response","166","531690","0.0-6.0-0.0-8.0-0.29","4","4","4","4","4","4","4","4","4","3","5","2","2","4","2","5","5","5","4","4","5","5","5","5","5","5","5","5","5","1","1","0","0","1","1","0","1","1","0","1","0","1","0","0","5","5","5","1","5","","1","5","5","5","2","787084202704248834","秦","378","","","","","","","","","","","","","","","","","","","","","","","","","","","","","","","","","","","","","","","","","",""
"753","<p style=""color:white; font-size: 35px;"">天才</p>","i","categorize-html","167","532444","0.0-6.0-0.0-8.0-1.29","4","4","4","4","4","4","4","4","4","3","5","2","2","4","2","5","5","5","4","4","5","5","5","5","5","5","5","5","5","1","1","0","0","1","1","0","1","1","0","1","0","1","0","0","5","5","5","1","5","","1","5","5","5","2","787084202704248834","秦","378","","","","","","","","","","","","","","","","","","","true","4","4","ability","753","positive","天才","","","","","","","","","","","","","","","","",""
"null","","null","html-keyboard-response","168","532696","0.0-6.0-0.0-8.0-0.30","4","4","4","4","4","4","4","4","4","3","5","2","2","4","2","5","5","5","4","4","5","5","5","5","5","5","5","5","5","1","1","0","0","1","1","0","1","1","0","1","0","1","0","0","5","5","5","1","5","","1","5","5","5","2","787084202704248834","秦","378","","","","","","","","","","","","","","","","","","","","","","","","","","","","","","","","","","","","","","","","","",""
"531","<p style=""color:rgb(150, 250, 100); font-size: 35px;"">我</p>","i","categorize-html","169","533228","0.0-6.0-0.0-8.0-1.30","4","4","4","4","4","4","4","4","4","3","5","2","2","4","2","5","5","5","4","4","5","5","5","5","5","5","5","5","5","1","1","0","0","1","1","0","1","1","0","1","0","1","0","0","5","5","5","1","5","","1","5","5","5","2","787084202704248834","秦","378","","","","","","","","","","","","","","","","","","","true","4","4","ability","531","self","我","","","","","","","","","","","","","","","","",""
"null","","null","html-keyboard-response","170","533479","0.0-6.0-0.0-8.0-0.31","4","4","4","4","4","4","4","4","4","3","5","2","2","4","2","5","5","5","4","4","5","5","5","5","5","5","5","5","5","1","1","0","0","1","1","0","1","1","0","1","0","1","0","0","5","5","5","1","5","","1","5","5","5","2","787084202704248834","秦","378","","","","","","","","","","","","","","","","","","","","","","","","","","","","","","","","","","","","","","","","","",""
"798","<p style=""color:white; font-size: 35px;"">拙笨</p>","e","categorize-html","171","534277","0.0-6.0-0.0-8.0-1.31","4","4","4","4","4","4","4","4","4","3","5","2","2","4","2","5","5","5","4","4","5","5","5","5","5","5","5","5","5","1","1","0","0","1","1","0","1","1","0","1","0","1","0","0","5","5","5","1","5","","1","5","5","5","2","787084202704248834","秦","378","","","","","","","","","","","","","","","","","","","true","4","4","ability","798","negative","拙笨","","","","","","","","","","","","","","","","",""
"null","","null","html-keyboard-response","172","534529","0.0-6.0-0.0-8.0-0.32","4","4","4","4","4","4","4","4","4","3","5","2","2","4","2","5","5","5","4","4","5","5","5","5","5","5","5","5","5","1","1","0","0","1","1","0","1","1","0","1","0","1","0","0","5","5","5","1","5","","1","5","5","5","2","787084202704248834","秦","378","","","","","","","","","","","","","","","","","","","","","","","","","","","","","","","","","","","","","","","","","",""
"717","<p style=""color:rgb(150, 250, 100); font-size: 35px;"">他人的</p>","e","categorize-html","173","535247","0.0-6.0-0.0-8.0-1.32","4","4","4","4","4","4","4","4","4","3","5","2","2","4","2","5","5","5","4","4","5","5","5","5","5","5","5","5","5","1","1","0","0","1","1","0","1","1","0","1","0","1","0","0","5","5","5","1","5","","1","5","5","5","2","787084202704248834","秦","378","","","","","","","","","","","","","","","","","","","true","4","4","ability","717","other","他人的","","","","","","","","","","","","","","","","",""
"null","","null","html-keyboard-response","174","535498","0.0-6.0-0.0-8.0-0.33","4","4","4","4","4","4","4","4","4","3","5","2","2","4","2","5","5","5","4","4","5","5","5","5","5","5","5","5","5","1","1","0","0","1","1","0","1","1","0","1","0","1","0","0","5","5","5","1","5","","1","5","5","5","2","787084202704248834","秦","378","","","","","","","","","","","","","","","","","","","","","","","","","","","","","","","","","","","","","","","","","",""
"663","<p style=""color:white; font-size: 35px;"">拙笨</p>","e","categorize-html","175","536161","0.0-6.0-0.0-8.0-1.33","4","4","4","4","4","4","4","4","4","3","5","2","2","4","2","5","5","5","4","4","5","5","5","5","5","5","5","5","5","1","1","0","0","1","1","0","1","1","0","1","0","1","0","0","5","5","5","1","5","","1","5","5","5","2","787084202704248834","秦","378","","","","","","","","","","","","","","","","","","","true","4","4","ability","663","negative","拙笨","","","","","","","","","","","","","","","","",""
"null","","null","html-keyboard-response","176","536412","0.0-6.0-0.0-8.0-0.34","4","4","4","4","4","4","4","4","4","3","5","2","2","4","2","5","5","5","4","4","5","5","5","5","5","5","5","5","5","1","1","0","0","1","1","0","1","1","0","1","0","1","0","0","5","5","5","1","5","","1","5","5","5","2","787084202704248834","秦","378","","","","","","","","","","","","","","","","","","","","","","","","","","","","","","","","","","","","","","","","","",""
"720","<p style=""color:rgb(150, 250, 100); font-size: 35px;"">本人的</p>","i","categorize-html","177","537133","0.0-6.0-0.0-8.0-1.34","4","4","4","4","4","4","4","4","4","3","5","2","2","4","2","5","5","5","4","4","5","5","5","5","5","5","5","5","5","1","1","0","0","1","1","0","1","1","0","1","0","1","0","0","5","5","5","1","5","","1","5","5","5","2","787084202704248834","秦","378","","","","","","","","","","","","","","","","","","","true","4","4","ability","720","self","本人的","","","","","","","","","","","","","","","","",""
"null","","null","html-keyboard-response","178","537383","0.0-6.0-0.0-8.0-0.35","4","4","4","4","4","4","4","4","4","3","5","2","2","4","2","5","5","5","4","4","5","5","5","5","5","5","5","5","5","1","1","0","0","1","1","0","1","1","0","1","0","1","0","0","5","5","5","1","5","","1","5","5","5","2","787084202704248834","秦","378","","","","","","","","","","","","","","","","","","","","","","","","","","","","","","","","","","","","","","","","","",""
"702","<p style=""color:white; font-size: 35px;"">精干</p>","i","categorize-html","179","538086","0.0-6.0-0.0-8.0-1.35","4","4","4","4","4","4","4","4","4","3","5","2","2","4","2","5","5","5","4","4","5","5","5","5","5","5","5","5","5","1","1","0","0","1","1","0","1","1","0","1","0","1","0","0","5","5","5","1","5","","1","5","5","5","2","787084202704248834","秦","378","","","","","","","","","","","","","","","","","","","true","4","4","ability","702","positive","精干","","","","","","","","","","","","","","","","",""
"null","","null","html-keyboard-response","180","538336","0.0-6.0-0.0-8.0-0.36","4","4","4","4","4","4","4","4","4","3","5","2","2","4","2","5","5","5","4","4","5","5","5","5","5","5","5","5","5","1","1","0","0","1","1","0","1","1","0","1","0","1","0","0","5","5","5","1","5","","1","5","5","5","2","787084202704248834","秦","378","","","","","","","","","","","","","","","","","","","","","","","","","","","","","","","","","","","","","","","","","",""
"667","<p style=""color:rgb(150, 250, 100); font-size: 35px;"">自己</p>","i","categorize-html","181","539005","0.0-6.0-0.0-8.0-1.36","4","4","4","4","4","4","4","4","4","3","5","2","2","4","2","5","5","5","4","4","5","5","5","5","5","5","5","5","5","1","1","0","0","1","1","0","1","1","0","1","0","1","0","0","5","5","5","1","5","","1","5","5","5","2","787084202704248834","秦","378","","","","","","","","","","","","","","","","","","","true","4","4","ability","667","self","自己","","","","","","","","","","","","","","","","",""
"null","","null","html-keyboard-response","182","539257","0.0-6.0-0.0-8.0-0.37","4","4","4","4","4","4","4","4","4","3","5","2","2","4","2","5","5","5","4","4","5","5","5","5","5","5","5","5","5","1","1","0","0","1","1","0","1","1","0","1","0","1","0","0","5","5","5","1","5","","1","5","5","5","2","787084202704248834","秦","378","","","","","","","","","","","","","","","","","","","","","","","","","","","","","","","","","","","","","","","","","",""
"552","<p style=""color:white; font-size: 35px;"">能干</p>","i","categorize-html","183","539810","0.0-6.0-0.0-8.0-1.37","4","4","4","4","4","4","4","4","4","3","5","2","2","4","2","5","5","5","4","4","5","5","5","5","5","5","5","5","5","1","1","0","0","1","1","0","1","1","0","1","0","1","0","0","5","5","5","1","5","","1","5","5","5","2","787084202704248834","秦","378","","","","","","","","","","","","","","","","","","","true","4","4","ability","552","positive","能干","","","","","","","","","","","","","","","","",""
"null","","null","html-keyboard-response","184","540061","0.0-6.0-0.0-8.0-0.38","4","4","4","4","4","4","4","4","4","3","5","2","2","4","2","5","5","5","4","4","5","5","5","5","5","5","5","5","5","1","1","0","0","1","1","0","1","1","0","1","0","1","0","0","5","5","5","1","5","","1","5","5","5","2","787084202704248834","秦","378","","","","","","","","","","","","","","","","","","","","","","","","","","","","","","","","","","","","","","","","","",""
"807","<p style=""color:rgb(150, 250, 100); font-size: 35px;"">别人</p>","e","categorize-html","185","540869","0.0-6.0-0.0-8.0-1.38","4","4","4","4","4","4","4","4","4","3","5","2","2","4","2","5","5","5","4","4","5","5","5","5","5","5","5","5","5","1","1","0","0","1","1","0","1","1","0","1","0","1","0","0","5","5","5","1","5","","1","5","5","5","2","787084202704248834","秦","378","","","","","","","","","","","","","","","","","","","true","4","4","ability","807","other","别人","","","","","","","","","","","","","","","","",""
"null","","null","html-keyboard-response","186","541120","0.0-6.0-0.0-8.0-0.39","4","4","4","4","4","4","4","4","4","3","5","2","2","4","2","5","5","5","4","4","5","5","5","5","5","5","5","5","5","1","1","0","0","1","1","0","1","1","0","1","0","1","0","0","5","5","5","1","5","","1","5","5","5","2","787084202704248834","秦","378","","","","","","","","","","","","","","","","","","","","","","","","","","","","","","","","","","","","","","","","","",""
"673","<p style=""color:white; font-size: 35px;"">低能</p>","e","categorize-html","187","541793","0.0-6.0-0.0-8.0-1.39","4","4","4","4","4","4","4","4","4","3","5","2","2","4","2","5","5","5","4","4","5","5","5","5","5","5","5","5","5","1","1","0","0","1","1","0","1","1","0","1","0","1","0","0","5","5","5","1","5","","1","5","5","5","2","787084202704248834","秦","378","","","","","","","","","","","","","","","","","","","true","4","4","ability","673","negative","低能","","","","","","","","","","","","","","","","",""
"null","","null","html-keyboard-response","188","542045","0.0-6.0-0.0-8.0-0.40","4","4","4","4","4","4","4","4","4","3","5","2","2","4","2","5","5","5","4","4","5","5","5","5","5","5","5","5","5","1","1","0","0","1","1","0","1","1","0","1","0","1","0","0","5","5","5","1","5","","1","5","5","5","2","787084202704248834","秦","378","","","","","","","","","","","","","","","","","","","","","","","","","","","","","","","","","","","","","","","","","",""
"817","<p style=""color:rgb(150, 250, 100); font-size: 35px;"">他人</p>","e","categorize-html","189","542863","0.0-6.0-0.0-8.0-1.40","4","4","4","4","4","4","4","4","4","3","5","2","2","4","2","5","5","5","4","4","5","5","5","5","5","5","5","5","5","1","1","0","0","1","1","0","1","1","0","1","0","1","0","0","5","5","5","1","5","","1","5","5","5","2","787084202704248834","秦","378","","","","","","","","","","","","","","","","","","","true","4","4","ability","817","other","他人","","","","","","","","","","","","","","","","",""
"null","","null","html-keyboard-response","190","543114","0.0-6.0-0.0-8.0-0.41","4","4","4","4","4","4","4","4","4","3","5","2","2","4","2","5","5","5","4","4","5","5","5","5","5","5","5","5","5","1","1","0","0","1","1","0","1","1","0","1","0","1","0","0","5","5","5","1","5","","1","5","5","5","2","787084202704248834","秦","378","","","","","","","","","","","","","","","","","","","","","","","","","","","","","","","","","","","","","","","","","",""
"707","<p style=""color:white; font-size: 35px;"">天才</p>","i","categorize-html","191","543822","0.0-6.0-0.0-8.0-1.41","4","4","4","4","4","4","4","4","4","3","5","2","2","4","2","5","5","5","4","4","5","5","5","5","5","5","5","5","5","1","1","0","0","1","1","0","1","1","0","1","0","1","0","0","5","5","5","1","5","","1","5","5","5","2","787084202704248834","秦","378","","","","","","","","","","","","","","","","","","","true","4","4","ability","707","positive","天才","","","","","","","","","","","","","","","","",""
"null","","null","html-keyboard-response","192","544073","0.0-6.0-0.0-8.0-0.42","4","4","4","4","4","4","4","4","4","3","5","2","2","4","2","5","5","5","4","4","5","5","5","5","5","5","5","5","5","1","1","0","0","1","1","0","1","1","0","1","0","1","0","0","5","5","5","1","5","","1","5","5","5","2","787084202704248834","秦","378","","","","","","","","","","","","","","","","","","","","","","","","","","","","","","","","","","","","","","","","","",""
"693","<p style=""color:rgb(150, 250, 100); font-size: 35px;"">本人的</p>","i","categorize-html","193","544767","0.0-6.0-0.0-8.0-1.42","4","4","4","4","4","4","4","4","4","3","5","2","2","4","2","5","5","5","4","4","5","5","5","5","5","5","5","5","5","1","1","0","0","1","1","0","1","1","0","1","0","1","0","0","5","5","5","1","5","","1","5","5","5","2","787084202704248834","秦","378","","","","","","","","","","","","","","","","","","","true","4","4","ability","693","self","本人的","","","","","","","","","","","","","","","","",""
