"rt","stimulus","response","trial_type","trial_index","time_elapsed","internal_node_id","ses_1","ses_2","ses_3","ses_4","ses_5","ses_6","ses_7","ses_8","ses_9","ses_10","coreself_1","coreself_2","coreself_3","coreself_4","coreself_5","coreself_6","coreself_7","coreself_8","coreself_9","coreself_10","SGPS_1","SGPS_2","SGPS_3","SGPS_4","SGPS_5","SGPS_6","SGPS_7","SGPS_8","SGPS_9","NPI1","NPI2","NPI3","NPI4","NPI5","NPI6","NPI7","NPI8","NPI9","NPI10","NPI11","NPI12","NPI13","NPI14","NPI15","hsns_1","hsns_2","hsns_3","hsns_4","hsns_5","trap1","hsns_6","hsns_7","hsns_8","hsns_9","hsns_10","subj_idx","friend_name","ParticipantID","value","success","user_agent","responses","item_order","radio_event_ids","radio_event_times","key_event_times","mouse_event_times","straightlining","zigzagging","honeypot","timeout","failed_images","failed_audio","failed_video","view_history","response_type","key_press","avg_frame_time","center_x","center_y","correct_response","correct","identity","Image","word","condition","task_id","screen_id","time_stamp","version_attrib2","version_target2","IAT","RT","varname","summary","version_attrib","version_target","question_order","correct_answer","trap1_item"
"6031","
   <p><div style = ""color: white;font-size:25px;"">您好，欢迎参加本次实验。</div> </p>
   <p><div style = ""color: white;font-size:25px;"">为充分保障您的权利，请确保您已经知晓并同意《参与实验同意书》以及《数据公开知情同意书》。</div></p>
   <p><div style = ""color: white;font-size:25px;"">如果您未见过上述内容，请咨询实验员。</div></p>
   <p><div style = ""color: white;font-size:25px;"">如果您选择继续实验，则表示您已经清楚两份知情同意书的内容并同意。</div></p>
   <p><div style = ""color: pink;font-size:30px;"">请确保您记得day0的实验编号，您将在本次实验输入该编号，若您忘记，请咨询实验员后作答。</div></p>
   <p><div style = ""color: lightblue;font-size:25px;"">请您尽可能认真地作答，我们将依据您在各问卷和按键任务中的作答质量发放报酬。</div></p>
   <p> <div style = ""color: green;font-size:25px;""><按空格键至下页></div> </p>
   "," ","html-keyboard-response","0","6035","0.0-0.0","3","3","3","3","3","3","3","3","3","3","4","2","2","4","4","4","4","4","4","4","2","2","2","2","2","2","2","2","2","0","0","1","1","0","0","0","0","1","1","1","0","1","0","1","4","2","2","4","4","","2","4","4","4","2","718762010250051584","李","235","","","","","","","","","","","","","","","","","","","","","","","","","","","","","","","","","","","","","","","","","",""
"","","","call-function","1","6038","0.0-1.0-0.0","3","3","3","3","3","3","3","3","3","3","4","2","2","4","4","4","4","4","4","4","2","2","2","2","2","2","2","2","2","0","0","1","1","0","0","0","0","1","1","1","0","1","0","1","4","2","2","4","4","","2","4","4","4","2","718762010250051584","李","235","","","","","","","","","","","","","","","","","","","","","","","","","","","","","","","","","","","","","","","","","",""
"26448","","{""friend_name"":""李"",""ParticipantID"":""235""}","survey-html-form","2","32487","0.0-1.0-1.0","3","3","3","3","3","3","3","3","3","3","4","2","2","4","4","4","4","4","4","4","2","2","2","2","2","2","2","2","2","0","0","1","1","0","0","0","0","1","1","1","0","1","0","1","4","2","2","4","4","","2","4","4","4","2","718762010250051584","李","235","","","","","","","","","","","","","","","","","","","","","","","","","","","","","","","","","","","","","","","","","",""
"","","","fullscreen","3","34683","0.0-2.0","3","3","3","3","3","3","3","3","3","3","4","2","2","4","4","4","4","4","4","4","2","2","2","2","2","2","2","2","2","0","0","1","1","0","0","0","0","1","1","1","0","1","0","1","4","2","2","4","4","","2","4","4","4","2","718762010250051584","李","235","","true","{}","","","","","","","","","","","","","","","","","","","","","","","","","","","","","","","","","","","","","","",""
"29445.100000000035","","{""Q01"":""3"",""Q02"":""3"",""Q03"":""3"",""Q04"":""3"",""Q05"":""3"",""Q06"":""3"",""Q07"":""3"",""Q08"":""3"",""Q09"":""3"",""Q10"":""3""}","survey-template","4","64133","0.0-3.0","3","3","3","3","3","3","3","3","3","3","4","2","2","4","4","4","4","4","4","4","2","2","2","2","2","2","2","2","2","0","0","1","1","0","0","0","0","1","1","1","0","1","0","1","4","2","2","4","4","","2","4","4","4","2","718762010250051584","李","235","","","","{""Q01"":""3"",""Q02"":""3"",""Q03"":""3"",""Q04"":""3"",""Q05"":""3"",""Q06"":""3"",""Q07"":""3"",""Q08"":""3"",""Q09"":""3"",""Q10"":""3""}","[0,1,2,3,4,5,6,7,8,9]","[""Q01"",""Q02"",""Q03"",""Q04"",""Q05"",""Q06"",""Q07"",""Q08"",""Q09"",""Q10""]","[5316.900000000023,7014.5,10114.300000000047,13698.5,15893.300000000047,17931.400000000023,20359.400000000023,22533.400000000023,25885.20000000001,28128.100000000035]","[]","[5316.900000000023,7014.5,8488.700000000012,9249.400000000023,10114.300000000047,12241.700000000012,13698.5,15052.400000000023,15893.300000000047,17186.800000000047,17931.400000000023,19598.5,20359.400000000023,22533.400000000023,23959.20000000001,25885.20000000001,28128.100000000035,29442.600000000035]","0.5","0.5555555555555556","0","","","","","","","","","","","","","","","","","","","","","","","","","","","","","",""
"21090","","{""Q01"":""4"",""Q02"":""2"",""Q03"":""2"",""Q04"":""4"",""Q05"":""4"",""Q06"":""4"",""Q07"":""4"",""Q08"":""4"",""Q09"":""4"",""Q10"":""4""}","survey-template","5","85235","0.0-4.0","3","3","3","3","3","3","3","3","3","3","4","2","2","4","4","4","4","4","4","4","2","2","2","2","2","2","2","2","2","0","0","1","1","0","0","0","0","1","1","1","0","1","0","1","4","2","2","4","4","","2","4","4","4","2","718762010250051584","李","235","","","","{""Q01"":""4"",""Q02"":""2"",""Q03"":""2"",""Q04"":""4"",""Q05"":""4"",""Q06"":""4"",""Q07"":""4"",""Q08"":""4"",""Q09"":""4"",""Q10"":""4""}","[0,1,2,3,4,5,6,7,8,9]","[""Q01"",""Q02"",""Q03"",""Q04"",""Q05"",""Q06"",""Q07"",""Q08"",""Q09"",""Q10""]","[3801.7999999999884,4827.200000000012,7435,8293,10864.099999999977,12425.900000000023,13959.900000000023,16203.299999999988,17556.900000000023,18998.70000000001]","[]","[3801.7999999999884,4827.200000000012,6341.5,7435,8293,10864.099999999977,12425.900000000023,13959.900000000023,16203.299999999988,17556.900000000023,18998.70000000001,21087.400000000023]","0.6","0","0","","","","","","","","","","","","","","","","","","","","","","","","","","","","","",""
"","","","preload","6","85921","0.0-5.0","3","3","3","3","3","3","3","3","3","3","4","2","2","4","4","4","4","4","4","4","2","2","2","2","2","2","2","2","2","0","0","1","1","0","0","0","0","1","1","1","0","1","0","1","4","2","2","4","4","","2","4","4","4","2","718762010250051584","李","235","","true","","","","","","","","","","","false","[]","[]","[]","","","","","","","","","","","","","","","","","","","","","","","","","",""
"10612","","","instructions","7","96534","0.0-6.0","3","3","3","3","3","3","3","3","3","3","4","2","2","4","4","4","4","4","4","4","2","2","2","2","2","2","2","2","2","0","0","1","1","0","0","0","0","1","1","1","0","1","0","1","4","2","2","4","4","","2","4","4","4","2","718762010250051584","李","235","","","","","","","","","","","","","","","","","[{""page_index"":0,""viewing_time"":10611}]","","","","","","","","","","","","","","","","","","","","","","","","",""
"13966","","","instructions","8","110504","0.0-7.0-1.0-0.0","3","3","3","3","3","3","3","3","3","3","4","2","2","4","4","4","4","4","4","4","2","2","2","2","2","2","2","2","2","0","0","1","1","0","0","0","0","1","1","1","0","1","0","1","4","2","2","4","4","","2","4","4","4","2","718762010250051584","李","235","","","","","","","","","","","","","","","","","[{""page_index"":0,""viewing_time"":9451},{""page_index"":1,""viewing_time"":2524},{""page_index"":2,""viewing_time"":1991}]","","","","","","","","","","","","","","","","","","","","","","","","",""
"808","","j","psychophysics","9","112322","0.0-7.0-1.0-1.0-0.0-0.0","3","3","3","3","3","3","3","3","3","3","4","2","2","4","4","4","4","4","4","4","2","2","2","2","2","2","2","2","2","0","0","1","1","0","0","0","0","1","1","1","0","1","0","1","4","2","2","4","4","","2","4","4","4","2","718762010250051584","李","235","","","","match","","","","","","","","","","","","","","key","j","15.624770642201888","683","380","j","true","match","img/square.png","方形","方形","ALT1_2","prac_ALT1_2","","","","","","","","","","","",""
"null","<span style='color:GreenYellow; font-size: 70px;'>正确! </span>","null","html-keyboard-response","10","112825","0.0-7.0-1.0-1.0-0.0-1.0","3","3","3","3","3","3","3","3","3","3","4","2","2","4","4","4","4","4","4","4","2","2","2","2","2","2","2","2","2","0","0","1","1","0","0","0","0","1","1","1","0","1","0","1","4","2","2","4","4","","2","4","4","4","2","718762010250051584","李","235","","","","","","","","","","","","","","","","","","","","","","","","","","","","","","feedback_test","","","","","","","","","","","",""
"759","","f","psychophysics","11","114585","0.0-7.0-1.0-1.0-0.0-0.1","3","3","3","3","3","3","3","3","3","3","4","2","2","4","4","4","4","4","4","4","2","2","2","2","2","2","2","2","2","0","0","1","1","0","0","0","0","1","1","1","0","1","0","1","4","2","2","4","4","","2","4","4","4","2","718762010250051584","李","235","","","","nonmatch","","","","","","","","","","","","","","key","f","15.625","683","380","f","true","nonmatch","img/hexagon.png","方形","六边","ALT1_2","prac_ALT1_2","","","","","","","","","","","",""
"null","<span style='color:GreenYellow; font-size: 70px;'>正确! </span>","null","html-keyboard-response","12","115086","0.0-7.0-1.0-1.0-0.0-1.1","3","3","3","3","3","3","3","3","3","3","4","2","2","4","4","4","4","4","4","4","2","2","2","2","2","2","2","2","2","0","0","1","1","0","0","0","0","1","1","1","0","1","0","1","4","2","2","4","4","","2","4","4","4","2","718762010250051584","李","235","","","","","","","","","","","","","","","","","","","","","","","","","","","","","","feedback_test","","","","","","","","","","","",""
"809","","f","psychophysics","13","116897","0.0-7.0-1.0-1.0-0.0-0.2","3","3","3","3","3","3","3","3","3","3","4","2","2","4","4","4","4","4","4","4","2","2","2","2","2","2","2","2","2","0","0","1","1","0","0","0","0","1","1","1","0","1","0","1","4","2","2","4","4","","2","4","4","4","2","718762010250051584","李","235","","","","nonmatch","","","","","","","","","","","","","","key","f","15.625217391304425","683","380","f","true","nonmatch","img/circle.png","方形","圆形","ALT1_2","prac_ALT1_2","","","","","","","","","","","",""
"null","<span style='color:GreenYellow; font-size: 70px;'>正确! </span>","null","html-keyboard-response","14","117398","0.0-7.0-1.0-1.0-0.0-1.2","3","3","3","3","3","3","3","3","3","3","4","2","2","4","4","4","4","4","4","4","2","2","2","2","2","2","2","2","2","0","0","1","1","0","0","0","0","1","1","1","0","1","0","1","4","2","2","4","4","","2","4","4","4","2","718762010250051584","李","235","","","","","","","","","","","","","","","","","","","","","","","","","","","","","","feedback_test","","","","","","","","","","","",""
"770","","f","psychophysics","15","119170","0.0-7.0-1.0-1.0-0.0-0.3","3","3","3","3","3","3","3","3","3","3","4","2","2","4","4","4","4","4","4","4","2","2","2","2","2","2","2","2","2","0","0","1","1","0","0","0","0","1","1","1","0","1","0","1","4","2","2","4","4","","2","4","4","4","2","718762010250051584","李","235","","","","nonmatch","","","","","","","","","","","","","","key","f","15.62410714285709","683","380","f","true","nonmatch","img/hexagon.png","圆形","六边","ALT1_2","prac_ALT1_2","","","","","","","","","","","",""
"null","<span style='color:GreenYellow; font-size: 70px;'>正确! </span>","null","html-keyboard-response","16","119672","0.0-7.0-1.0-1.0-0.0-1.3","3","3","3","3","3","3","3","3","3","3","4","2","2","4","4","4","4","4","4","4","2","2","2","2","2","2","2","2","2","0","0","1","1","0","0","0","0","1","1","1","0","1","0","1","4","2","2","4","4","","2","4","4","4","2","718762010250051584","李","235","","","","","","","","","","","","","","","","","","","","","","","","","","","","","","feedback_test","","","","","","","","","","","",""
"630","","j","psychophysics","17","121305","0.0-7.0-1.0-1.0-0.0-0.4","3","3","3","3","3","3","3","3","3","3","4","2","2","4","4","4","4","4","4","4","2","2","2","2","2","2","2","2","2","0","0","1","1","0","0","0","0","1","1","1","0","1","0","1","4","2","2","4","4","","2","4","4","4","2","718762010250051584","李","235","","","","match","","","","","","","","","","","","","","key","j","15.625242718446545","683","380","j","true","match","img/square.png","方形","方形","ALT1_2","prac_ALT1_2","","","","","","","","","","","",""
"null","<span style='color:GreenYellow; font-size: 70px;'>正确! </span>","null","html-keyboard-response","18","121806","0.0-7.0-1.0-1.0-0.0-1.4","3","3","3","3","3","3","3","3","3","3","4","2","2","4","4","4","4","4","4","4","2","2","2","2","2","2","2","2","2","0","0","1","1","0","0","0","0","1","1","1","0","1","0","1","4","2","2","4","4","","2","4","4","4","2","718762010250051584","李","235","","","","","","","","","","","","","","","","","","","","","","","","","","","","","","feedback_test","","","","","","","","","","","",""
"745","","f","psychophysics","19","123553","0.0-7.0-1.0-1.0-0.0-0.5","3","3","3","3","3","3","3","3","3","3","4","2","2","4","4","4","4","4","4","4","2","2","2","2","2","2","2","2","2","0","0","1","1","0","0","0","0","1","1","1","0","1","0","1","4","2","2","4","4","","2","4","4","4","2","718762010250051584","李","235","","","","nonmatch","","","","","","","","","","","","","","key","f","15.625225225225172","683","380","f","true","nonmatch","img/hexagon.png","菱形","六边","ALT1_2","prac_ALT1_2","","","","","","","","","","","",""
"null","<span style='color:GreenYellow; font-size: 70px;'>正确! </span>","null","html-keyboard-response","20","124054","0.0-7.0-1.0-1.0-0.0-1.5","3","3","3","3","3","3","3","3","3","3","4","2","2","4","4","4","4","4","4","4","2","2","2","2","2","2","2","2","2","0","0","1","1","0","0","0","0","1","1","1","0","1","0","1","4","2","2","4","4","","2","4","4","4","2","718762010250051584","李","235","","","","","","","","","","","","","","","","","","","","","","","","","","","","","","feedback_test","","","","","","","","","","","",""
"889","","f","psychophysics","21","125945","0.0-7.0-1.0-1.0-0.0-0.6","3","3","3","3","3","3","3","3","3","3","4","2","2","4","4","4","4","4","4","4","2","2","2","2","2","2","2","2","2","0","0","1","1","0","0","0","0","1","1","1","0","1","0","1","4","2","2","4","4","","2","4","4","4","2","718762010250051584","李","235","","","","nonmatch","","","","","","","","","","","","","","key","f","15.625","683","380","j","false","match","img/hexagon.png","六边","六边","ALT1_2","prac_ALT1_2","","","","","","","","","","","",""
"null","<span style='color:red; font-size: 70px;'>错误! </span>","null","html-keyboard-response","22","126446","0.0-7.0-1.0-1.0-0.0-1.6","3","3","3","3","3","3","3","3","3","3","4","2","2","4","4","4","4","4","4","4","2","2","2","2","2","2","2","2","2","0","0","1","1","0","0","0","0","1","1","1","0","1","0","1","4","2","2","4","4","","2","4","4","4","2","718762010250051584","李","235","","","","","","","","","","","","","","","","","","","","","","","","","","","","","","feedback_test","","","","","","","","","","","",""
"1018","","j","psychophysics","23","128466","0.0-7.0-1.0-1.0-0.0-0.7","3","3","3","3","3","3","3","3","3","3","4","2","2","4","4","4","4","4","4","4","2","2","2","2","2","2","2","2","2","0","0","1","1","0","0","0","0","1","1","1","0","1","0","1","4","2","2","4","4","","2","4","4","4","2","718762010250051584","李","235","","","","match","","","","","","","","","","","","","","key","j","15.624218750000068","683","380","j","true","match","img/square.png","方形","方形","ALT1_2","prac_ALT1_2","","","","","","","","","","","",""
"null","<span style='color:GreenYellow; font-size: 70px;'>正确! </span>","null","html-keyboard-response","24","128967","0.0-7.0-1.0-1.0-0.0-1.7","3","3","3","3","3","3","3","3","3","3","4","2","2","4","4","4","4","4","4","4","2","2","2","2","2","2","2","2","2","0","0","1","1","0","0","0","0","1","1","1","0","1","0","1","4","2","2","4","4","","2","4","4","4","2","718762010250051584","李","235","","","","","","","","","","","","","","","","","","","","","","","","","","","","","","feedback_test","","","","","","","","","","","",""
"886","","j","psychophysics","25","130858","0.0-7.0-1.0-1.0-0.0-0.8","3","3","3","3","3","3","3","3","3","3","4","2","2","4","4","4","4","4","4","4","2","2","2","2","2","2","2","2","2","0","0","1","1","0","0","0","0","1","1","1","0","1","0","1","4","2","2","4","4","","2","4","4","4","2","718762010250051584","李","235","","","","match","","","","","","","","","","","","","","key","j","15.624369747899307","683","380","j","true","match","img/diamond.png","菱形","菱形","ALT1_2","prac_ALT1_2","","","","","","","","","","","",""
"null","<span style='color:GreenYellow; font-size: 70px;'>正确! </span>","null","html-keyboard-response","26","131360","0.0-7.0-1.0-1.0-0.0-1.8","3","3","3","3","3","3","3","3","3","3","4","2","2","4","4","4","4","4","4","4","2","2","2","2","2","2","2","2","2","0","0","1","1","0","0","0","0","1","1","1","0","1","0","1","4","2","2","4","4","","2","4","4","4","2","718762010250051584","李","235","","","","","","","","","","","","","","","","","","","","","","","","","","","","","","feedback_test","","","","","","","","","","","",""
"550","","f","psychophysics","27","132913","0.0-7.0-1.0-1.0-0.0-0.9","3","3","3","3","3","3","3","3","3","3","4","2","2","4","4","4","4","4","4","4","2","2","2","2","2","2","2","2","2","0","0","1","1","0","0","0","0","1","1","1","0","1","0","1","4","2","2","4","4","","2","4","4","4","2","718762010250051584","李","235","","","","nonmatch","","","","","","","","","","","","","","key","f","15.625510204081515","683","380","f","true","nonmatch","img/diamond.png","六边","菱形","ALT1_2","prac_ALT1_2","","","","","","","","","","","",""
"null","<span style='color:GreenYellow; font-size: 70px;'>正确! </span>","null","html-keyboard-response","28","133414","0.0-7.0-1.0-1.0-0.0-1.9","3","3","3","3","3","3","3","3","3","3","4","2","2","4","4","4","4","4","4","4","2","2","2","2","2","2","2","2","2","0","0","1","1","0","0","0","0","1","1","1","0","1","0","1","4","2","2","4","4","","2","4","4","4","2","718762010250051584","李","235","","","","","","","","","","","","","","","","","","","","","","","","","","","","","","feedback_test","","","","","","","","","","","",""
"611","","f","psychophysics","29","135027","0.0-7.0-1.0-1.0-0.0-0.10","3","3","3","3","3","3","3","3","3","3","4","2","2","4","4","4","4","4","4","4","2","2","2","2","2","2","2","2","2","0","0","1","1","0","0","0","0","1","1","1","0","1","0","1","4","2","2","4","4","","2","4","4","4","2","718762010250051584","李","235","","","","nonmatch","","","","","","","","","","","","","","key","f","15.625490196078603","683","380","j","false","match","img/hexagon.png","六边","六边","ALT1_2","prac_ALT1_2","","","","","","","","","","","",""
"null","<span style='color:red; font-size: 70px;'>错误! </span>","null","html-keyboard-response","30","135527","0.0-7.0-1.0-1.0-0.0-1.10","3","3","3","3","3","3","3","3","3","3","4","2","2","4","4","4","4","4","4","4","2","2","2","2","2","2","2","2","2","0","0","1","1","0","0","0","0","1","1","1","0","1","0","1","4","2","2","4","4","","2","4","4","4","2","718762010250051584","李","235","","","","","","","","","","","","","","","","","","","","","","","","","","","","","","feedback_test","","","","","","","","","","","",""
"672","","j","psychophysics","31","137202","0.0-7.0-1.0-1.0-0.0-0.11","3","3","3","3","3","3","3","3","3","3","4","2","2","4","4","4","4","4","4","4","2","2","2","2","2","2","2","2","2","0","0","1","1","0","0","0","0","1","1","1","0","1","0","1","4","2","2","4","4","","2","4","4","4","2","718762010250051584","李","235","","","","match","","","","","","","","","","","","","","key","j","15.624528301886627","683","380","j","true","match","img/circle.png","圆形","圆形","ALT1_2","prac_ALT1_2","","","","","","","","","","","",""
"null","<span style='color:GreenYellow; font-size: 70px;'>正确! </span>","null","html-keyboard-response","32","137704","0.0-7.0-1.0-1.0-0.0-1.11","3","3","3","3","3","3","3","3","3","3","4","2","2","4","4","4","4","4","4","4","2","2","2","2","2","2","2","2","2","0","0","1","1","0","0","0","0","1","1","1","0","1","0","1","4","2","2","4","4","","2","4","4","4","2","718762010250051584","李","235","","","","","","","","","","","","","","","","","","","","","","","","","","","","","","feedback_test","","","","","","","","","","","",""
"673","","f","psychophysics","33","139379","0.0-7.0-1.0-1.0-0.0-0.12","3","3","3","3","3","3","3","3","3","3","4","2","2","4","4","4","4","4","4","4","2","2","2","2","2","2","2","2","2","0","0","1","1","0","0","0","0","1","1","1","0","1","0","1","4","2","2","4","4","","2","4","4","4","2","718762010250051584","李","235","","","","nonmatch","","","","","","","","","","","","","","key","f","15.624528301886903","683","380","j","false","match","img/diamond.png","菱形","菱形","ALT1_2","prac_ALT1_2","","","","","","","","","","","",""
"null","<span style='color:red; font-size: 70px;'>错误! </span>","null","html-keyboard-response","34","139882","0.0-7.0-1.0-1.0-0.0-1.12","3","3","3","3","3","3","3","3","3","3","4","2","2","4","4","4","4","4","4","4","2","2","2","2","2","2","2","2","2","0","0","1","1","0","0","0","0","1","1","1","0","1","0","1","4","2","2","4","4","","2","4","4","4","2","718762010250051584","李","235","","","","","","","","","","","","","","","","","","","","","","","","","","","","","","feedback_test","","","","","","","","","","","",""
"373","","j","psychophysics","35","141257","0.0-7.0-1.0-1.0-0.0-0.13","3","3","3","3","3","3","3","3","3","3","4","2","2","4","4","4","4","4","4","4","2","2","2","2","2","2","2","2","2","0","0","1","1","0","0","0","0","1","1","1","0","1","0","1","4","2","2","4","4","","2","4","4","4","2","718762010250051584","李","235","","","","match","","","","","","","","","","","","","","key","j","15.622988505746926","683","380","j","true","match","img/circle.png","圆形","圆形","ALT1_2","prac_ALT1_2","","","","","","","","","","","",""
"null","<span style='color:GreenYellow; font-size: 70px;'>正确! </span>","null","html-keyboard-response","36","141759","0.0-7.0-1.0-1.0-0.0-1.13","3","3","3","3","3","3","3","3","3","3","4","2","2","4","4","4","4","4","4","4","2","2","2","2","2","2","2","2","2","0","0","1","1","0","0","0","0","1","1","1","0","1","0","1","4","2","2","4","4","","2","4","4","4","2","718762010250051584","李","235","","","","","","","","","","","","","","","","","","","","","","","","","","","","","","feedback_test","","","","","","","","","","","",""
"541","","j","psychophysics","37","143304","0.0-7.0-1.0-1.0-0.0-0.14","3","3","3","3","3","3","3","3","3","3","4","2","2","4","4","4","4","4","4","4","2","2","2","2","2","2","2","2","2","0","0","1","1","0","0","0","0","1","1","1","0","1","0","1","4","2","2","4","4","","2","4","4","4","2","718762010250051584","李","235","","","","match","","","","","","","","","","","","","","key","j","15.625510204081515","683","380","f","false","nonmatch","img/square.png","六边","方形","ALT1_2","prac_ALT1_2","","","","","","","","","","","",""
"null","<span style='color:red; font-size: 70px;'>错误! </span>","null","html-keyboard-response","38","143805","0.0-7.0-1.0-1.0-0.0-1.14","3","3","3","3","3","3","3","3","3","3","4","2","2","4","4","4","4","4","4","4","2","2","2","2","2","2","2","2","2","0","0","1","1","0","0","0","0","1","1","1","0","1","0","1","4","2","2","4","4","","2","4","4","4","2","718762010250051584","李","235","","","","","","","","","","","","","","","","","","","","","","","","","","","","","","feedback_test","","","","","","","","","","","",""
"379","","f","psychophysics","39","145185","0.0-7.0-1.0-1.0-0.0-0.15","3","3","3","3","3","3","3","3","3","3","4","2","2","4","4","4","4","4","4","4","2","2","2","2","2","2","2","2","2","0","0","1","1","0","0","0","0","1","1","1","0","1","0","1","4","2","2","4","4","","2","4","4","4","2","718762010250051584","李","235","","","","nonmatch","","","","","","","","","","","","","","key","f","15.626436781609195","683","380","f","true","nonmatch","img/diamond.png","圆形","菱形","ALT1_2","prac_ALT1_2","","","","","","","","","","","",""
"null","<span style='color:GreenYellow; font-size: 70px;'>正确! </span>","null","html-keyboard-response","40","145687","0.0-7.0-1.0-1.0-0.0-1.15","3","3","3","3","3","3","3","3","3","3","4","2","2","4","4","4","4","4","4","4","2","2","2","2","2","2","2","2","2","0","0","1","1","0","0","0","0","1","1","1","0","1","0","1","4","2","2","4","4","","2","4","4","4","2","718762010250051584","李","235","","","","","","","","","","","","","","","","","","","","","","","","","","","","","","feedback_test","","","","","","","","","","","",""
"367","","j","psychophysics","41","147057","0.0-7.0-1.0-1.0-0.0-0.16","3","3","3","3","3","3","3","3","3","3","4","2","2","4","4","4","4","4","4","4","2","2","2","2","2","2","2","2","2","0","0","1","1","0","0","0","0","1","1","1","0","1","0","1","4","2","2","4","4","","2","4","4","4","2","718762010250051584","李","235","","","","match","","","","","","","","","","","","","","key","j","15.624418604650959","683","380","f","false","nonmatch","img/circle.png","六边","圆形","ALT1_2","prac_ALT1_2","","","","","","","","","","","",""
"null","<span style='color:red; font-size: 70px;'>错误! </span>","null","html-keyboard-response","42","147558","0.0-7.0-1.0-1.0-0.0-1.16","3","3","3","3","3","3","3","3","3","3","4","2","2","4","4","4","4","4","4","4","2","2","2","2","2","2","2","2","2","0","0","1","1","0","0","0","0","1","1","1","0","1","0","1","4","2","2","4","4","","2","4","4","4","2","718762010250051584","李","235","","","","","","","","","","","","","","","","","","","","","","","","","","","","","","feedback_test","","","","","","","","","","","",""
"348","","f","psychophysics","43","148910","0.0-7.0-1.0-1.0-0.0-0.17","3","3","3","3","3","3","3","3","3","3","4","2","2","4","4","4","4","4","4","4","2","2","2","2","2","2","2","2","2","0","0","1","1","0","0","0","0","1","1","1","0","1","0","1","4","2","2","4","4","","2","4","4","4","2","718762010250051584","李","235","","","","nonmatch","","","","","","","","","","","","","","key","f","15.625581395348702","683","380","f","true","nonmatch","img/circle.png","菱形","圆形","ALT1_2","prac_ALT1_2","","","","","","","","","","","",""
"null","<span style='color:GreenYellow; font-size: 70px;'>正确! </span>","null","html-keyboard-response","44","149412","0.0-7.0-1.0-1.0-0.0-1.17","3","3","3","3","3","3","3","3","3","3","4","2","2","4","4","4","4","4","4","4","2","2","2","2","2","2","2","2","2","0","0","1","1","0","0","0","0","1","1","1","0","1","0","1","4","2","2","4","4","","2","4","4","4","2","718762010250051584","李","235","","","","","","","","","","","","","","","","","","","","","","","","","","","","","","feedback_test","","","","","","","","","","","",""
"348","","f","psychophysics","45","150761","0.0-7.0-1.0-1.0-0.0-0.18","3","3","3","3","3","3","3","3","3","3","4","2","2","4","4","4","4","4","4","4","2","2","2","2","2","2","2","2","2","0","0","1","1","0","0","0","0","1","1","1","0","1","0","1","4","2","2","4","4","","2","4","4","4","2","718762010250051584","李","235","","","","nonmatch","","","","","","","","","","","","","","key","f","15.624705882353009","683","380","f","true","nonmatch","img/square.png","菱形","方形","ALT1_2","prac_ALT1_2","","","","","","","","","","","",""
"null","<span style='color:GreenYellow; font-size: 70px;'>正确! </span>","null","html-keyboard-response","46","151263","0.0-7.0-1.0-1.0-0.0-1.18","3","3","3","3","3","3","3","3","3","3","4","2","2","4","4","4","4","4","4","4","2","2","2","2","2","2","2","2","2","0","0","1","1","0","0","0","0","1","1","1","0","1","0","1","4","2","2","4","4","","2","4","4","4","2","718762010250051584","李","235","","","","","","","","","","","","","","","","","","","","","","","","","","","","","","feedback_test","","","","","","","","","","","",""
"333","","j","psychophysics","47","152598","0.0-7.0-1.0-1.0-0.0-0.19","3","3","3","3","3","3","3","3","3","3","4","2","2","4","4","4","4","4","4","4","2","2","2","2","2","2","2","2","2","0","0","1","1","0","0","0","0","1","1","1","0","1","0","1","4","2","2","4","4","","2","4","4","4","2","718762010250051584","李","235","","","","match","","","","","","","","","","","","","","key","j","15.625","683","380","j","true","match","img/hexagon.png","六边","六边","ALT1_2","prac_ALT1_2","","","","","","","","","","","",""
"null","<span style='color:GreenYellow; font-size: 70px;'>正确! </span>","null","html-keyboard-response","48","153100","0.0-7.0-1.0-1.0-0.0-1.19","3","3","3","3","3","3","3","3","3","3","4","2","2","4","4","4","4","4","4","4","2","2","2","2","2","2","2","2","2","0","0","1","1","0","0","0","0","1","1","1","0","1","0","1","4","2","2","4","4","","2","4","4","4","2","718762010250051584","李","235","","","","","","","","","","","","","","","","","","","","","","","","","","","","","","feedback_test","","","","","","","","","","","",""
"388","","f","psychophysics","49","154489","0.0-7.0-1.0-1.0-0.0-0.20","3","3","3","3","3","3","3","3","3","3","4","2","2","4","4","4","4","4","4","4","2","2","2","2","2","2","2","2","2","0","0","1","1","0","0","0","0","1","1","1","0","1","0","1","4","2","2","4","4","","2","4","4","4","2","718762010250051584","李","235","","","","nonmatch","","","","","","","","","","","","","","key","f","15.625","683","380","f","true","nonmatch","img/diamond.png","方形","菱形","ALT1_2","prac_ALT1_2","","","","","","","","","","","",""
"null","<span style='color:GreenYellow; font-size: 70px;'>正确! </span>","null","html-keyboard-response","50","154990","0.0-7.0-1.0-1.0-0.0-1.20","3","3","3","3","3","3","3","3","3","3","4","2","2","4","4","4","4","4","4","4","2","2","2","2","2","2","2","2","2","0","0","1","1","0","0","0","0","1","1","1","0","1","0","1","4","2","2","4","4","","2","4","4","4","2","718762010250051584","李","235","","","","","","","","","","","","","","","","","","","","","","","","","","","","","","feedback_test","","","","","","","","","","","",""
"244","","j","psychophysics","51","156237","0.0-7.0-1.0-1.0-0.0-0.21","3","3","3","3","3","3","3","3","3","3","4","2","2","4","4","4","4","4","4","4","2","2","2","2","2","2","2","2","2","0","0","1","1","0","0","0","0","1","1","1","0","1","0","1","4","2","2","4","4","","2","4","4","4","2","718762010250051584","李","235","","","","match","","","","","","","","","","","","","","key","j","15.62531645569613","683","380","j","true","match","img/diamond.png","菱形","菱形","ALT1_2","prac_ALT1_2","","","","","","","","","","","",""
"null","<span style='color:GreenYellow; font-size: 70px;'>正确! </span>","null","html-keyboard-response","52","156740","0.0-7.0-1.0-1.0-0.0-1.21","3","3","3","3","3","3","3","3","3","3","4","2","2","4","4","4","4","4","4","4","2","2","2","2","2","2","2","2","2","0","0","1","1","0","0","0","0","1","1","1","0","1","0","1","4","2","2","4","4","","2","4","4","4","2","718762010250051584","李","235","","","","","","","","","","","","","","","","","","","","","","","","","","","","","","feedback_test","","","","","","","","","","","",""
"246","","f","psychophysics","53","157988","0.0-7.0-1.0-1.0-0.0-0.22","3","3","3","3","3","3","3","3","3","3","4","2","2","4","4","4","4","4","4","4","2","2","2","2","2","2","2","2","2","0","0","1","1","0","0","0","0","1","1","1","0","1","0","1","4","2","2","4","4","","2","4","4","4","2","718762010250051584","李","235","","","","nonmatch","","","","","","","","","","","","","","key","f","15.624050632911246","683","380","f","true","nonmatch","img/square.png","圆形","方形","ALT1_2","prac_ALT1_2","","","","","","","","","","","",""
"null","<span style='color:GreenYellow; font-size: 70px;'>正确! </span>","null","html-keyboard-response","54","158489","0.0-7.0-1.0-1.0-0.0-1.22","3","3","3","3","3","3","3","3","3","3","4","2","2","4","4","4","4","4","4","4","2","2","2","2","2","2","2","2","2","0","0","1","1","0","0","0","0","1","1","1","0","1","0","1","4","2","2","4","4","","2","4","4","4","2","718762010250051584","李","235","","","","","","","","","","","","","","","","","","","","","","","","","","","","","","feedback_test","","","","","","","","","","","",""
"326","","f","psychophysics","55","159817","0.0-7.0-1.0-1.0-0.0-0.23","3","3","3","3","3","3","3","3","3","3","4","2","2","4","4","4","4","4","4","4","2","2","2","2","2","2","2","2","2","0","0","1","1","0","0","0","0","1","1","1","0","1","0","1","4","2","2","4","4","","2","4","4","4","2","718762010250051584","李","235","","","","nonmatch","","","","","","","","","","","","","","key","f","15.625","683","380","j","false","match","img/circle.png","圆形","圆形","ALT1_2","prac_ALT1_2","","","","","","","","","","","",""
"null","<span style='color:red; font-size: 70px;'>错误! </span>","null","html-keyboard-response","56","160321","0.0-7.0-1.0-1.0-0.0-1.23","3","3","3","3","3","3","3","3","3","3","4","2","2","4","4","4","4","4","4","4","2","2","2","2","2","2","2","2","2","0","0","1","1","0","0","0","0","1","1","1","0","1","0","1","4","2","2","4","4","","2","4","4","4","2","718762010250051584","李","235","","","","","","","","","","","","","","","","","","","","","","","","","","","","","","feedback_test","","","","","","","","","","","",""
"357","","j","psychophysics","57","161681","0.0-7.0-1.0-1.0-0.0-0.24","3","3","3","3","3","3","3","3","3","3","4","2","2","4","4","4","4","4","4","4","2","2","2","2","2","2","2","2","2","0","0","1","1","0","0","0","0","1","1","1","0","1","0","1","4","2","2","4","4","","2","4","4","4","2","718762010250051584","李","235","","","","match","","","","","","","","","","","","","","key","j","15.625581395348702","683","380","j","true","match","img/diamond.png","菱形","菱形","ALT1_2","prac_ALT1_2","","","","","","","","","","","",""
"null","<span style='color:GreenYellow; font-size: 70px;'>正确! </span>","null","html-keyboard-response","58","162184","0.0-7.0-1.0-1.0-0.0-1.24","3","3","3","3","3","3","3","3","3","3","4","2","2","4","4","4","4","4","4","4","2","2","2","2","2","2","2","2","2","0","0","1","1","0","0","0","0","1","1","1","0","1","0","1","4","2","2","4","4","","2","4","4","4","2","718762010250051584","李","235","","","","","","","","","","","","","","","","","","","","","","","","","","","","","","feedback_test","","","","","","","","","","","",""
"375","","j","psychophysics","59","163561","0.0-7.0-1.0-1.0-0.0-0.25","3","3","3","3","3","3","3","3","3","3","4","2","2","4","4","4","4","4","4","4","2","2","2","2","2","2","2","2","2","0","0","1","1","0","0","0","0","1","1","1","0","1","0","1","4","2","2","4","4","","2","4","4","4","2","718762010250051584","李","235","","","","match","","","","","","","","","","","","","","key","j","15.625287356321772","683","380","j","true","match","img/square.png","方形","方形","ALT1_2","prac_ALT1_2","","","","","","","","","","","",""
"null","<span style='color:GreenYellow; font-size: 70px;'>正确! </span>","null","html-keyboard-response","60","164062","0.0-7.0-1.0-1.0-0.0-1.25","3","3","3","3","3","3","3","3","3","3","4","2","2","4","4","4","4","4","4","4","2","2","2","2","2","2","2","2","2","0","0","1","1","0","0","0","0","1","1","1","0","1","0","1","4","2","2","4","4","","2","4","4","4","2","718762010250051584","李","235","","","","","","","","","","","","","","","","","","","","","","","","","","","","","","feedback_test","","","","","","","","","","","",""
"87","","j","psychophysics","61","165153","0.0-7.0-1.0-1.0-0.0-0.26","3","3","3","3","3","3","3","3","3","3","4","2","2","4","4","4","4","4","4","4","2","2","2","2","2","2","2","2","2","0","0","1","1","0","0","0","0","1","1","1","0","1","0","1","4","2","2","4","4","","2","4","4","4","2","718762010250051584","李","235","","","","match","","","","","","","","","","","","","","key","j","15.625","683","380","f","false","nonmatch","img/circle.png","六边","圆形","ALT1_2","prac_ALT1_2","","","","","","","","","","","",""
"null","<span style='color:yellow; font-size: 70px;'>过快! </span>","null","html-keyboard-response","62","165654","0.0-7.0-1.0-1.0-0.0-1.26","3","3","3","3","3","3","3","3","3","3","4","2","2","4","4","4","4","4","4","4","2","2","2","2","2","2","2","2","2","0","0","1","1","0","0","0","0","1","1","1","0","1","0","1","4","2","2","4","4","","2","4","4","4","2","718762010250051584","李","235","","","","","","","","","","","","","","","","","","","","","","","","","","","","","","feedback_test","","","","","","","","","","","",""
"840","","f","psychophysics","63","167498","0.0-7.0-1.0-1.0-0.0-0.27","3","3","3","3","3","3","3","3","3","3","4","2","2","4","4","4","4","4","4","4","2","2","2","2","2","2","2","2","2","0","0","1","1","0","0","0","0","1","1","1","0","1","0","1","4","2","2","4","4","","2","4","4","4","2","718762010250051584","李","235","","","","nonmatch","","","","","","","","","","","","","","key","f","15.624137931034433","683","380","j","false","match","img/square.png","方形","方形","ALT1_2","prac_ALT1_2","","","","","","","","","","","",""
"null","<span style='color:red; font-size: 70px;'>错误! </span>","null","html-keyboard-response","64","168000","0.0-7.0-1.0-1.0-0.0-1.27","3","3","3","3","3","3","3","3","3","3","4","2","2","4","4","4","4","4","4","4","2","2","2","2","2","2","2","2","2","0","0","1","1","0","0","0","0","1","1","1","0","1","0","1","4","2","2","4","4","","2","4","4","4","2","718762010250051584","李","235","","","","","","","","","","","","","","","","","","","","","","","","","","","","","","feedback_test","","","","","","","","","","","",""
"704","","j","psychophysics","65","169708","0.0-7.0-1.0-1.0-0.0-0.28","3","3","3","3","3","3","3","3","3","3","4","2","2","4","4","4","4","4","4","4","2","2","2","2","2","2","2","2","2","0","0","1","1","0","0","0","0","1","1","1","0","1","0","1","4","2","2","4","4","","2","4","4","4","2","718762010250051584","李","235","","","","match","","","","","","","","","","","","","","key","j","15.625","683","380","f","false","nonmatch","img/square.png","菱形","方形","ALT1_2","prac_ALT1_2","","","","","","","","","","","",""
"null","<span style='color:red; font-size: 70px;'>错误! </span>","null","html-keyboard-response","66","170209","0.0-7.0-1.0-1.0-0.0-1.28","3","3","3","3","3","3","3","3","3","3","4","2","2","4","4","4","4","4","4","4","2","2","2","2","2","2","2","2","2","0","0","1","1","0","0","0","0","1","1","1","0","1","0","1","4","2","2","4","4","","2","4","4","4","2","718762010250051584","李","235","","","","","","","","","","","","","","","","","","","","","","","","","","","","","","feedback_test","","","","","","","","","","","",""
"318","","f","psychophysics","67","171530","0.0-7.0-1.0-1.0-0.0-0.29","3","3","3","3","3","3","3","3","3","3","4","2","2","4","4","4","4","4","4","4","2","2","2","2","2","2","2","2","2","0","0","1","1","0","0","0","0","1","1","1","0","1","0","1","4","2","2","4","4","","2","4","4","4","2","718762010250051584","李","235","","","","nonmatch","","","","","","","","","","","","","","key","f","15.625301204819207","683","380","f","true","nonmatch","img/diamond.png","六边","菱形","ALT1_2","prac_ALT1_2","","","","","","","","","","","",""
"null","<span style='color:GreenYellow; font-size: 70px;'>正确! </span>","null","html-keyboard-response","68","172033","0.0-7.0-1.0-1.0-0.0-1.29","3","3","3","3","3","3","3","3","3","3","4","2","2","4","4","4","4","4","4","4","2","2","2","2","2","2","2","2","2","0","0","1","1","0","0","0","0","1","1","1","0","1","0","1","4","2","2","4","4","","2","4","4","4","2","718762010250051584","李","235","","","","","","","","","","","","","","","","","","","","","","","","","","","","","","feedback_test","","","","","","","","","","","",""
"694","","j","psychophysics","69","173729","0.0-7.0-1.0-1.0-0.0-0.30","3","3","3","3","3","3","3","3","3","3","4","2","2","4","4","4","4","4","4","4","2","2","2","2","2","2","2","2","2","0","0","1","1","0","0","0","0","1","1","1","0","1","0","1","4","2","2","4","4","","2","4","4","4","2","718762010250051584","李","235","","","","match","","","","","","","","","","","","","","key","j","15.625233644859758","683","380","j","true","match","img/circle.png","圆形","圆形","ALT1_2","prac_ALT1_2","","","","","","","","","","","",""
"null","<span style='color:GreenYellow; font-size: 70px;'>正确! </span>","null","html-keyboard-response","70","174230","0.0-7.0-1.0-1.0-0.0-1.30","3","3","3","3","3","3","3","3","3","3","4","2","2","4","4","4","4","4","4","4","2","2","2","2","2","2","2","2","2","0","0","1","1","0","0","0","0","1","1","1","0","1","0","1","4","2","2","4","4","","2","4","4","4","2","718762010250051584","李","235","","","","","","","","","","","","","","","","","","","","","","","","","","","","","","feedback_test","","","","","","","","","","","",""
"354","","j","psychophysics","71","175586","0.0-7.0-1.0-1.0-0.0-0.31","3","3","3","3","3","3","3","3","3","3","4","2","2","4","4","4","4","4","4","4","2","2","2","2","2","2","2","2","2","0","0","1","1","0","0","0","0","1","1","1","0","1","0","1","4","2","2","4","4","","2","4","4","4","2","718762010250051584","李","235","","","","match","","","","","","","","","","","","","","key","j","15.625581395349041","683","380","j","true","match","img/hexagon.png","六边","六边","ALT1_2","prac_ALT1_2","","","","","","","","","","","",""
"null","<span style='color:GreenYellow; font-size: 70px;'>正确! </span>","null","html-keyboard-response","72","176087","0.0-7.0-1.0-1.0-0.0-1.31","3","3","3","3","3","3","3","3","3","3","4","2","2","4","4","4","4","4","4","4","2","2","2","2","2","2","2","2","2","0","0","1","1","0","0","0","0","1","1","1","0","1","0","1","4","2","2","4","4","","2","4","4","4","2","718762010250051584","李","235","","","","","","","","","","","","","","","","","","","","","","","","","","","","","","feedback_test","","","","","","","","","","","",""
"477","","f","psychophysics","73","177569","0.0-7.0-1.0-1.0-0.0-0.32","3","3","3","3","3","3","3","3","3","3","4","2","2","4","4","4","4","4","4","4","2","2","2","2","2","2","2","2","2","0","0","1","1","0","0","0","0","1","1","1","0","1","0","1","4","2","2","4","4","","2","4","4","4","2","718762010250051584","李","235","","","","nonmatch","","","","","","","","","","","","","","key","f","15.624468085106507","683","380","f","true","nonmatch","img/square.png","六边","方形","ALT1_2","prac_ALT1_2","","","","","","","","","","","",""
"null","<span style='color:GreenYellow; font-size: 70px;'>正确! </span>","null","html-keyboard-response","74","178072","0.0-7.0-1.0-1.0-0.0-1.32","3","3","3","3","3","3","3","3","3","3","4","2","2","4","4","4","4","4","4","4","2","2","2","2","2","2","2","2","2","0","0","1","1","0","0","0","0","1","1","1","0","1","0","1","4","2","2","4","4","","2","4","4","4","2","718762010250051584","李","235","","","","","","","","","","","","","","","","","","","","","","","","","","","","","","feedback_test","","","","","","","","","","","",""
"556","","f","psychophysics","75","179629","0.0-7.0-1.0-1.0-0.0-0.33","3","3","3","3","3","3","3","3","3","3","4","2","2","4","4","4","4","4","4","4","2","2","2","2","2","2","2","2","2","0","0","1","1","0","0","0","0","1","1","1","0","1","0","1","4","2","2","4","4","","2","4","4","4","2","718762010250051584","李","235","","","","nonmatch","","","","","","","","","","","","","","key","f","15.624242424242306","683","380","f","true","nonmatch","img/hexagon.png","菱形","六边","ALT1_2","prac_ALT1_2","","","","","","","","","","","",""
"null","<span style='color:GreenYellow; font-size: 70px;'>正确! </span>","null","html-keyboard-response","76","180132","0.0-7.0-1.0-1.0-0.0-1.33","3","3","3","3","3","3","3","3","3","3","4","2","2","4","4","4","4","4","4","4","2","2","2","2","2","2","2","2","2","0","0","1","1","0","0","0","0","1","1","1","0","1","0","1","4","2","2","4","4","","2","4","4","4","2","718762010250051584","李","235","","","","","","","","","","","","","","","","","","","","","","","","","","","","","","feedback_test","","","","","","","","","","","",""
"215","","j","psychophysics","77","181348","0.0-7.0-1.0-1.0-0.0-0.34","3","3","3","3","3","3","3","3","3","3","4","2","2","4","4","4","4","4","4","4","2","2","2","2","2","2","2","2","2","0","0","1","1","0","0","0","0","1","1","1","0","1","0","1","4","2","2","4","4","","2","4","4","4","2","718762010250051584","李","235","","","","match","","","","","","","","","","","","","","key","j","15.624675324675401","683","380","j","true","match","img/circle.png","圆形","圆形","ALT1_2","prac_ALT1_2","","","","","","","","","","","",""
"null","<span style='color:GreenYellow; font-size: 70px;'>正确! </span>","null","html-keyboard-response","78","181851","0.0-7.0-1.0-1.0-0.0-1.34","3","3","3","3","3","3","3","3","3","3","4","2","2","4","4","4","4","4","4","4","2","2","2","2","2","2","2","2","2","0","0","1","1","0","0","0","0","1","1","1","0","1","0","1","4","2","2","4","4","","2","4","4","4","2","718762010250051584","李","235","","","","","","","","","","","","","","","","","","","","","","","","","","","","","","feedback_test","","","","","","","","","","","",""
"445","","f","psychophysics","79","183297","0.0-7.0-1.0-1.0-0.0-0.35","3","3","3","3","3","3","3","3","3","3","4","2","2","4","4","4","4","4","4","4","2","2","2","2","2","2","2","2","2","0","0","1","1","0","0","0","0","1","1","1","0","1","0","1","4","2","2","4","4","","2","4","4","4","2","718762010250051584","李","235","","","","nonmatch","","","","","","","","","","","","","","key","f","15.62527472527498","683","380","f","true","nonmatch","img/diamond.png","方形","菱形","ALT1_2","prac_ALT1_2","","","","","","","","","","","",""
"null","<span style='color:GreenYellow; font-size: 70px;'>正确! </span>","null","html-keyboard-response","80","183799","0.0-7.0-1.0-1.0-0.0-1.35","3","3","3","3","3","3","3","3","3","3","4","2","2","4","4","4","4","4","4","4","2","2","2","2","2","2","2","2","2","0","0","1","1","0","0","0","0","1","1","1","0","1","0","1","4","2","2","4","4","","2","4","4","4","2","718762010250051584","李","235","","","","","","","","","","","","","","","","","","","","","","","","","","","","","","feedback_test","","","","","","","","","","","",""
"457","","f","psychophysics","81","185257","0.0-7.0-1.0-1.0-0.0-0.36","3","3","3","3","3","3","3","3","3","3","4","2","2","4","4","4","4","4","4","4","2","2","2","2","2","2","2","2","2","0","0","1","1","0","0","0","0","1","1","1","0","1","0","1","4","2","2","4","4","","2","4","4","4","2","718762010250051584","李","235","","","","nonmatch","","","","","","","","","","","","","","key","f","15.625","683","380","f","true","nonmatch","img/circle.png","方形","圆形","ALT1_2","prac_ALT1_2","","","","","","","","","","","",""
"null","<span style='color:GreenYellow; font-size: 70px;'>正确! </span>","null","html-keyboard-response","82","185759","0.0-7.0-1.0-1.0-0.0-1.36","3","3","3","3","3","3","3","3","3","3","4","2","2","4","4","4","4","4","4","4","2","2","2","2","2","2","2","2","2","0","0","1","1","0","0","0","0","1","1","1","0","1","0","1","4","2","2","4","4","","2","4","4","4","2","718762010250051584","李","235","","","","","","","","","","","","","","","","","","","","","","","","","","","","","","feedback_test","","","","","","","","","","","",""
"873","","f","psychophysics","83","187634","0.0-7.0-1.0-1.0-0.0-0.37","3","3","3","3","3","3","3","3","3","3","4","2","2","4","4","4","4","4","4","4","2","2","2","2","2","2","2","2","2","0","0","1","1","0","0","0","0","1","1","1","0","1","0","1","4","2","2","4","4","","2","4","4","4","2","718762010250051584","李","235","","","","nonmatch","","","","","","","","","","","","","","key","f","15.624369747899062","683","380","f","true","nonmatch","img/square.png","圆形","方形","ALT1_2","prac_ALT1_2","","","","","","","","","","","",""
"null","<span style='color:GreenYellow; font-size: 70px;'>正确! </span>","null","html-keyboard-response","84","188135","0.0-7.0-1.0-1.0-0.0-1.37","3","3","3","3","3","3","3","3","3","3","4","2","2","4","4","4","4","4","4","4","2","2","2","2","2","2","2","2","2","0","0","1","1","0","0","0","0","1","1","1","0","1","0","1","4","2","2","4","4","","2","4","4","4","2","718762010250051584","李","235","","","","","","","","","","","","","","","","","","","","","","","","","","","","","","feedback_test","","","","","","","","","","","",""
"478","","f","psychophysics","85","189614","0.0-7.0-1.0-1.0-0.0-0.38","3","3","3","3","3","3","3","3","3","3","4","2","2","4","4","4","4","4","4","4","2","2","2","2","2","2","2","2","2","0","0","1","1","0","0","0","0","1","1","1","0","1","0","1","4","2","2","4","4","","2","4","4","4","2","718762010250051584","李","235","","","","nonmatch","","","","","","","","","","","","","","key","f","15.625531914893493","683","380","j","false","match","img/hexagon.png","六边","六边","ALT1_2","prac_ALT1_2","","","","","","","","","","","",""
"null","<span style='color:red; font-size: 70px;'>错误! </span>","null","html-keyboard-response","86","190116","0.0-7.0-1.0-1.0-0.0-1.38","3","3","3","3","3","3","3","3","3","3","4","2","2","4","4","4","4","4","4","4","2","2","2","2","2","2","2","2","2","0","0","1","1","0","0","0","0","1","1","1","0","1","0","1","4","2","2","4","4","","2","4","4","4","2","718762010250051584","李","235","","","","","","","","","","","","","","","","","","","","","","","","","","","","","","feedback_test","","","","","","","","","","","",""
"466","","j","psychophysics","87","191585","0.0-7.0-1.0-1.0-0.0-0.39","3","3","3","3","3","3","3","3","3","3","4","2","2","4","4","4","4","4","4","4","2","2","2","2","2","2","2","2","2","0","0","1","1","0","0","0","0","1","1","1","0","1","0","1","4","2","2","4","4","","2","4","4","4","2","718762010250051584","李","235","","","","match","","","","","","","","","","","","","","key","j","15.624731182795761","683","380","f","false","nonmatch","img/hexagon.png","方形","六边","ALT1_2","prac_ALT1_2","","","","","","","","","","","",""
"null","<span style='color:red; font-size: 70px;'>错误! </span>","null","html-keyboard-response","88","192086","0.0-7.0-1.0-1.0-0.0-1.39","3","3","3","3","3","3","3","3","3","3","4","2","2","4","4","4","4","4","4","4","2","2","2","2","2","2","2","2","2","0","0","1","1","0","0","0","0","1","1","1","0","1","0","1","4","2","2","4","4","","2","4","4","4","2","718762010250051584","李","235","","","","","","","","","","","","","","","","","","","","","","","","","","","","","","feedback_test","","","","","","","","","","","",""
"667","","f","psychophysics","89","193754","0.0-7.0-1.0-1.0-0.0-0.40","3","3","3","3","3","3","3","3","3","3","4","2","2","4","4","4","4","4","4","4","2","2","2","2","2","2","2","2","2","0","0","1","1","0","0","0","0","1","1","1","0","1","0","1","4","2","2","4","4","","2","4","4","4","2","718762010250051584","李","235","","","","nonmatch","","","","","","","","","","","","","","key","f","15.624528301886903","683","380","j","false","match","img/hexagon.png","六边","六边","ALT1_2","prac_ALT1_2","","","","","","","","","","","",""
"null","<span style='color:red; font-size: 70px;'>错误! </span>","null","html-keyboard-response","90","194256","0.0-7.0-1.0-1.0-0.0-1.40","3","3","3","3","3","3","3","3","3","3","4","2","2","4","4","4","4","4","4","4","2","2","2","2","2","2","2","2","2","0","0","1","1","0","0","0","0","1","1","1","0","1","0","1","4","2","2","4","4","","2","4","4","4","2","718762010250051584","李","235","","","","","","","","","","","","","","","","","","","","","","","","","","","","","","feedback_test","","","","","","","","","","","",""
"519","","j","psychophysics","91","195777","0.0-7.0-1.0-1.0-0.0-0.41","3","3","3","3","3","3","3","3","3","3","4","2","2","4","4","4","4","4","4","4","2","2","2","2","2","2","2","2","2","0","0","1","1","0","0","0","0","1","1","1","0","1","0","1","4","2","2","4","4","","2","4","4","4","2","718762010250051584","李","235","","","","match","","","","","","","","","","","","","","key","j","15.626041666666728","683","380","j","true","match","img/square.png","方形","方形","ALT1_2","prac_ALT1_2","","","","","","","","","","","",""
"null","<span style='color:GreenYellow; font-size: 70px;'>正确! </span>","null","html-keyboard-response","92","196280","0.0-7.0-1.0-1.0-0.0-1.41","3","3","3","3","3","3","3","3","3","3","4","2","2","4","4","4","4","4","4","4","2","2","2","2","2","2","2","2","2","0","0","1","1","0","0","0","0","1","1","1","0","1","0","1","4","2","2","4","4","","2","4","4","4","2","718762010250051584","李","235","","","","","","","","","","","","","","","","","","","","","","","","","","","","","","feedback_test","","","","","","","","","","","",""
"572","","j","psychophysics","93","197857","0.0-7.0-1.0-1.0-0.0-0.42","3","3","3","3","3","3","3","3","3","3","4","2","2","4","4","4","4","4","4","4","2","2","2","2","2","2","2","2","2","0","0","1","1","0","0","0","0","1","1","1","0","1","0","1","4","2","2","4","4","","2","4","4","4","2","718762010250051584","李","235","","","","match","","","","","","","","","","","","","","key","j","15.625252525252467","683","380","j","true","match","img/diamond.png","菱形","菱形","ALT1_2","prac_ALT1_2","","","","","","","","","","","",""
"null","<span style='color:GreenYellow; font-size: 70px;'>正确! </span>","null","html-keyboard-response","94","198359","0.0-7.0-1.0-1.0-0.0-1.42","3","3","3","3","3","3","3","3","3","3","4","2","2","4","4","4","4","4","4","4","2","2","2","2","2","2","2","2","2","0","0","1","1","0","0","0","0","1","1","1","0","1","0","1","4","2","2","4","4","","2","4","4","4","2","718762010250051584","李","235","","","","","","","","","","","","","","","","","","","","","","","","","","","","","","feedback_test","","","","","","","","","","","",""
"365","","f","psychophysics","95","199729","0.0-7.0-1.0-1.0-0.0-0.43","3","3","3","3","3","3","3","3","3","3","4","2","2","4","4","4","4","4","4","4","2","2","2","2","2","2","2","2","2","0","0","1","1","0","0","0","0","1","1","1","0","1","0","1","4","2","2","4","4","","2","4","4","4","2","718762010250051584","李","235","","","","nonmatch","","","","","","","","","","","","","","key","f","15.624418604651298","683","380","f","true","nonmatch","img/circle.png","菱形","圆形","ALT1_2","prac_ALT1_2","","","","","","","","","","","",""
"null","<span style='color:GreenYellow; font-size: 70px;'>正确! </span>","null","html-keyboard-response","96","200230","0.0-7.0-1.0-1.0-0.0-1.43","3","3","3","3","3","3","3","3","3","3","4","2","2","4","4","4","4","4","4","4","2","2","2","2","2","2","2","2","2","0","0","1","1","0","0","0","0","1","1","1","0","1","0","1","4","2","2","4","4","","2","4","4","4","2","718762010250051584","李","235","","","","","","","","","","","","","","","","","","","","","","","","","","","","","","feedback_test","","","","","","","","","","","",""
"482","","f","psychophysics","97","201713","0.0-7.0-1.0-1.0-0.0-0.44","3","3","3","3","3","3","3","3","3","3","4","2","2","4","4","4","4","4","4","4","2","2","2","2","2","2","2","2","2","0","0","1","1","0","0","0","0","1","1","1","0","1","0","1","4","2","2","4","4","","2","4","4","4","2","718762010250051584","李","235","","","","nonmatch","","","","","","","","","","","","","","key","f","15.625531914893802","683","380","j","false","match","img/circle.png","圆形","圆形","ALT1_2","prac_ALT1_2","","","","","","","","","","","",""
"null","<span style='color:red; font-size: 70px;'>错误! </span>","null","html-keyboard-response","98","202215","0.0-7.0-1.0-1.0-0.0-1.44","3","3","3","3","3","3","3","3","3","3","4","2","2","4","4","4","4","4","4","4","2","2","2","2","2","2","2","2","2","0","0","1","1","0","0","0","0","1","1","1","0","1","0","1","4","2","2","4","4","","2","4","4","4","2","718762010250051584","李","235","","","","","","","","","","","","","","","","","","","","","","","","","","","","","","feedback_test","","","","","","","","","","","",""
"840","","j","psychophysics","99","204057","0.0-7.0-1.0-1.0-0.0-0.45","3","3","3","3","3","3","3","3","3","3","4","2","2","4","4","4","4","4","4","4","2","2","2","2","2","2","2","2","2","0","0","1","1","0","0","0","0","1","1","1","0","1","0","1","4","2","2","4","4","","2","4","4","4","2","718762010250051584","李","235","","","","match","","","","","","","","","","","","","","key","j","15.624786324786374","683","380","f","false","nonmatch","img/diamond.png","圆形","菱形","ALT1_2","prac_ALT1_2","","","","","","","","","","","",""
"null","<span style='color:red; font-size: 70px;'>错误! </span>","null","html-keyboard-response","100","204561","0.0-7.0-1.0-1.0-0.0-1.45","3","3","3","3","3","3","3","3","3","3","4","2","2","4","4","4","4","4","4","4","2","2","2","2","2","2","2","2","2","0","0","1","1","0","0","0","0","1","1","1","0","1","0","1","4","2","2","4","4","","2","4","4","4","2","718762010250051584","李","235","","","","","","","","","","","","","","","","","","","","","","","","","","","","","","feedback_test","","","","","","","","","","","",""
"684","","f","psychophysics","101","206249","0.0-7.0-1.0-1.0-0.0-0.46","3","3","3","3","3","3","3","3","3","3","4","2","2","4","4","4","4","4","4","4","2","2","2","2","2","2","2","2","2","0","0","1","1","0","0","0","0","1","1","1","0","1","0","1","4","2","2","4","4","","2","4","4","4","2","718762010250051584","李","235","","","","nonmatch","","","","","","","","","","","","","","key","f","15.625471698113097","683","380","j","false","match","img/diamond.png","菱形","菱形","ALT1_2","prac_ALT1_2","","","","","","","","","","","",""
"null","<span style='color:red; font-size: 70px;'>错误! </span>","null","html-keyboard-response","102","206752","0.0-7.0-1.0-1.0-0.0-1.46","3","3","3","3","3","3","3","3","3","3","4","2","2","4","4","4","4","4","4","4","2","2","2","2","2","2","2","2","2","0","0","1","1","0","0","0","0","1","1","1","0","1","0","1","4","2","2","4","4","","2","4","4","4","2","718762010250051584","李","235","","","","","","","","","","","","","","","","","","","","","","","","","","","","","","feedback_test","","","","","","","","","","","",""
"743","","j","psychophysics","103","208498","0.0-7.0-1.0-1.0-0.0-0.47","3","3","3","3","3","3","3","3","3","3","4","2","2","4","4","4","4","4","4","4","2","2","2","2","2","2","2","2","2","0","0","1","1","0","0","0","0","1","1","1","0","1","0","1","4","2","2","4","4","","2","4","4","4","2","718762010250051584","李","235","","","","match","","","","","","","","","","","","","","key","j","15.62545454545444","683","380","f","false","nonmatch","img/hexagon.png","圆形","六边","ALT1_2","prac_ALT1_2","","","","","","","","","","","",""
"null","<span style='color:red; font-size: 70px;'>错误! </span>","null","html-keyboard-response","104","209000","0.0-7.0-1.0-1.0-0.0-1.47","3","3","3","3","3","3","3","3","3","3","4","2","2","4","4","4","4","4","4","4","2","2","2","2","2","2","2","2","2","0","0","1","1","0","0","0","0","1","1","1","0","1","0","1","4","2","2","4","4","","2","4","4","4","2","718762010250051584","李","235","","","","","","","","","","","","","","","","","","","","","","","","","","","","","","feedback_test","","","","","","","","","","","",""
"11343","<style>.context{color:white; font-size: 35px; line-height:40px}</style>                          <div><p class='context'>您正确回答了67% 的试次。</p><p class='context'>您的平均反应时为528毫秒。</p><p class='context'>恭喜您完成练习。按空格键进入正式实验。</p><p class='footer' style='font-size: 35px; line-height:40px;'>请在进入正式实验实验之前将您的<span style='color: lightgreen;'>食指</span>放在电脑键盘的相应键位上进行按键。</p>"," ","html-keyboard-response","105","220346","0.0-7.0-1.0-2.0","3","3","3","3","3","3","3","3","3","3","4","2","2","4","4","4","4","4","4","4","2","2","2","2","2","2","2","2","2","0","0","1","1","0","0","0","0","1","1","1","0","1","0","1","4","2","2","4","4","","2","4","4","4","2","718762010250051584","李","235","","","","","","","","","","","","","","","","","","","","","","","","","","","","","","","","","","","","","","","","","",""
"1642","
  <p style='color: white; font-size: 22px'>请您将手指放在按键上，准备进入正式的匹配任务。</p>
  <p> <div style = ""color: green""><按空格键进入下一阶段的匹配任务></div></p>
  "," ","html-keyboard-response","106","221993","0.0-7.0-1.0-3.0","3","3","3","3","3","3","3","3","3","3","4","2","2","4","4","4","4","4","4","4","2","2","2","2","2","2","2","2","2","0","0","1","1","0","0","0","0","1","1","1","0","1","0","1","4","2","2","4","4","","2","4","4","4","2","718762010250051584","李","235","","","","","","","","","","","","","","","","","","","","","","","","","","","","","","","","","","","","","","","","","",""
"666","","j","psychophysics","107","223660","0.0-7.0-1.0-4.0-0.0-0.0","3","3","3","3","3","3","3","3","3","3","4","2","2","4","4","4","4","4","4","4","2","2","2","2","2","2","2","2","2","0","0","1","1","0","0","0","0","1","1","1","0","1","0","1","4","2","2","4","4","","2","4","4","4","2","718762010250051584","李","235","","","","match","","","","","","","","","","","","","","key","j","15.624528301886903","683","380","j","true","match","img/circle.png","圆形","圆形","ALT1","formal_ALT1_2","","","","","","","","","","","",""
"null","<span style='color:GreenYellow; font-size: 70px;'>正确! </span>","null","html-keyboard-response","108","224162","0.0-7.0-1.0-4.0-0.0-1.0","3","3","3","3","3","3","3","3","3","3","4","2","2","4","4","4","4","4","4","4","2","2","2","2","2","2","2","2","2","0","0","1","1","0","0","0","0","1","1","1","0","1","0","1","4","2","2","4","4","","2","4","4","4","2","718762010250051584","李","235","","","","","","","","","","","","","","","","","","","","","","","","","","","","","","feedback_test","","","","","","","","","","","",""
"781","","j","psychophysics","109","225945","0.0-7.0-1.0-4.0-0.0-0.1","3","3","3","3","3","3","3","3","3","3","4","2","2","4","4","4","4","4","4","4","2","2","2","2","2","2","2","2","2","0","0","1","1","0","0","0","0","1","1","1","0","1","0","1","4","2","2","4","4","","2","4","4","4","2","718762010250051584","李","235","","","","match","","","","","","","","","","","","","","key","j","15.625663716814262","683","380","j","true","match","img/diamond.png","菱形","菱形","ALT1","formal_ALT1_2","","","","","","","","","","","",""
"null","<span style='color:GreenYellow; font-size: 70px;'>正确! </span>","null","html-keyboard-response","110","226447","0.0-7.0-1.0-4.0-0.0-1.1","3","3","3","3","3","3","3","3","3","3","4","2","2","4","4","4","4","4","4","4","2","2","2","2","2","2","2","2","2","0","0","1","1","0","0","0","0","1","1","1","0","1","0","1","4","2","2","4","4","","2","4","4","4","2","718762010250051584","李","235","","","","","","","","","","","","","","","","","","","","","","","","","","","","","","feedback_test","","","","","","","","","","","",""
"994","","j","psychophysics","111","228442","0.0-7.0-1.0-4.0-0.0-0.2","3","3","3","3","3","3","3","3","3","3","4","2","2","4","4","4","4","4","4","4","2","2","2","2","2","2","2","2","2","0","0","1","1","0","0","0","0","1","1","1","0","1","0","1","4","2","2","4","4","","2","4","4","4","2","718762010250051584","李","235","","","","match","","","","","","","","","","","","","","key","j","15.625196850393655","683","380","j","true","match","img/square.png","方形","方形","ALT1","formal_ALT1_2","","","","","","","","","","","",""
"null","<span style='color:GreenYellow; font-size: 70px;'>正确! </span>","null","html-keyboard-response","112","228945","0.0-7.0-1.0-4.0-0.0-1.2","3","3","3","3","3","3","3","3","3","3","4","2","2","4","4","4","4","4","4","4","2","2","2","2","2","2","2","2","2","0","0","1","1","0","0","0","0","1","1","1","0","1","0","1","4","2","2","4","4","","2","4","4","4","2","718762010250051584","李","235","","","","","","","","","","","","","","","","","","","","","","","","","","","","","","feedback_test","","","","","","","","","","","",""
"855","","f","psychophysics","113","230802","0.0-7.0-1.0-4.0-0.0-0.3","3","3","3","3","3","3","3","3","3","3","4","2","2","4","4","4","4","4","4","4","2","2","2","2","2","2","2","2","2","0","0","1","1","0","0","0","0","1","1","1","0","1","0","1","4","2","2","4","4","","2","4","4","4","2","718762010250051584","李","235","","","","nonmatch","","","","","","","","","","","","","","key","f","15.62542372881346","683","380","f","true","nonmatch","img/square.png","六边","方形","ALT1","formal_ALT1_2","","","","","","","","","","","",""
"null","<span style='color:GreenYellow; font-size: 70px;'>正确! </span>","null","html-keyboard-response","114","231304","0.0-7.0-1.0-4.0-0.0-1.3","3","3","3","3","3","3","3","3","3","3","4","2","2","4","4","4","4","4","4","4","2","2","2","2","2","2","2","2","2","0","0","1","1","0","0","0","0","1","1","1","0","1","0","1","4","2","2","4","4","","2","4","4","4","2","718762010250051584","李","235","","","","","","","","","","","","","","","","","","","","","","","","","","","","","","feedback_test","","","","","","","","","","","",""
"1040","","f","psychophysics","115","233347","0.0-7.0-1.0-4.0-0.0-0.4","3","3","3","3","3","3","3","3","3","3","4","2","2","4","4","4","4","4","4","4","2","2","2","2","2","2","2","2","2","0","0","1","1","0","0","0","0","1","1","1","0","1","0","1","4","2","2","4","4","","2","4","4","4","2","718762010250051584","李","235","","","","nonmatch","","","","","","","","","","","","","","key","f","15.625384615384526","683","380","f","true","nonmatch","img/square.png","菱形","方形","ALT1","formal_ALT1_2","","","","","","","","","","","",""
"null","<span style='color:GreenYellow; font-size: 70px;'>正确! </span>","null","html-keyboard-response","116","233848","0.0-7.0-1.0-4.0-0.0-1.4","3","3","3","3","3","3","3","3","3","3","4","2","2","4","4","4","4","4","4","4","2","2","2","2","2","2","2","2","2","0","0","1","1","0","0","0","0","1","1","1","0","1","0","1","4","2","2","4","4","","2","4","4","4","2","718762010250051584","李","235","","","","","","","","","","","","","","","","","","","","","","","","","","","","","","feedback_test","","","","","","","","","","","",""
"763","","j","psychophysics","117","235613","0.0-7.0-1.0-4.0-0.0-0.5","3","3","3","3","3","3","3","3","3","3","4","2","2","4","4","4","4","4","4","4","2","2","2","2","2","2","2","2","2","0","0","1","1","0","0","0","0","1","1","1","0","1","0","1","4","2","2","4","4","","2","4","4","4","2","718762010250051584","李","235","","","","match","","","","","","","","","","","","","","key","j","15.625","683","380","f","false","nonmatch","img/hexagon.png","方形","六边","ALT1","formal_ALT1_2","","","","","","","","","","","",""
"null","<span style='color:red; font-size: 70px;'>错误! </span>","null","html-keyboard-response","118","236114","0.0-7.0-1.0-4.0-0.0-1.5","3","3","3","3","3","3","3","3","3","3","4","2","2","4","4","4","4","4","4","4","2","2","2","2","2","2","2","2","2","0","0","1","1","0","0","0","0","1","1","1","0","1","0","1","4","2","2","4","4","","2","4","4","4","2","718762010250051584","李","235","","","","","","","","","","","","","","","","","","","","","","","","","","","","","","feedback_test","","","","","","","","","","","",""
"702","","f","psychophysics","119","237817","0.0-7.0-1.0-4.0-0.0-0.6","3","3","3","3","3","3","3","3","3","3","4","2","2","4","4","4","4","4","4","4","2","2","2","2","2","2","2","2","2","0","0","1","1","0","0","0","0","1","1","1","0","1","0","1","4","2","2","4","4","","2","4","4","4","2","718762010250051584","李","235","","","","nonmatch","","","","","","","","","","","","","","key","f","15.625","683","380","f","true","nonmatch","img/diamond.png","六边","菱形","ALT1","formal_ALT1_2","","","","","","","","","","","",""
"null","<span style='color:GreenYellow; font-size: 70px;'>正确! </span>","null","html-keyboard-response","120","238318","0.0-7.0-1.0-4.0-0.0-1.6","3","3","3","3","3","3","3","3","3","3","4","2","2","4","4","4","4","4","4","4","2","2","2","2","2","2","2","2","2","0","0","1","1","0","0","0","0","1","1","1","0","1","0","1","4","2","2","4","4","","2","4","4","4","2","718762010250051584","李","235","","","","","","","","","","","","","","","","","","","","","","","","","","","","","","feedback_test","","","","","","","","","","","",""
"669","","f","psychophysics","121","239989","0.0-7.0-1.0-4.0-0.0-0.7","3","3","3","3","3","3","3","3","3","3","4","2","2","4","4","4","4","4","4","4","2","2","2","2","2","2","2","2","2","0","0","1","1","0","0","0","0","1","1","1","0","1","0","1","4","2","2","4","4","","2","4","4","4","2","718762010250051584","李","235","","","","nonmatch","","","","","","","","","","","","","","key","f","15.624528301886627","683","380","f","true","nonmatch","img/circle.png","六边","圆形","ALT1","formal_ALT1_2","","","","","","","","","","","",""
"null","<span style='color:GreenYellow; font-size: 70px;'>正确! </span>","null","html-keyboard-response","122","240492","0.0-7.0-1.0-4.0-0.0-1.7","3","3","3","3","3","3","3","3","3","3","4","2","2","4","4","4","4","4","4","4","2","2","2","2","2","2","2","2","2","0","0","1","1","0","0","0","0","1","1","1","0","1","0","1","4","2","2","4","4","","2","4","4","4","2","718762010250051584","李","235","","","","","","","","","","","","","","","","","","","","","","","","","","","","","","feedback_test","","","","","","","","","","","",""
"645","","j","psychophysics","123","242138","0.0-7.0-1.0-4.0-0.0-0.8","3","3","3","3","3","3","3","3","3","3","4","2","2","4","4","4","4","4","4","4","2","2","2","2","2","2","2","2","2","0","0","1","1","0","0","0","0","1","1","1","0","1","0","1","4","2","2","4","4","","2","4","4","4","2","718762010250051584","李","235","","","","match","","","","","","","","","","","","","","key","j","15.625","683","380","j","true","match","img/square.png","方形","方形","ALT1","formal_ALT1_2","","","","","","","","","","","",""
"null","<span style='color:GreenYellow; font-size: 70px;'>正确! </span>","null","html-keyboard-response","124","242639","0.0-7.0-1.0-4.0-0.0-1.8","3","3","3","3","3","3","3","3","3","3","4","2","2","4","4","4","4","4","4","4","2","2","2","2","2","2","2","2","2","0","0","1","1","0","0","0","0","1","1","1","0","1","0","1","4","2","2","4","4","","2","4","4","4","2","718762010250051584","李","235","","","","","","","","","","","","","","","","","","","","","","","","","","","","","","feedback_test","","","","","","","","","","","",""
"710","","f","psychophysics","125","244353","0.0-7.0-1.0-4.0-0.0-0.9","3","3","3","3","3","3","3","3","3","3","4","2","2","4","4","4","4","4","4","4","2","2","2","2","2","2","2","2","2","0","0","1","1","0","0","0","0","1","1","1","0","1","0","1","4","2","2","4","4","","2","4","4","4","2","718762010250051584","李","235","","","","nonmatch","","","","","","","","","","","","","","key","f","15.62592592592571","683","380","j","false","match","img/hexagon.png","六边","六边","ALT1","formal_ALT1_2","","","","","","","","","","","",""
"null","<span style='color:red; font-size: 70px;'>错误! </span>","null","html-keyboard-response","126","244855","0.0-7.0-1.0-4.0-0.0-1.9","3","3","3","3","3","3","3","3","3","3","4","2","2","4","4","4","4","4","4","4","2","2","2","2","2","2","2","2","2","0","0","1","1","0","0","0","0","1","1","1","0","1","0","1","4","2","2","4","4","","2","4","4","4","2","718762010250051584","李","235","","","","","","","","","","","","","","","","","","","","","","","","","","","","","","feedback_test","","","","","","","","","","","",""
"713","","j","psychophysics","127","246569","0.0-7.0-1.0-4.0-0.0-0.10","3","3","3","3","3","3","3","3","3","3","4","2","2","4","4","4","4","4","4","4","2","2","2","2","2","2","2","2","2","0","0","1","1","0","0","0","0","1","1","1","0","1","0","1","4","2","2","4","4","","2","4","4","4","2","718762010250051584","李","235","","","","match","","","","","","","","","","","","","","key","j","15.624770642201888","683","380","j","true","match","img/circle.png","圆形","圆形","ALT1","formal_ALT1_2","","","","","","","","","","","",""
"null","<span style='color:GreenYellow; font-size: 70px;'>正确! </span>","null","html-keyboard-response","128","247072","0.0-7.0-1.0-4.0-0.0-1.10","3","3","3","3","3","3","3","3","3","3","4","2","2","4","4","4","4","4","4","4","2","2","2","2","2","2","2","2","2","0","0","1","1","0","0","0","0","1","1","1","0","1","0","1","4","2","2","4","4","","2","4","4","4","2","718762010250051584","李","235","","","","","","","","","","","","","","","","","","","","","","","","","","","","","","feedback_test","","","","","","","","","","","",""
"703","","f","psychophysics","129","248777","0.0-7.0-1.0-4.0-0.0-0.11","3","3","3","3","3","3","3","3","3","3","4","2","2","4","4","4","4","4","4","4","2","2","2","2","2","2","2","2","2","0","0","1","1","0","0","0","0","1","1","1","0","1","0","1","4","2","2","4","4","","2","4","4","4","2","718762010250051584","李","235","","","","nonmatch","","","","","","","","","","","","","","key","f","15.625","683","380","f","true","nonmatch","img/circle.png","方形","圆形","ALT1","formal_ALT1_2","","","","","","","","","","","",""
"null","<span style='color:GreenYellow; font-size: 70px;'>正确! </span>","null","html-keyboard-response","130","249279","0.0-7.0-1.0-4.0-0.0-1.11","3","3","3","3","3","3","3","3","3","3","4","2","2","4","4","4","4","4","4","4","2","2","2","2","2","2","2","2","2","0","0","1","1","0","0","0","0","1","1","1","0","1","0","1","4","2","2","4","4","","2","4","4","4","2","718762010250051584","李","235","","","","","","","","","","","","","","","","","","","","","","","","","","","","","","feedback_test","","","","","","","","","","","",""
"740","","j","psychophysics","131","251020","0.0-7.0-1.0-4.0-0.0-0.12","3","3","3","3","3","3","3","3","3","3","4","2","2","4","4","4","4","4","4","4","2","2","2","2","2","2","2","2","2","0","0","1","1","0","0","0","0","1","1","1","0","1","0","1","4","2","2","4","4","","2","4","4","4","2","718762010250051584","李","235","","","","match","","","","","","","","","","","","","","key","j","15.626363636363848","683","380","j","true","match","img/diamond.png","菱形","菱形","ALT1","formal_ALT1_2","","","","","","","","","","","",""
"null","<span style='color:GreenYellow; font-size: 70px;'>正确! </span>","null","html-keyboard-response","132","251522","0.0-7.0-1.0-4.0-0.0-1.12","3","3","3","3","3","3","3","3","3","3","4","2","2","4","4","4","4","4","4","4","2","2","2","2","2","2","2","2","2","0","0","1","1","0","0","0","0","1","1","1","0","1","0","1","4","2","2","4","4","","2","4","4","4","2","718762010250051584","李","235","","","","","","","","","","","","","","","","","","","","","","","","","","","","","","feedback_test","","","","","","","","","","","",""
"830","","f","psychophysics","133","253353","0.0-7.0-1.0-4.0-0.0-0.13","3","3","3","3","3","3","3","3","3","3","4","2","2","4","4","4","4","4","4","4","2","2","2","2","2","2","2","2","2","0","0","1","1","0","0","0","0","1","1","1","0","1","0","1","4","2","2","4","4","","2","4","4","4","2","718762010250051584","李","235","","","","nonmatch","","","","","","","","","","","","","","key","f","15.624137931034683","683","380","f","true","nonmatch","img/hexagon.png","菱形","六边","ALT1","formal_ALT1_2","","","","","","","","","","","",""
"null","<span style='color:GreenYellow; font-size: 70px;'>正确! </span>","null","html-keyboard-response","134","253854","0.0-7.0-1.0-4.0-0.0-1.13","3","3","3","3","3","3","3","3","3","3","4","2","2","4","4","4","4","4","4","4","2","2","2","2","2","2","2","2","2","0","0","1","1","0","0","0","0","1","1","1","0","1","0","1","4","2","2","4","4","","2","4","4","4","2","718762010250051584","李","235","","","","","","","","","","","","","","","","","","","","","","","","","","","","","","feedback_test","","","","","","","","","","","",""
"835","","f","psychophysics","135","255691","0.0-7.0-1.0-4.0-0.0-0.14","3","3","3","3","3","3","3","3","3","3","4","2","2","4","4","4","4","4","4","4","2","2","2","2","2","2","2","2","2","0","0","1","1","0","0","0","0","1","1","1","0","1","0","1","4","2","2","4","4","","2","4","4","4","2","718762010250051584","李","235","","","","nonmatch","","","","","","","","","","","","","","key","f","15.624786324786374","683","380","f","true","nonmatch","img/diamond.png","圆形","菱形","ALT1","formal_ALT1_2","","","","","","","","","","","",""
"null","<span style='color:GreenYellow; font-size: 70px;'>正确! </span>","null","html-keyboard-response","136","256206","0.0-7.0-1.0-4.0-0.0-1.14","3","3","3","3","3","3","3","3","3","3","4","2","2","4","4","4","4","4","4","4","2","2","2","2","2","2","2","2","2","0","0","1","1","0","0","0","0","1","1","1","0","1","0","1","4","2","2","4","4","","2","4","4","4","2","718762010250051584","李","235","","","","","","","","","","","","","","","","","","","","","","","","","","","","","","feedback_test","","","","","","","","","","","",""
"768","","j","psychophysics","137","257976","0.0-7.0-1.0-4.0-0.0-0.15","3","3","3","3","3","3","3","3","3","3","4","2","2","4","4","4","4","4","4","4","2","2","2","2","2","2","2","2","2","0","0","1","1","0","0","0","0","1","1","1","0","1","0","1","4","2","2","4","4","","2","4","4","4","2","718762010250051584","李","235","","","","match","","","","","","","","","","","","","","key","j","15.624107142857351","683","380","j","true","match","img/square.png","方形","方形","ALT1","formal_ALT1_2","","","","","","","","","","","",""
"null","<span style='color:GreenYellow; font-size: 70px;'>正确! </span>","null","html-keyboard-response","138","258478","0.0-7.0-1.0-4.0-0.0-1.15","3","3","3","3","3","3","3","3","3","3","4","2","2","4","4","4","4","4","4","4","2","2","2","2","2","2","2","2","2","0","0","1","1","0","0","0","0","1","1","1","0","1","0","1","4","2","2","4","4","","2","4","4","4","2","718762010250051584","李","235","","","","","","","","","","","","","","","","","","","","","","","","","","","","","","feedback_test","","","","","","","","","","","",""
"698","","f","psychophysics","139","260178","0.0-7.0-1.0-4.0-0.0-0.16","3","3","3","3","3","3","3","3","3","3","4","2","2","4","4","4","4","4","4","4","2","2","2","2","2","2","2","2","2","0","0","1","1","0","0","0","0","1","1","1","0","1","0","1","4","2","2","4","4","","2","4","4","4","2","718762010250051584","李","235","","","","nonmatch","","","","","","","","","","","","","","key","f","15.62407407407402","683","380","f","true","nonmatch","img/hexagon.png","圆形","六边","ALT1","formal_ALT1_2","","","","","","","","","","","",""
"null","<span style='color:GreenYellow; font-size: 70px;'>正确! </span>","null","html-keyboard-response","140","260679","0.0-7.0-1.0-4.0-0.0-1.16","3","3","3","3","3","3","3","3","3","3","4","2","2","4","4","4","4","4","4","4","2","2","2","2","2","2","2","2","2","0","0","1","1","0","0","0","0","1","1","1","0","1","0","1","4","2","2","4","4","","2","4","4","4","2","718762010250051584","李","235","","","","","","","","","","","","","","","","","","","","","","","","","","","","","","feedback_test","","","","","","","","","","","",""
"900","","f","psychophysics","141","262581","0.0-7.0-1.0-4.0-0.0-0.17","3","3","3","3","3","3","3","3","3","3","4","2","2","4","4","4","4","4","4","4","2","2","2","2","2","2","2","2","2","0","0","1","1","0","0","0","0","1","1","1","0","1","0","1","4","2","2","4","4","","2","4","4","4","2","718762010250051584","李","235","","","","nonmatch","","","","","","","","","","","","","","key","f","15.625619834710358","683","380","f","true","nonmatch","img/square.png","圆形","方形","ALT1","formal_ALT1_2","","","","","","","","","","","",""
"null","<span style='color:GreenYellow; font-size: 70px;'>正确! </span>","null","html-keyboard-response","142","263083","0.0-7.0-1.0-4.0-0.0-1.17","3","3","3","3","3","3","3","3","3","3","4","2","2","4","4","4","4","4","4","4","2","2","2","2","2","2","2","2","2","0","0","1","1","0","0","0","0","1","1","1","0","1","0","1","4","2","2","4","4","","2","4","4","4","2","718762010250051584","李","235","","","","","","","","","","","","","","","","","","","","","","","","","","","","","","feedback_test","","","","","","","","","","","",""
"788","","j","psychophysics","143","264873","0.0-7.0-1.0-4.0-0.0-0.18","3","3","3","3","3","3","3","3","3","3","4","2","2","4","4","4","4","4","4","4","2","2","2","2","2","2","2","2","2","0","0","1","1","0","0","0","0","1","1","1","0","1","0","1","4","2","2","4","4","","2","4","4","4","2","718762010250051584","李","235","","","","match","","","","","","","","","","","","","","key","j","15.624778761062256","683","380","j","true","match","img/circle.png","圆形","圆形","ALT1","formal_ALT1_2","","","","","","","","","","","",""
"null","<span style='color:GreenYellow; font-size: 70px;'>正确! </span>","null","html-keyboard-response","144","265374","0.0-7.0-1.0-4.0-0.0-1.18","3","3","3","3","3","3","3","3","3","3","4","2","2","4","4","4","4","4","4","4","2","2","2","2","2","2","2","2","2","0","0","1","1","0","0","0","0","1","1","1","0","1","0","1","4","2","2","4","4","","2","4","4","4","2","718762010250051584","李","235","","","","","","","","","","","","","","","","","","","","","","","","","","","","","","feedback_test","","","","","","","","","","","",""
"728","","f","psychophysics","145","267105","0.0-7.0-1.0-4.0-0.0-0.19","3","3","3","3","3","3","3","3","3","3","4","2","2","4","4","4","4","4","4","4","2","2","2","2","2","2","2","2","2","0","0","1","1","0","0","0","0","1","1","1","0","1","0","1","4","2","2","4","4","","2","4","4","4","2","718762010250051584","李","235","","","","nonmatch","","","","","","","","","","","","","","key","f","15.624770642202154","683","380","f","true","nonmatch","img/circle.png","菱形","圆形","ALT1","formal_ALT1_2","","","","","","","","","","","",""
"null","<span style='color:GreenYellow; font-size: 70px;'>正确! </span>","null","html-keyboard-response","146","267606","0.0-7.0-1.0-4.0-0.0-1.19","3","3","3","3","3","3","3","3","3","3","4","2","2","4","4","4","4","4","4","4","2","2","2","2","2","2","2","2","2","0","0","1","1","0","0","0","0","1","1","1","0","1","0","1","4","2","2","4","4","","2","4","4","4","2","718762010250051584","李","235","","","","","","","","","","","","","","","","","","","","","","","","","","","","","","feedback_test","","","","","","","","","","","",""
"772","","j","psychophysics","147","269379","0.0-7.0-1.0-4.0-0.0-0.20","3","3","3","3","3","3","3","3","3","3","4","2","2","4","4","4","4","4","4","4","2","2","2","2","2","2","2","2","2","0","0","1","1","0","0","0","0","1","1","1","0","1","0","1","4","2","2","4","4","","2","4","4","4","2","718762010250051584","李","235","","","","match","","","","","","","","","","","","","","key","j","15.62477876106174","683","380","j","true","match","img/diamond.png","菱形","菱形","ALT1","formal_ALT1_2","","","","","","","","","","","",""
"null","<span style='color:GreenYellow; font-size: 70px;'>正确! </span>","null","html-keyboard-response","148","269880","0.0-7.0-1.0-4.0-0.0-1.20","3","3","3","3","3","3","3","3","3","3","4","2","2","4","4","4","4","4","4","4","2","2","2","2","2","2","2","2","2","0","0","1","1","0","0","0","0","1","1","1","0","1","0","1","4","2","2","4","4","","2","4","4","4","2","718762010250051584","李","235","","","","","","","","","","","","","","","","","","","","","","","","","","","","","","feedback_test","","","","","","","","","","","",""
"731","","f","psychophysics","149","271613","0.0-7.0-1.0-4.0-0.0-0.21","3","3","3","3","3","3","3","3","3","3","4","2","2","4","4","4","4","4","4","4","2","2","2","2","2","2","2","2","2","0","0","1","1","0","0","0","0","1","1","1","0","1","0","1","4","2","2","4","4","","2","4","4","4","2","718762010250051584","李","235","","","","nonmatch","","","","","","","","","","","","","","key","f","15.62545454545497","683","380","f","true","nonmatch","img/diamond.png","方形","菱形","ALT1","formal_ALT1_2","","","","","","","","","","","",""
"null","<span style='color:GreenYellow; font-size: 70px;'>正确! </span>","null","html-keyboard-response","150","272114","0.0-7.0-1.0-4.0-0.0-1.21","3","3","3","3","3","3","3","3","3","3","4","2","2","4","4","4","4","4","4","4","2","2","2","2","2","2","2","2","2","0","0","1","1","0","0","0","0","1","1","1","0","1","0","1","4","2","2","4","4","","2","4","4","4","2","718762010250051584","李","235","","","","","","","","","","","","","","","","","","","","","","","","","","","","","","feedback_test","","","","","","","","","","","",""
"686","","j","psychophysics","151","273801","0.0-7.0-1.0-4.0-0.0-0.22","3","3","3","3","3","3","3","3","3","3","4","2","2","4","4","4","4","4","4","4","2","2","2","2","2","2","2","2","2","0","0","1","1","0","0","0","0","1","1","1","0","1","0","1","4","2","2","4","4","","2","4","4","4","2","718762010250051584","李","235","","","","match","","","","","","","","","","","","","","key","j","15.624299065420452","683","380","j","true","match","img/hexagon.png","六边","六边","ALT1","formal_ALT1_2","","","","","","","","","","","",""
"null","<span style='color:GreenYellow; font-size: 70px;'>正确! </span>","null","html-keyboard-response","152","274303","0.0-7.0-1.0-4.0-0.0-1.22","3","3","3","3","3","3","3","3","3","3","4","2","2","4","4","4","4","4","4","4","2","2","2","2","2","2","2","2","2","0","0","1","1","0","0","0","0","1","1","1","0","1","0","1","4","2","2","4","4","","2","4","4","4","2","718762010250051584","李","235","","","","","","","","","","","","","","","","","","","","","","","","","","","","","","feedback_test","","","","","","","","","","","",""
"795","","j","psychophysics","153","276106","0.0-7.0-1.0-4.0-0.0-0.23","3","3","3","3","3","3","3","3","3","3","4","2","2","4","4","4","4","4","4","4","2","2","2","2","2","2","2","2","2","0","0","1","1","0","0","0","0","1","1","1","0","1","0","1","4","2","2","4","4","","2","4","4","4","2","718762010250051584","李","235","","","","match","","","","","","","","","","","","","","key","j","15.624561403508874","683","380","j","true","match","img/hexagon.png","六边","六边","ALT1","formal_ALT1_2","","","","","","","","","","","",""
"null","<span style='color:GreenYellow; font-size: 70px;'>正确! </span>","null","html-keyboard-response","154","276611","0.0-7.0-1.0-4.0-0.0-1.23","3","3","3","3","3","3","3","3","3","3","4","2","2","4","4","4","4","4","4","4","2","2","2","2","2","2","2","2","2","0","0","1","1","0","0","0","0","1","1","1","0","1","0","1","4","2","2","4","4","","2","4","4","4","2","718762010250051584","李","235","","","","","","","","","","","","","","","","","","","","","","","","","","","","","","feedback_test","","","","","","","","","","","",""
"844","","f","psychophysics","155","278457","0.0-7.0-1.0-4.0-0.0-0.24","3","3","3","3","3","3","3","3","3","3","4","2","2","4","4","4","4","4","4","4","2","2","2","2","2","2","2","2","2","0","0","1","1","0","0","0","0","1","1","1","0","1","0","1","4","2","2","4","4","","2","4","4","4","2","718762010250051584","李","235","","","","nonmatch","","","","","","","","","","","","","","key","f","15.625641025640627","683","380","f","true","nonmatch","img/hexagon.png","菱形","六边","ALT1","formal_ALT1_2","","","","","","","","","","","",""
"null","<span style='color:GreenYellow; font-size: 70px;'>正确! </span>","null","html-keyboard-response","156","278959","0.0-7.0-1.0-4.0-0.0-1.24","3","3","3","3","3","3","3","3","3","3","4","2","2","4","4","4","4","4","4","4","2","2","2","2","2","2","2","2","2","0","0","1","1","0","0","0","0","1","1","1","0","1","0","1","4","2","2","4","4","","2","4","4","4","2","718762010250051584","李","235","","","","","","","","","","","","","","","","","","","","","","","","","","","","","","feedback_test","","","","","","","","","","","",""
"656","","j","psychophysics","157","280616","0.0-7.0-1.0-4.0-0.0-0.25","3","3","3","3","3","3","3","3","3","3","4","2","2","4","4","4","4","4","4","4","2","2","2","2","2","2","2","2","2","0","0","1","1","0","0","0","0","1","1","1","0","1","0","1","4","2","2","4","4","","2","4","4","4","2","718762010250051584","李","235","","","","match","","","","","","","","","","","","","","key","j","15.625714285714396","683","380","j","true","match","img/circle.png","圆形","圆形","ALT1","formal_ALT1_2","","","","","","","","","","","",""
"null","<span style='color:GreenYellow; font-size: 70px;'>正确! </span>","null","html-keyboard-response","158","281118","0.0-7.0-1.0-4.0-0.0-1.25","3","3","3","3","3","3","3","3","3","3","4","2","2","4","4","4","4","4","4","4","2","2","2","2","2","2","2","2","2","0","0","1","1","0","0","0","0","1","1","1","0","1","0","1","4","2","2","4","4","","2","4","4","4","2","718762010250051584","李","235","","","","","","","","","","","","","","","","","","","","","","","","","","","","","","feedback_test","","","","","","","","","","","",""
"887","","j","psychophysics","159","283006","0.0-7.0-1.0-4.0-0.0-0.26","3","3","3","3","3","3","3","3","3","3","4","2","2","4","4","4","4","4","4","4","2","2","2","2","2","2","2","2","2","0","0","1","1","0","0","0","0","1","1","1","0","1","0","1","4","2","2","4","4","","2","4","4","4","2","718762010250051584","李","235","","","","match","","","","","","","","","","","","","","key","j","15.625833333333139","683","380","f","false","nonmatch","img/diamond.png","方形","菱形","ALT1","formal_ALT1_2","","","","","","","","","","","",""
"null","<span style='color:red; font-size: 70px;'>错误! </span>","null","html-keyboard-response","160","283515","0.0-7.0-1.0-4.0-0.0-1.26","3","3","3","3","3","3","3","3","3","3","4","2","2","4","4","4","4","4","4","4","2","2","2","2","2","2","2","2","2","0","0","1","1","0","0","0","0","1","1","1","0","1","0","1","4","2","2","4","4","","2","4","4","4","2","718762010250051584","李","235","","","","","","","","","","","","","","","","","","","","","","","","","","","","","","feedback_test","","","","","","","","","","","",""
"859","","j","psychophysics","161","285379","0.0-7.0-1.0-4.0-0.0-0.27","3","3","3","3","3","3","3","3","3","3","4","2","2","4","4","4","4","4","4","4","2","2","2","2","2","2","2","2","2","0","0","1","1","0","0","0","0","1","1","1","0","1","0","1","4","2","2","4","4","","2","4","4","4","2","718762010250051584","李","235","","","","match","","","","","","","","","","","","","","key","j","15.62457627118654","683","380","j","true","match","img/circle.png","圆形","圆形","ALT1","formal_ALT1_2","","","","","","","","","","","",""
"null","<span style='color:GreenYellow; font-size: 70px;'>正确! </span>","null","html-keyboard-response","162","285882","0.0-7.0-1.0-4.0-0.0-1.27","3","3","3","3","3","3","3","3","3","3","4","2","2","4","4","4","4","4","4","4","2","2","2","2","2","2","2","2","2","0","0","1","1","0","0","0","0","1","1","1","0","1","0","1","4","2","2","4","4","","2","4","4","4","2","718762010250051584","李","235","","","","","","","","","","","","","","","","","","","","","","","","","","","","","","feedback_test","","","","","","","","","","","",""
"745","","j","psychophysics","163","287630","0.0-7.0-1.0-4.0-0.0-0.28","3","3","3","3","3","3","3","3","3","3","4","2","2","4","4","4","4","4","4","4","2","2","2","2","2","2","2","2","2","0","0","1","1","0","0","0","0","1","1","1","0","1","0","1","4","2","2","4","4","","2","4","4","4","2","718762010250051584","李","235","","","","match","","","","","","","","","","","","","","key","j","15.625225225225435","683","380","j","true","match","img/diamond.png","菱形","菱形","ALT1","formal_ALT1_2","","","","","","","","","","","",""
"null","<span style='color:GreenYellow; font-size: 70px;'>正确! </span>","null","html-keyboard-response","164","288132","0.0-7.0-1.0-4.0-0.0-1.28","3","3","3","3","3","3","3","3","3","3","4","2","2","4","4","4","4","4","4","4","2","2","2","2","2","2","2","2","2","0","0","1","1","0","0","0","0","1","1","1","0","1","0","1","4","2","2","4","4","","2","4","4","4","2","718762010250051584","李","235","","","","","","","","","","","","","","","","","","","","","","","","","","","","","","feedback_test","","","","","","","","","","","",""
"690","","f","psychophysics","165","289825","0.0-7.0-1.0-4.0-0.0-0.29","3","3","3","3","3","3","3","3","3","3","4","2","2","4","4","4","4","4","4","4","2","2","2","2","2","2","2","2","2","0","0","1","1","0","0","0","0","1","1","1","0","1","0","1","4","2","2","4","4","","2","4","4","4","2","718762010250051584","李","235","","","","nonmatch","","","","","","","","","","","","","","key","f","15.62523364486003","683","380","f","true","nonmatch","img/diamond.png","六边","菱形","ALT1","formal_ALT1_2","","","","","","","","","","","",""
"null","<span style='color:GreenYellow; font-size: 70px;'>正确! </span>","null","html-keyboard-response","166","290326","0.0-7.0-1.0-4.0-0.0-1.29","3","3","3","3","3","3","3","3","3","3","4","2","2","4","4","4","4","4","4","4","2","2","2","2","2","2","2","2","2","0","0","1","1","0","0","0","0","1","1","1","0","1","0","1","4","2","2","4","4","","2","4","4","4","2","718762010250051584","李","235","","","","","","","","","","","","","","","","","","","","","","","","","","","","","","feedback_test","","","","","","","","","","","",""
"725","","j","psychophysics","167","292057","0.0-7.0-1.0-4.0-0.0-0.30","3","3","3","3","3","3","3","3","3","3","4","2","2","4","4","4","4","4","4","4","2","2","2","2","2","2","2","2","2","0","0","1","1","0","0","0","0","1","1","1","0","1","0","1","4","2","2","4","4","","2","4","4","4","2","718762010250051584","李","235","","","","match","","","","","","","","","","","","","","key","j","15.625688073394603","683","380","j","true","match","img/square.png","方形","方形","ALT1","formal_ALT1_2","","","","","","","","","","","",""
"null","<span style='color:GreenYellow; font-size: 70px;'>正确! </span>","null","html-keyboard-response","168","292558","0.0-7.0-1.0-4.0-0.0-1.30","3","3","3","3","3","3","3","3","3","3","4","2","2","4","4","4","4","4","4","4","2","2","2","2","2","2","2","2","2","0","0","1","1","0","0","0","0","1","1","1","0","1","0","1","4","2","2","4","4","","2","4","4","4","2","718762010250051584","李","235","","","","","","","","","","","","","","","","","","","","","","","","","","","","","","feedback_test","","","","","","","","","","","",""
"758","","f","psychophysics","169","294317","0.0-7.0-1.0-4.0-0.0-0.31","3","3","3","3","3","3","3","3","3","3","4","2","2","4","4","4","4","4","4","4","2","2","2","2","2","2","2","2","2","0","0","1","1","0","0","0","0","1","1","1","0","1","0","1","4","2","2","4","4","","2","4","4","4","2","718762010250051584","李","235","","","","nonmatch","","","","","","","","","","","","","","key","f","15.625","683","380","f","true","nonmatch","img/square.png","圆形","方形","ALT1","formal_ALT1_2","","","","","","","","","","","",""
"null","<span style='color:GreenYellow; font-size: 70px;'>正确! </span>","null","html-keyboard-response","170","294819","0.0-7.0-1.0-4.0-0.0-1.31","3","3","3","3","3","3","3","3","3","3","4","2","2","4","4","4","4","4","4","4","2","2","2","2","2","2","2","2","2","0","0","1","1","0","0","0","0","1","1","1","0","1","0","1","4","2","2","4","4","","2","4","4","4","2","718762010250051584","李","235","","","","","","","","","","","","","","","","","","","","","","","","","","","","","","feedback_test","","","","","","","","","","","",""
"591","","j","psychophysics","171","296412","0.0-7.0-1.0-4.0-0.0-0.32","3","3","3","3","3","3","3","3","3","3","4","2","2","4","4","4","4","4","4","4","2","2","2","2","2","2","2","2","2","0","0","1","1","0","0","0","0","1","1","1","0","1","0","1","4","2","2","4","4","","2","4","4","4","2","718762010250051584","李","235","","","","match","","","","","","","","","","","","","","key","j","15.62475247524787","683","380","j","true","match","img/square.png","方形","方形","ALT1","formal_ALT1_2","","","","","","","","","","","",""
"null","<span style='color:GreenYellow; font-size: 70px;'>正确! </span>","null","html-keyboard-response","172","296917","0.0-7.0-1.0-4.0-0.0-1.32","3","3","3","3","3","3","3","3","3","3","4","2","2","4","4","4","4","4","4","4","2","2","2","2","2","2","2","2","2","0","0","1","1","0","0","0","0","1","1","1","0","1","0","1","4","2","2","4","4","","2","4","4","4","2","718762010250051584","李","235","","","","","","","","","","","","","","","","","","","","","","","","","","","","","","feedback_test","","","","","","","","","","","",""
"810","","j","psychophysics","173","298729","0.0-7.0-1.0-4.0-0.0-0.33","3","3","3","3","3","3","3","3","3","3","4","2","2","4","4","4","4","4","4","4","2","2","2","2","2","2","2","2","2","0","0","1","1","0","0","0","0","1","1","1","0","1","0","1","4","2","2","4","4","","2","4","4","4","2","718762010250051584","李","235","","","","match","","","","","","","","","","","","","","key","j","15.626086956521739","683","380","j","true","match","img/diamond.png","菱形","菱形","ALT1","formal_ALT1_2","","","","","","","","","","","",""
"null","<span style='color:GreenYellow; font-size: 70px;'>正确! </span>","null","html-keyboard-response","174","299231","0.0-7.0-1.0-4.0-0.0-1.33","3","3","3","3","3","3","3","3","3","3","4","2","2","4","4","4","4","4","4","4","2","2","2","2","2","2","2","2","2","0","0","1","1","0","0","0","0","1","1","1","0","1","0","1","4","2","2","4","4","","2","4","4","4","2","718762010250051584","李","235","","","","","","","","","","","","","","","","","","","","","","","","","","","","","","feedback_test","","","","","","","","","","","",""
"840","","f","psychophysics","175","301074","0.0-7.0-1.0-4.0-0.0-0.34","3","3","3","3","3","3","3","3","3","3","4","2","2","4","4","4","4","4","4","4","2","2","2","2","2","2","2","2","2","0","0","1","1","0","0","0","0","1","1","1","0","1","0","1","4","2","2","4","4","","2","4","4","4","2","718762010250051584","李","235","","","","nonmatch","","","","","","","","","","","","","","key","f","15.625641025641125","683","380","f","true","nonmatch","img/circle.png","方形","圆形","ALT1","formal_ALT1_2","","","","","","","","","","","",""
"null","<span style='color:GreenYellow; font-size: 70px;'>正确! </span>","null","html-keyboard-response","176","301575","0.0-7.0-1.0-4.0-0.0-1.34","3","3","3","3","3","3","3","3","3","3","4","2","2","4","4","4","4","4","4","4","2","2","2","2","2","2","2","2","2","0","0","1","1","0","0","0","0","1","1","1","0","1","0","1","4","2","2","4","4","","2","4","4","4","2","718762010250051584","李","235","","","","","","","","","","","","","","","","","","","","","","","","","","","","","","feedback_test","","","","","","","","","","","",""
"640","","j","psychophysics","177","303217","0.0-7.0-1.0-4.0-0.0-0.35","3","3","3","3","3","3","3","3","3","3","4","2","2","4","4","4","4","4","4","4","2","2","2","2","2","2","2","2","2","0","0","1","1","0","0","0","0","1","1","1","0","1","0","1","4","2","2","4","4","","2","4","4","4","2","718762010250051584","李","235","","","","match","","","","","","","","","","","","","","key","j","15.624038461538126","683","380","j","true","match","img/circle.png","圆形","圆形","ALT1","formal_ALT1_2","","","","","","","","","","","",""
"null","<span style='color:GreenYellow; font-size: 70px;'>正确! </span>","null","html-keyboard-response","178","303718","0.0-7.0-1.0-4.0-0.0-1.35","3","3","3","3","3","3","3","3","3","3","4","2","2","4","4","4","4","4","4","4","2","2","2","2","2","2","2","2","2","0","0","1","1","0","0","0","0","1","1","1","0","1","0","1","4","2","2","4","4","","2","4","4","4","2","718762010250051584","李","235","","","","","","","","","","","","","","","","","","","","","","","","","","","","","","feedback_test","","","","","","","","","","","",""
"690","","f","psychophysics","179","305411","0.0-7.0-1.0-4.0-0.0-0.36","3","3","3","3","3","3","3","3","3","3","4","2","2","4","4","4","4","4","4","4","2","2","2","2","2","2","2","2","2","0","0","1","1","0","0","0","0","1","1","1","0","1","0","1","4","2","2","4","4","","2","4","4","4","2","718762010250051584","李","235","","","","nonmatch","","","","","","","","","","","","","","key","f","17.075257731958644","683","380","f","true","nonmatch","img/circle.png","菱形","圆形","ALT1","formal_ALT1_2","","","","","","","","","","","",""
"null","<span style='color:GreenYellow; font-size: 70px;'>正确! </span>","null","html-keyboard-response","180","305924","0.0-7.0-1.0-4.0-0.0-1.36","3","3","3","3","3","3","3","3","3","3","4","2","2","4","4","4","4","4","4","4","2","2","2","2","2","2","2","2","2","0","0","1","1","0","0","0","0","1","1","1","0","1","0","1","4","2","2","4","4","","2","4","4","4","2","718762010250051584","李","235","","","","","","","","","","","","","","","","","","","","","","","","","","","","","","feedback_test","","","","","","","","","","","",""
"830","","f","psychophysics","181","307757","0.0-7.0-1.0-4.0-0.0-0.37","3","3","3","3","3","3","3","3","3","3","4","2","2","4","4","4","4","4","4","4","2","2","2","2","2","2","2","2","2","0","0","1","1","0","0","0","0","1","1","1","0","1","0","1","4","2","2","4","4","","2","4","4","4","2","718762010250051584","李","235","","","","nonmatch","","","","","","","","","","","","","","key","f","15.625","683","380","f","true","nonmatch","img/circle.png","六边","圆形","ALT1","formal_ALT1_2","","","","","","","","","","","",""
"null","<span style='color:GreenYellow; font-size: 70px;'>正确! </span>","null","html-keyboard-response","182","308259","0.0-7.0-1.0-4.0-0.0-1.37","3","3","3","3","3","3","3","3","3","3","4","2","2","4","4","4","4","4","4","4","2","2","2","2","2","2","2","2","2","0","0","1","1","0","0","0","0","1","1","1","0","1","0","1","4","2","2","4","4","","2","4","4","4","2","718762010250051584","李","235","","","","","","","","","","","","","","","","","","","","","","","","","","","","","","feedback_test","","","","","","","","","","","",""
