"rt","stimulus","response","trial_type","trial_index","time_elapsed","internal_node_id","ses_1","ses_2","ses_3","ses_4","ses_5","ses_6","ses_7","ses_8","ses_9","ses_10","coreself_1","coreself_2","coreself_3","coreself_4","coreself_5","coreself_6","coreself_7","coreself_8","coreself_9","coreself_10","SGPS_1","SGPS_2","SGPS_3","SGPS_4","SGPS_5","SGPS_6","SGPS_7","SGPS_8","SGPS_9","NPI1","NPI2","NPI3","NPI4","NPI5","NPI6","NPI7","NPI8","NPI9","NPI10","NPI11","NPI12","NPI13","NPI14","NPI15","hsns_1","hsns_2","hsns_3","hsns_4","hsns_5","trap1","hsns_6","hsns_7","hsns_8","hsns_9","hsns_10","subj_idx","friend_name","ParticipantID","value","success","user_agent","responses","item_order","radio_event_ids","radio_event_times","key_event_times","mouse_event_times","straightlining","zigzagging","honeypot","timeout","failed_images","failed_audio","failed_video","view_history","response_type","key_press","avg_frame_time","center_x","center_y","correct_response","correct","identity","Image","word","condition","task_id","screen_id","time_stamp","version_attrib2","version_target2","IAT","RT","varname","summary","version_attrib","version_target","question_order","correct_answer","trap1_item"
"3353","
   <p><div style = ""color: white;font-size:25px;"">您好，欢迎参加本次实验。</div> </p>
   <p><div style = ""color: white;font-size:25px;"">为充分保障您的权利，请确保您已经知晓并同意《参与实验同意书》以及《数据公开知情同意书》。</div></p>
   <p><div style = ""color: white;font-size:25px;"">如果您未见过上述内容，请咨询实验员。</div></p>
   <p><div style = ""color: white;font-size:25px;"">如果您选择继续实验，则表示您已经清楚两份知情同意书的内容并同意。</div></p>
   <p><div style = ""color: pink;font-size:30px;"">请确保您记得day0的实验编号，您将在本次实验输入该编号，若您忘记，请咨询实验员后作答。</div></p>
   <p><div style = ""color: lightblue;font-size:25px;"">请您尽可能认真地作答，我们将依据您在各问卷和按键任务中的作答质量发放报酬。</div></p>
   <p> <div style = ""color: green;font-size:25px;""><按空格键至下页></div> </p>
   "," ","html-keyboard-response","0","3357","0.0-0.0","3","4","4","3","3","4","3","3","4","3","4","4","4","4","4","5","4","4","4","4","2","2","2","2","2","1","2","2","1","0","1","0","0","1","1","0","0","1","0","0","0","1","0","0","4","2","1","1","2","1","4","4","5","4","2","766374165644316674","应","15","","","","","","","","","","","","","","","","","","","","","","","","","","","","","","","","","","","","","","","","","",""
"","","","call-function","1","3358","0.0-1.0-0.0","3","4","4","3","3","4","3","3","4","3","4","4","4","4","4","5","4","4","4","4","2","2","2","2","2","1","2","2","1","0","1","0","0","1","1","0","0","1","0","0","0","1","0","0","4","2","1","1","2","1","4","4","5","4","2","766374165644316674","应","15","","","","","","","","","","","","","","","","","","","","","","","","","","","","","","","","","","","","","","","","","",""
"6843","","{""friend_name"":""应"",""ParticipantID"":""15""}","survey-html-form","2","10203","0.0-1.0-1.0","3","4","4","3","3","4","3","3","4","3","4","4","4","4","4","5","4","4","4","4","2","2","2","2","2","1","2","2","1","0","1","0","0","1","1","0","0","1","0","0","0","1","0","0","4","2","1","1","2","1","4","4","5","4","2","766374165644316674","应","15","","","","","","","","","","","","","","","","","","","","","","","","","","","","","","","","","","","","","","","","","",""
"","","","fullscreen","3","11358","0.0-2.0","3","4","4","3","3","4","3","3","4","3","4","4","4","4","4","5","4","4","4","4","2","2","2","2","2","1","2","2","1","0","1","0","0","1","1","0","0","1","0","0","0","1","0","0","4","2","1","1","2","1","4","4","5","4","2","766374165644316674","应","15","","true","{}","","","","","","","","","","","","","","","","","","","","","","","","","","","","","","","","","","","","","","",""
"15788.300000071526","","{""Q01"":""3"",""Q02"":""4"",""Q03"":""4"",""Q04"":""3"",""Q05"":""3"",""Q06"":""4"",""Q07"":""3"",""Q08"":""3"",""Q09"":""4"",""Q10"":""3""}","survey-template","4","27151","0.0-3.0","3","4","4","3","3","4","3","3","4","3","4","4","4","4","4","5","4","4","4","4","2","2","2","2","2","1","2","2","1","0","1","0","0","1","1","0","0","1","0","0","0","1","0","0","4","2","1","1","2","1","4","4","5","4","2","766374165644316674","应","15","","","","{""Q01"":""3"",""Q02"":""4"",""Q03"":""4"",""Q04"":""3"",""Q05"":""3"",""Q06"":""4"",""Q07"":""3"",""Q08"":""3"",""Q09"":""4"",""Q10"":""3""}","[0,1,2,3,4,5,6,7,8,9]","[""Q01"",""Q02"",""Q03"",""Q04"",""Q05"",""Q06"",""Q07"",""Q08"",""Q09"",""Q10""]","[2485.399999976158,3305.2000000476837,7103.5,7954.600000023842,9233.399999976158,10475.200000047684,11436.5,12669,14161.200000047684,15022.100000023842]","[]","[2485.399999976158,3305.2000000476837,5838.899999976158,7103.5,7954.600000023842,9233.399999976158,10475.200000047684,11436.5,12669,14161.200000047684,15022.100000023842,15787]","0.3","0.7777777777777778","0","","","","","","","","","","","","","","","","","","","","","","","","","","","","","",""
"18226.5","","{""Q01"":""4"",""Q02"":""4"",""Q03"":""4"",""Q04"":""4"",""Q05"":""4"",""Q06"":""5"",""Q07"":""4"",""Q08"":""4"",""Q09"":""4"",""Q10"":""4""}","survey-template","5","45385","0.0-4.0","3","4","4","3","3","4","3","3","4","3","4","4","4","4","4","5","4","4","4","4","2","2","2","2","2","1","2","2","1","0","1","0","0","1","1","0","0","1","0","0","0","1","0","0","4","2","1","1","2","1","4","4","5","4","2","766374165644316674","应","15","","","","{""Q01"":""4"",""Q02"":""4"",""Q03"":""4"",""Q04"":""4"",""Q05"":""4"",""Q06"":""5"",""Q07"":""4"",""Q08"":""4"",""Q09"":""4"",""Q10"":""4""}","[0,1,2,3,4,5,6,7,8,9]","[""Q01"",""Q02"",""Q03"",""Q04"",""Q05"",""Q06"",""Q07"",""Q08"",""Q09"",""Q10""]","[2327.4000000953674,4026.2000000476837,5737.900000095367,7707.600000023842,9364.700000047684,10767.5,13473.5,14303.400000095367,15729.800000071526,17266.5]","[]","[2327.4000000953674,4026.2000000476837,5737.900000095367,7707.600000023842,9364.700000047684,10767.5,12129.300000071526,13473.5,14303.400000095367,15729.800000071526,17266.5,18225.100000023842]","0.6","0","0","","","","","","","","","","","","","","","","","","","","","","","","","","","","","",""
"","","","preload","6","45419","0.0-5.0","3","4","4","3","3","4","3","3","4","3","4","4","4","4","4","5","4","4","4","4","2","2","2","2","2","1","2","2","1","0","1","0","0","1","1","0","0","1","0","0","0","1","0","0","4","2","1","1","2","1","4","4","5","4","2","766374165644316674","应","15","","true","","","","","","","","","","","false","[]","[]","[]","","","","","","","","","","","","","","","","","","","","","","","","","",""
"8291","","","instructions","7","53711","0.0-6.0","3","4","4","3","3","4","3","3","4","3","4","4","4","4","4","5","4","4","4","4","2","2","2","2","2","1","2","2","1","0","1","0","0","1","1","0","0","1","0","0","0","1","0","0","4","2","1","1","2","1","4","4","5","4","2","766374165644316674","应","15","","","","","","","","","","","","","","","","","[{""page_index"":0,""viewing_time"":8291}]","","","","","","","","","","","","","","","","","","","","","","","","",""
"18731","","","instructions","8","72445","0.0-7.0-1.0-0.0","3","4","4","3","3","4","3","3","4","3","4","4","4","4","4","5","4","4","4","4","2","2","2","2","2","1","2","2","1","0","1","0","0","1","1","0","0","1","0","0","0","1","0","0","4","2","1","1","2","1","4","4","5","4","2","766374165644316674","应","15","","","","","","","","","","","","","","","","","[{""page_index"":0,""viewing_time"":15305},{""page_index"":1,""viewing_time"":1512},{""page_index"":2,""viewing_time"":1914}]","","","","","","","","","","","","","","","","","","","","","","","","",""
"931","","j","psychophysics","9","74380","0.0-7.0-1.0-1.0-0.0-0.0","3","4","4","3","3","4","3","3","4","3","4","4","4","4","4","5","4","4","4","4","2","2","2","2","2","1","2","2","1","0","1","0","0","1","1","0","0","1","0","0","0","1","0","0","4","2","1","1","2","1","4","4","5","4","2","766374165644316674","应","15","","","","match","","","","","","","","","","","","","","key","j","16.647368421052658","747.8345776424576","416.9343220484498","j","true","match","img/pentagon.png","五边","五边","ALT1_2","prac_ALT1_2","","","","","","","","","","","",""
"null","<span style='color:GreenYellow; font-size: 70px;'>正确! </span>","null","html-keyboard-response","10","74883","0.0-7.0-1.0-1.0-0.0-1.0","3","4","4","3","3","4","3","3","4","3","4","4","4","4","4","5","4","4","4","4","2","2","2","2","2","1","2","2","1","0","1","0","0","1","1","0","0","1","0","0","0","1","0","0","4","2","1","1","2","1","4","4","5","4","2","766374165644316674","应","15","","","","","","","","","","","","","","","","","","","","","","","","","","","","","","feedback_test","","","","","","","","","","","",""
"678","","j","psychophysics","11","76563","0.0-7.0-1.0-1.0-0.0-0.1","3","4","4","3","3","4","3","3","4","3","4","4","4","4","4","5","4","4","4","4","2","2","2","2","2","1","2","2","1","0","1","0","0","1","1","0","0","1","0","0","0","1","0","0","4","2","1","1","2","1","4","4","5","4","2","766374165644316674","应","15","","","","match","","","","","","","","","","","","","","key","j","16.664646464646495","747.8345776424576","416.9343220484498","j","true","match","img/trapezoid.png","梯形","梯形","ALT1_2","prac_ALT1_2","","","","","","","","","","","",""
"null","<span style='color:GreenYellow; font-size: 70px;'>正确! </span>","null","html-keyboard-response","12","77064","0.0-7.0-1.0-1.0-0.0-1.1","3","4","4","3","3","4","3","3","4","3","4","4","4","4","4","5","4","4","4","4","2","2","2","2","2","1","2","2","1","0","1","0","0","1","1","0","0","1","0","0","0","1","0","0","4","2","1","1","2","1","4","4","5","4","2","766374165644316674","应","15","","","","","","","","","","","","","","","","","","","","","","","","","","","","","","feedback_test","","","","","","","","","","","",""
"923","","j","psychophysics","13","78990","0.0-7.0-1.0-1.0-0.0-0.2","3","4","4","3","3","4","3","3","4","3","4","4","4","4","4","5","4","4","4","4","2","2","2","2","2","1","2","2","1","0","1","0","0","1","1","0","0","1","0","0","0","1","0","0","4","2","1","1","2","1","4","4","5","4","2","766374165644316674","应","15","","","","match","","","","","","","","","","","","","","key","j","16.66491228070178","747.8345776424576","416.9343220484498","j","true","match","img/circle.png","圆形","圆形","ALT1_2","prac_ALT1_2","","","","","","","","","","","",""
"null","<span style='color:GreenYellow; font-size: 70px;'>正确! </span>","null","html-keyboard-response","14","79513","0.0-7.0-1.0-1.0-0.0-1.2","3","4","4","3","3","4","3","3","4","3","4","4","4","4","4","5","4","4","4","4","2","2","2","2","2","1","2","2","1","0","1","0","0","1","1","0","0","1","0","0","0","1","0","0","4","2","1","1","2","1","4","4","5","4","2","766374165644316674","应","15","","","","","","","","","","","","","","","","","","","","","","","","","","","","","","feedback_test","","","","","","","","","","","",""
"700","","j","psychophysics","15","81225","0.0-7.0-1.0-1.0-0.0-0.3","3","4","4","3","3","4","3","3","4","3","4","4","4","4","4","5","4","4","4","4","2","2","2","2","2","1","2","2","1","0","1","0","0","1","1","0","0","1","0","0","0","1","0","0","4","2","1","1","2","1","4","4","5","4","2","766374165644316674","应","15","","","","match","","","","","","","","","","","","","","key","j","16.66470588235297","747.8345776424576","416.9343220484498","j","true","match","img/diamond.png","菱形","菱形","ALT1_2","prac_ALT1_2","","","","","","","","","","","",""
"null","<span style='color:GreenYellow; font-size: 70px;'>正确! </span>","null","html-keyboard-response","16","81728","0.0-7.0-1.0-1.0-0.0-1.3","3","4","4","3","3","4","3","3","4","3","4","4","4","4","4","5","4","4","4","4","2","2","2","2","2","1","2","2","1","0","1","0","0","1","1","0","0","1","0","0","0","1","0","0","4","2","1","1","2","1","4","4","5","4","2","766374165644316674","应","15","","","","","","","","","","","","","","","","","","","","","","","","","","","","","","feedback_test","","","","","","","","","","","",""
"613","","j","psychophysics","17","83343","0.0-7.0-1.0-1.0-0.0-0.4","3","4","4","3","3","4","3","3","4","3","4","4","4","4","4","5","4","4","4","4","2","2","2","2","2","1","2","2","1","0","1","0","0","1","1","0","0","1","0","0","0","1","0","0","4","2","1","1","2","1","4","4","5","4","2","766374165644316674","应","15","","","","match","","","","","","","","","","","","","","key","j","16.645833333333332","747.8345776424576","416.9343220484498","j","true","match","img/pentagon.png","五边","五边","ALT1_2","prac_ALT1_2","","","","","","","","","","","",""
"null","<span style='color:GreenYellow; font-size: 70px;'>正确! </span>","null","html-keyboard-response","18","83845","0.0-7.0-1.0-1.0-0.0-1.4","3","4","4","3","3","4","3","3","4","3","4","4","4","4","4","5","4","4","4","4","2","2","2","2","2","1","2","2","1","0","1","0","0","1","1","0","0","1","0","0","0","1","0","0","4","2","1","1","2","1","4","4","5","4","2","766374165644316674","应","15","","","","","","","","","","","","","","","","","","","","","","","","","","","","","","feedback_test","","","","","","","","","","","",""
"630","","j","psychophysics","19","85477","0.0-7.0-1.0-1.0-0.0-0.5","3","4","4","3","3","4","3","3","4","3","4","4","4","4","4","5","4","4","4","4","2","2","2","2","2","1","2","2","1","0","1","0","0","1","1","0","0","1","0","0","0","1","0","0","4","2","1","1","2","1","4","4","5","4","2","766374165644316674","应","15","","","","match","","","","","","","","","","","","","","key","j","16.663917525773286","747.8345776424576","416.9343220484498","j","true","match","img/trapezoid.png","梯形","梯形","ALT1_2","prac_ALT1_2","","","","","","","","","","","",""
"null","<span style='color:GreenYellow; font-size: 70px;'>正确! </span>","null","html-keyboard-response","20","85980","0.0-7.0-1.0-1.0-0.0-1.5","3","4","4","3","3","4","3","3","4","3","4","4","4","4","4","5","4","4","4","4","2","2","2","2","2","1","2","2","1","0","1","0","0","1","1","0","0","1","0","0","0","1","0","0","4","2","1","1","2","1","4","4","5","4","2","766374165644316674","应","15","","","","","","","","","","","","","","","","","","","","","","","","","","","","","","feedback_test","","","","","","","","","","","",""
"633","","f","psychophysics","21","87638","0.0-7.0-1.0-1.0-0.0-0.6","3","4","4","3","3","4","3","3","4","3","4","4","4","4","4","5","4","4","4","4","2","2","2","2","2","1","2","2","1","0","1","0","0","1","1","0","0","1","0","0","0","1","0","0","4","2","1","1","2","1","4","4","5","4","2","766374165644316674","应","15","","","","nonmatch","","","","","","","","","","","","","","key","f","16.664285714285626","747.8345776424576","416.9343220484498","f","true","nonmatch","img/diamond.png","圆形","菱形","ALT1_2","prac_ALT1_2","","","","","","","","","","","",""
"null","<span style='color:GreenYellow; font-size: 70px;'>正确! </span>","null","html-keyboard-response","22","88141","0.0-7.0-1.0-1.0-0.0-1.6","3","4","4","3","3","4","3","3","4","3","4","4","4","4","4","5","4","4","4","4","2","2","2","2","2","1","2","2","1","0","1","0","0","1","1","0","0","1","0","0","0","1","0","0","4","2","1","1","2","1","4","4","5","4","2","766374165644316674","应","15","","","","","","","","","","","","","","","","","","","","","","","","","","","","","","feedback_test","","","","","","","","","","","",""
"718","","f","psychophysics","23","89862","0.0-7.0-1.0-1.0-0.0-0.7","3","4","4","3","3","4","3","3","4","3","4","4","4","4","4","5","4","4","4","4","2","2","2","2","2","1","2","2","1","0","1","0","0","1","1","0","0","1","0","0","0","1","0","0","4","2","1","1","2","1","4","4","5","4","2","766374165644316674","应","15","","","","nonmatch","","","","","","","","","","","","","","key","f","16.66470588235297","747.8345776424576","416.9343220484498","f","true","nonmatch","img/circle.png","梯形","圆形","ALT1_2","prac_ALT1_2","","","","","","","","","","","",""
"null","<span style='color:GreenYellow; font-size: 70px;'>正确! </span>","null","html-keyboard-response","24","90363","0.0-7.0-1.0-1.0-0.0-1.7","3","4","4","3","3","4","3","3","4","3","4","4","4","4","4","5","4","4","4","4","2","2","2","2","2","1","2","2","1","0","1","0","0","1","1","0","0","1","0","0","0","1","0","0","4","2","1","1","2","1","4","4","5","4","2","766374165644316674","应","15","","","","","","","","","","","","","","","","","","","","","","","","","","","","","","feedback_test","","","","","","","","","","","",""
"780","","f","psychophysics","25","92145","0.0-7.0-1.0-1.0-0.0-0.8","3","4","4","3","3","4","3","3","4","3","4","4","4","4","4","5","4","4","4","4","2","2","2","2","2","1","2","2","1","0","1","0","0","1","1","0","0","1","0","0","0","1","0","0","4","2","1","1","2","1","4","4","5","4","2","766374165644316674","应","15","","","","nonmatch","","","","","","","","","","","","","","key","f","16.660952380952462","747.8345776424576","416.9343220484498","f","true","nonmatch","img/diamond.png","五边","菱形","ALT1_2","prac_ALT1_2","","","","","","","","","","","",""
"null","<span style='color:GreenYellow; font-size: 70px;'>正确! </span>","null","html-keyboard-response","26","92676","0.0-7.0-1.0-1.0-0.0-1.8","3","4","4","3","3","4","3","3","4","3","4","4","4","4","4","5","4","4","4","4","2","2","2","2","2","1","2","2","1","0","1","0","0","1","1","0","0","1","0","0","0","1","0","0","4","2","1","1","2","1","4","4","5","4","2","766374165644316674","应","15","","","","","","","","","","","","","","","","","","","","","","","","","","","","","","feedback_test","","","","","","","","","","","",""
"574","","j","psychophysics","27","94270","0.0-7.0-1.0-1.0-0.0-0.9","3","4","4","3","3","4","3","3","4","3","4","4","4","4","4","5","4","4","4","4","2","2","2","2","2","1","2","2","1","0","1","0","0","1","1","0","0","1","0","0","0","1","0","0","4","2","1","1","2","1","4","4","5","4","2","766374165644316674","应","15","","","","match","","","","","","","","","","","","","","key","j","16.6642105263157","747.8345776424576","416.9343220484498","j","true","match","img/trapezoid.png","梯形","梯形","ALT1_2","prac_ALT1_2","","","","","","","","","","","",""
"null","<span style='color:GreenYellow; font-size: 70px;'>正确! </span>","null","html-keyboard-response","28","94772","0.0-7.0-1.0-1.0-0.0-1.9","3","4","4","3","3","4","3","3","4","3","4","4","4","4","4","5","4","4","4","4","2","2","2","2","2","1","2","2","1","0","1","0","0","1","1","0","0","1","0","0","0","1","0","0","4","2","1","1","2","1","4","4","5","4","2","766374165644316674","应","15","","","","","","","","","","","","","","","","","","","","","","","","","","","","","","feedback_test","","","","","","","","","","","",""
"652","","f","psychophysics","29","96425","0.0-7.0-1.0-1.0-0.0-0.10","3","4","4","3","3","4","3","3","4","3","4","4","4","4","4","5","4","4","4","4","2","2","2","2","2","1","2","2","1","0","1","0","0","1","1","0","0","1","0","0","0","1","0","0","4","2","1","1","2","1","4","4","5","4","2","766374165644316674","应","15","","","","nonmatch","","","","","","","","","","","","","","key","f","16.664948453608247","747.8345776424576","416.9343220484498","f","true","nonmatch","img/pentagon.png","圆形","五边","ALT1_2","prac_ALT1_2","","","","","","","","","","","",""
"null","<span style='color:GreenYellow; font-size: 70px;'>正确! </span>","null","html-keyboard-response","30","96927","0.0-7.0-1.0-1.0-0.0-1.10","3","4","4","3","3","4","3","3","4","3","4","4","4","4","4","5","4","4","4","4","2","2","2","2","2","1","2","2","1","0","1","0","0","1","1","0","0","1","0","0","0","1","0","0","4","2","1","1","2","1","4","4","5","4","2","766374165644316674","应","15","","","","","","","","","","","","","","","","","","","","","","","","","","","","","","feedback_test","","","","","","","","","","","",""
"731","","f","psychophysics","31","98661","0.0-7.0-1.0-1.0-0.0-0.11","3","4","4","3","3","4","3","3","4","3","4","4","4","4","4","5","4","4","4","4","2","2","2","2","2","1","2","2","1","0","1","0","0","1","1","0","0","1","0","0","0","1","0","0","4","2","1","1","2","1","4","4","5","4","2","766374165644316674","应","15","","","","nonmatch","","","","","","","","","","","","","","key","f","16.66796116504857","747.8345776424576","416.9343220484498","f","true","nonmatch","img/pentagon.png","梯形","五边","ALT1_2","prac_ALT1_2","","","","","","","","","","","",""
"null","<span style='color:GreenYellow; font-size: 70px;'>正确! </span>","null","html-keyboard-response","32","99164","0.0-7.0-1.0-1.0-0.0-1.11","3","4","4","3","3","4","3","3","4","3","4","4","4","4","4","5","4","4","4","4","2","2","2","2","2","1","2","2","1","0","1","0","0","1","1","0","0","1","0","0","0","1","0","0","4","2","1","1","2","1","4","4","5","4","2","766374165644316674","应","15","","","","","","","","","","","","","","","","","","","","","","","","","","","","","","feedback_test","","","","","","","","","","","",""
"715","","j","psychophysics","33","100891","0.0-7.0-1.0-1.0-0.0-0.12","3","4","4","3","3","4","3","3","4","3","4","4","4","4","4","5","4","4","4","4","2","2","2","2","2","1","2","2","1","0","1","0","0","1","1","0","0","1","0","0","0","1","0","0","4","2","1","1","2","1","4","4","5","4","2","766374165644316674","应","15","","","","match","","","","","","","","","","","","","","key","j","16.66470588235297","747.8345776424576","416.9343220484498","j","true","match","img/circle.png","圆形","圆形","ALT1_2","prac_ALT1_2","","","","","","","","","","","",""
"null","<span style='color:GreenYellow; font-size: 70px;'>正确! </span>","null","html-keyboard-response","34","101392","0.0-7.0-1.0-1.0-0.0-1.12","3","4","4","3","3","4","3","3","4","3","4","4","4","4","4","5","4","4","4","4","2","2","2","2","2","1","2","2","1","0","1","0","0","1","1","0","0","1","0","0","0","1","0","0","4","2","1","1","2","1","4","4","5","4","2","766374165644316674","应","15","","","","","","","","","","","","","","","","","","","","","","","","","","","","","","feedback_test","","","","","","","","","","","",""
"721","","f","psychophysics","35","103115","0.0-7.0-1.0-1.0-0.0-0.13","3","4","4","3","3","4","3","3","4","3","4","4","4","4","4","5","4","4","4","4","2","2","2","2","2","1","2","2","1","0","1","0","0","1","1","0","0","1","0","0","0","1","0","0","4","2","1","1","2","1","4","4","5","4","2","766374165644316674","应","15","","","","nonmatch","","","","","","","","","","","","","","key","f","16.66372549019605","747.8345776424576","416.9343220484498","f","true","nonmatch","img/trapezoid.png","五边","梯形","ALT1_2","prac_ALT1_2","","","","","","","","","","","",""
"null","<span style='color:GreenYellow; font-size: 70px;'>正确! </span>","null","html-keyboard-response","36","103618","0.0-7.0-1.0-1.0-0.0-1.13","3","4","4","3","3","4","3","3","4","3","4","4","4","4","4","5","4","4","4","4","2","2","2","2","2","1","2","2","1","0","1","0","0","1","1","0","0","1","0","0","0","1","0","0","4","2","1","1","2","1","4","4","5","4","2","766374165644316674","应","15","","","","","","","","","","","","","","","","","","","","","","","","","","","","","","feedback_test","","","","","","","","","","","",""
"656","","f","psychophysics","37","105276","0.0-7.0-1.0-1.0-0.0-0.14","3","4","4","3","3","4","3","3","4","3","4","4","4","4","4","5","4","4","4","4","2","2","2","2","2","1","2","2","1","0","1","0","0","1","1","0","0","1","0","0","0","1","0","0","4","2","1","1","2","1","4","4","5","4","2","766374165644316674","应","15","","","","nonmatch","","","","","","","","","","","","","","key","f","16.664285714285775","747.8345776424576","416.9343220484498","f","true","nonmatch","img/trapezoid.png","圆形","梯形","ALT1_2","prac_ALT1_2","","","","","","","","","","","",""
"null","<span style='color:GreenYellow; font-size: 70px;'>正确! </span>","null","html-keyboard-response","38","105778","0.0-7.0-1.0-1.0-0.0-1.14","3","4","4","3","3","4","3","3","4","3","4","4","4","4","4","5","4","4","4","4","2","2","2","2","2","1","2","2","1","0","1","0","0","1","1","0","0","1","0","0","0","1","0","0","4","2","1","1","2","1","4","4","5","4","2","766374165644316674","应","15","","","","","","","","","","","","","","","","","","","","","","","","","","","","","","feedback_test","","","","","","","","","","","",""
"684","","j","psychophysics","39","107489","0.0-7.0-1.0-1.0-0.0-0.15","3","4","4","3","3","4","3","3","4","3","4","4","4","4","4","5","4","4","4","4","2","2","2","2","2","1","2","2","1","0","1","0","0","1","1","0","0","1","0","0","0","1","0","0","4","2","1","1","2","1","4","4","5","4","2","766374165644316674","应","15","","","","match","","","","","","","","","","","","","","key","j","16.665346534653438","747.8345776424576","416.9343220484498","j","true","match","img/diamond.png","菱形","菱形","ALT1_2","prac_ALT1_2","","","","","","","","","","","",""
"null","<span style='color:GreenYellow; font-size: 70px;'>正确! </span>","null","html-keyboard-response","40","107991","0.0-7.0-1.0-1.0-0.0-1.15","3","4","4","3","3","4","3","3","4","3","4","4","4","4","4","5","4","4","4","4","2","2","2","2","2","1","2","2","1","0","1","0","0","1","1","0","0","1","0","0","0","1","0","0","4","2","1","1","2","1","4","4","5","4","2","766374165644316674","应","15","","","","","","","","","","","","","","","","","","","","","","","","","","","","","","feedback_test","","","","","","","","","","","",""
"638","","f","psychophysics","41","109631","0.0-7.0-1.0-1.0-0.0-0.16","3","4","4","3","3","4","3","3","4","3","4","4","4","4","4","5","4","4","4","4","2","2","2","2","2","1","2","2","1","0","1","0","0","1","1","0","0","1","0","0","0","1","0","0","4","2","1","1","2","1","4","4","5","4","2","766374165644316674","应","15","","","","nonmatch","","","","","","","","","","","","","","key","f","16.664285714285775","747.8345776424576","416.9343220484498","f","true","nonmatch","img/circle.png","菱形","圆形","ALT1_2","prac_ALT1_2","","","","","","","","","","","",""
"null","<span style='color:GreenYellow; font-size: 70px;'>正确! </span>","null","html-keyboard-response","42","110132","0.0-7.0-1.0-1.0-0.0-1.16","3","4","4","3","3","4","3","3","4","3","4","4","4","4","4","5","4","4","4","4","2","2","2","2","2","1","2","2","1","0","1","0","0","1","1","0","0","1","0","0","0","1","0","0","4","2","1","1","2","1","4","4","5","4","2","766374165644316674","应","15","","","","","","","","","","","","","","","","","","","","","","","","","","","","","","feedback_test","","","","","","","","","","","",""
"743","","j","psychophysics","43","111876","0.0-7.0-1.0-1.0-0.0-0.17","3","4","4","3","3","4","3","3","4","3","4","4","4","4","4","5","4","4","4","4","2","2","2","2","2","1","2","2","1","0","1","0","0","1","1","0","0","1","0","0","0","1","0","0","4","2","1","1","2","1","4","4","5","4","2","766374165644316674","应","15","","","","match","","","","","","","","","","","","","","key","j","16.664077669902998","747.8345776424576","416.9343220484498","j","true","match","img/pentagon.png","五边","五边","ALT1_2","prac_ALT1_2","","","","","","","","","","","",""
"null","<span style='color:GreenYellow; font-size: 70px;'>正确! </span>","null","html-keyboard-response","44","112379","0.0-7.0-1.0-1.0-0.0-1.17","3","4","4","3","3","4","3","3","4","3","4","4","4","4","4","5","4","4","4","4","2","2","2","2","2","1","2","2","1","0","1","0","0","1","1","0","0","1","0","0","0","1","0","0","4","2","1","1","2","1","4","4","5","4","2","766374165644316674","应","15","","","","","","","","","","","","","","","","","","","","","","","","","","","","","","feedback_test","","","","","","","","","","","",""
"633","","f","psychophysics","45","114038","0.0-7.0-1.0-1.0-0.0-0.18","3","4","4","3","3","4","3","3","4","3","4","4","4","4","4","5","4","4","4","4","2","2","2","2","2","1","2","2","1","0","1","0","0","1","1","0","0","1","0","0","0","1","0","0","4","2","1","1","2","1","4","4","5","4","2","766374165644316674","应","15","","","","nonmatch","","","","","","","","","","","","","","key","f","16.664285714285626","747.8345776424576","416.9343220484498","f","true","nonmatch","img/circle.png","五边","圆形","ALT1_2","prac_ALT1_2","","","","","","","","","","","",""
"null","<span style='color:GreenYellow; font-size: 70px;'>正确! </span>","null","html-keyboard-response","46","114539","0.0-7.0-1.0-1.0-0.0-1.18","3","4","4","3","3","4","3","3","4","3","4","4","4","4","4","5","4","4","4","4","2","2","2","2","2","1","2","2","1","0","1","0","0","1","1","0","0","1","0","0","0","1","0","0","4","2","1","1","2","1","4","4","5","4","2","766374165644316674","应","15","","","","","","","","","","","","","","","","","","","","","","","","","","","","","","feedback_test","","","","","","","","","","","",""
"650","","j","psychophysics","47","116190","0.0-7.0-1.0-1.0-0.0-0.19","3","4","4","3","3","4","3","3","4","3","4","4","4","4","4","5","4","4","4","4","2","2","2","2","2","1","2","2","1","0","1","0","0","1","1","0","0","1","0","0","0","1","0","0","4","2","1","1","2","1","4","4","5","4","2","766374165644316674","应","15","","","","match","","","","","","","","","","","","","","key","j","16.662244897959273","747.8345776424576","416.9343220484498","f","false","nonmatch","img/pentagon.png","菱形","五边","ALT1_2","prac_ALT1_2","","","","","","","","","","","",""
"null","<span style='color:red; font-size: 70px;'>错误! </span>","null","html-keyboard-response","48","116691","0.0-7.0-1.0-1.0-0.0-1.19","3","4","4","3","3","4","3","3","4","3","4","4","4","4","4","5","4","4","4","4","2","2","2","2","2","1","2","2","1","0","1","0","0","1","1","0","0","1","0","0","0","1","0","0","4","2","1","1","2","1","4","4","5","4","2","766374165644316674","应","15","","","","","","","","","","","","","","","","","","","","","","","","","","","","","","feedback_test","","","","","","","","","","","",""
"725","","j","psychophysics","49","118419","0.0-7.0-1.0-1.0-0.0-0.20","3","4","4","3","3","4","3","3","4","3","4","4","4","4","4","5","4","4","4","4","2","2","2","2","2","1","2","2","1","0","1","0","0","1","1","0","0","1","0","0","0","1","0","0","4","2","1","1","2","1","4","4","5","4","2","766374165644316674","应","15","","","","match","","","","","","","","","","","","","","key","j","16.664077669902856","747.8345776424576","416.9343220484498","j","true","match","img/diamond.png","菱形","菱形","ALT1_2","prac_ALT1_2","","","","","","","","","","","",""
"null","<span style='color:GreenYellow; font-size: 70px;'>正确! </span>","null","html-keyboard-response","50","118920","0.0-7.0-1.0-1.0-0.0-1.20","3","4","4","3","3","4","3","3","4","3","4","4","4","4","4","5","4","4","4","4","2","2","2","2","2","1","2","2","1","0","1","0","0","1","1","0","0","1","0","0","0","1","0","0","4","2","1","1","2","1","4","4","5","4","2","766374165644316674","应","15","","","","","","","","","","","","","","","","","","","","","","","","","","","","","","feedback_test","","","","","","","","","","","",""
"750","","f","psychophysics","51","120695","0.0-7.0-1.0-1.0-0.0-0.21","3","4","4","3","3","4","3","3","4","3","4","4","4","4","4","5","4","4","4","4","2","2","2","2","2","1","2","2","1","0","1","0","0","1","1","0","0","1","0","0","0","1","0","0","4","2","1","1","2","1","4","4","5","4","2","766374165644316674","应","15","","","","nonmatch","","","","","","","","","","","","","","key","f","16.664150943396173","747.8345776424576","416.9343220484498","f","true","nonmatch","img/trapezoid.png","菱形","梯形","ALT1_2","prac_ALT1_2","","","","","","","","","","","",""
"null","<span style='color:GreenYellow; font-size: 70px;'>正确! </span>","null","html-keyboard-response","52","121197","0.0-7.0-1.0-1.0-0.0-1.21","3","4","4","3","3","4","3","3","4","3","4","4","4","4","4","5","4","4","4","4","2","2","2","2","2","1","2","2","1","0","1","0","0","1","1","0","0","1","0","0","0","1","0","0","4","2","1","1","2","1","4","4","5","4","2","766374165644316674","应","15","","","","","","","","","","","","","","","","","","","","","","","","","","","","","","feedback_test","","","","","","","","","","","",""
"630","","f","psychophysics","53","122829","0.0-7.0-1.0-1.0-0.0-0.22","3","4","4","3","3","4","3","3","4","3","4","4","4","4","4","5","4","4","4","4","2","2","2","2","2","1","2","2","1","0","1","0","0","1","1","0","0","1","0","0","0","1","0","0","4","2","1","1","2","1","4","4","5","4","2","766374165644316674","应","15","","","","nonmatch","","","","","","","","","","","","","","key","f","16.664948453608247","747.8345776424576","416.9343220484498","f","true","nonmatch","img/diamond.png","梯形","菱形","ALT1_2","prac_ALT1_2","","","","","","","","","","","",""
"null","<span style='color:GreenYellow; font-size: 70px;'>正确! </span>","null","html-keyboard-response","54","123330","0.0-7.0-1.0-1.0-0.0-1.22","3","4","4","3","3","4","3","3","4","3","4","4","4","4","4","5","4","4","4","4","2","2","2","2","2","1","2","2","1","0","1","0","0","1","1","0","0","1","0","0","0","1","0","0","4","2","1","1","2","1","4","4","5","4","2","766374165644316674","应","15","","","","","","","","","","","","","","","","","","","","","","","","","","","","","","feedback_test","","","","","","","","","","","",""
"608","","j","psychophysics","55","124940","0.0-7.0-1.0-1.0-0.0-0.23","3","4","4","3","3","4","3","3","4","3","4","4","4","4","4","5","4","4","4","4","2","2","2","2","2","1","2","2","1","0","1","0","0","1","1","0","0","1","0","0","0","1","0","0","4","2","1","1","2","1","4","4","5","4","2","766374165644316674","应","15","","","","match","","","","","","","","","","","","","","key","j","16.664210526315852","747.8345776424576","416.9343220484498","j","true","match","img/circle.png","圆形","圆形","ALT1_2","prac_ALT1_2","","","","","","","","","","","",""
"null","<span style='color:GreenYellow; font-size: 70px;'>正确! </span>","null","html-keyboard-response","56","125444","0.0-7.0-1.0-1.0-0.0-1.23","3","4","4","3","3","4","3","3","4","3","4","4","4","4","4","5","4","4","4","4","2","2","2","2","2","1","2","2","1","0","1","0","0","1","1","0","0","1","0","0","0","1","0","0","4","2","1","1","2","1","4","4","5","4","2","766374165644316674","应","15","","","","","","","","","","","","","","","","","","","","","","","","","","","","","","feedback_test","","","","","","","","","","","",""
"559","","f","psychophysics","57","127015","0.0-7.0-1.0-1.0-0.0-0.24","3","4","4","3","3","4","3","3","4","3","4","4","4","4","4","5","4","4","4","4","2","2","2","2","2","1","2","2","1","0","1","0","0","1","1","0","0","1","0","0","0","1","0","0","4","2","1","1","2","1","4","4","5","4","2","766374165644316674","应","15","","","","nonmatch","","","","","","","","","","","","","","key","f","16.66451612903229","747.8345776424576","416.9343220484498","f","true","nonmatch","img/circle.png","五边","圆形","ALT1_2","prac_ALT1_2","","","","","","","","","","","",""
"null","<span style='color:GreenYellow; font-size: 70px;'>正确! </span>","null","html-keyboard-response","58","127518","0.0-7.0-1.0-1.0-0.0-1.24","3","4","4","3","3","4","3","3","4","3","4","4","4","4","4","5","4","4","4","4","2","2","2","2","2","1","2","2","1","0","1","0","0","1","1","0","0","1","0","0","0","1","0","0","4","2","1","1","2","1","4","4","5","4","2","766374165644316674","应","15","","","","","","","","","","","","","","","","","","","","","","","","","","","","","","feedback_test","","","","","","","","","","","",""
"698","","f","psychophysics","59","129219","0.0-7.0-1.0-1.0-0.0-0.25","3","4","4","3","3","4","3","3","4","3","4","4","4","4","4","5","4","4","4","4","2","2","2","2","2","1","2","2","1","0","1","0","0","1","1","0","0","1","0","0","0","1","0","0","4","2","1","1","2","1","4","4","5","4","2","766374165644316674","应","15","","","","nonmatch","","","","","","","","","","","","","","key","f","16.663366336633665","747.8345776424576","416.9343220484498","f","true","nonmatch","img/trapezoid.png","五边","梯形","ALT1_2","prac_ALT1_2","","","","","","","","","","","",""
"null","<span style='color:GreenYellow; font-size: 70px;'>正确! </span>","null","html-keyboard-response","60","129723","0.0-7.0-1.0-1.0-0.0-1.25","3","4","4","3","3","4","3","3","4","3","4","4","4","4","4","5","4","4","4","4","2","2","2","2","2","1","2","2","1","0","1","0","0","1","1","0","0","1","0","0","0","1","0","0","4","2","1","1","2","1","4","4","5","4","2","766374165644316674","应","15","","","","","","","","","","","","","","","","","","","","","","","","","","","","","","feedback_test","","","","","","","","","","","",""
"651","","f","psychophysics","61","131377","0.0-7.0-1.0-1.0-0.0-0.26","3","4","4","3","3","4","3","3","4","3","4","4","4","4","4","5","4","4","4","4","2","2","2","2","2","1","2","2","1","0","1","0","0","1","1","0","0","1","0","0","0","1","0","0","4","2","1","1","2","1","4","4","5","4","2","766374165644316674","应","15","","","","nonmatch","","","","","","","","","","","","","","key","f","16.6653061224491","747.8345776424576","416.9343220484498","f","true","nonmatch","img/circle.png","梯形","圆形","ALT1_2","prac_ALT1_2","","","","","","","","","","","",""
"null","<span style='color:GreenYellow; font-size: 70px;'>正确! </span>","null","html-keyboard-response","62","131878","0.0-7.0-1.0-1.0-0.0-1.26","3","4","4","3","3","4","3","3","4","3","4","4","4","4","4","5","4","4","4","4","2","2","2","2","2","1","2","2","1","0","1","0","0","1","1","0","0","1","0","0","0","1","0","0","4","2","1","1","2","1","4","4","5","4","2","766374165644316674","应","15","","","","","","","","","","","","","","","","","","","","","","","","","","","","","","feedback_test","","","","","","","","","","","",""
"704","","j","psychophysics","63","133610","0.0-7.0-1.0-1.0-0.0-0.27","3","4","4","3","3","4","3","3","4","3","4","4","4","4","4","5","4","4","4","4","2","2","2","2","2","1","2","2","1","0","1","0","0","1","1","0","0","1","0","0","0","1","0","0","4","2","1","1","2","1","4","4","5","4","2","766374165644316674","应","15","","","","match","","","","","","","","","","","","","","key","j","16.666019417475503","747.8345776424576","416.9343220484498","j","true","match","img/pentagon.png","五边","五边","ALT1_2","prac_ALT1_2","","","","","","","","","","","",""
"null","<span style='color:GreenYellow; font-size: 70px;'>正确! </span>","null","html-keyboard-response","64","134112","0.0-7.0-1.0-1.0-0.0-1.27","3","4","4","3","3","4","3","3","4","3","4","4","4","4","4","5","4","4","4","4","2","2","2","2","2","1","2","2","1","0","1","0","0","1","1","0","0","1","0","0","0","1","0","0","4","2","1","1","2","1","4","4","5","4","2","766374165644316674","应","15","","","","","","","","","","","","","","","","","","","","","","","","","","","","","","feedback_test","","","","","","","","","","","",""
"767","","f","psychophysics","65","135881","0.0-7.0-1.0-1.0-0.0-0.28","3","4","4","3","3","4","3","3","4","3","4","4","4","4","4","5","4","4","4","4","2","2","2","2","2","1","2","2","1","0","1","0","0","1","1","0","0","1","0","0","0","1","0","0","4","2","1","1","2","1","4","4","5","4","2","766374165644316674","应","15","","","","nonmatch","","","","","","","","","","","","","","key","f","16.635238095238208","747.8345776424576","416.9343220484498","j","false","match","img/pentagon.png","五边","五边","ALT1_2","prac_ALT1_2","","","","","","","","","","","",""
"null","<span style='color:red; font-size: 70px;'>错误! </span>","null","html-keyboard-response","66","136383","0.0-7.0-1.0-1.0-0.0-1.28","3","4","4","3","3","4","3","3","4","3","4","4","4","4","4","5","4","4","4","4","2","2","2","2","2","1","2","2","1","0","1","0","0","1","1","0","0","1","0","0","0","1","0","0","4","2","1","1","2","1","4","4","5","4","2","766374165644316674","应","15","","","","","","","","","","","","","","","","","","","","","","","","","","","","","","feedback_test","","","","","","","","","","","",""
"652","","j","psychophysics","67","138036","0.0-7.0-1.0-1.0-0.0-0.29","3","4","4","3","3","4","3","3","4","3","4","4","4","4","4","5","4","4","4","4","2","2","2","2","2","1","2","2","1","0","1","0","0","1","1","0","0","1","0","0","0","1","0","0","4","2","1","1","2","1","4","4","5","4","2","766374165644316674","应","15","","","","match","","","","","","","","","","","","","","key","j","16.65510204081615","747.8345776424576","416.9343220484498","j","true","match","img/circle.png","圆形","圆形","ALT1_2","prac_ALT1_2","","","","","","","","","","","",""
"null","<span style='color:GreenYellow; font-size: 70px;'>正确! </span>","null","html-keyboard-response","68","138538","0.0-7.0-1.0-1.0-0.0-1.29","3","4","4","3","3","4","3","3","4","3","4","4","4","4","4","5","4","4","4","4","2","2","2","2","2","1","2","2","1","0","1","0","0","1","1","0","0","1","0","0","0","1","0","0","4","2","1","1","2","1","4","4","5","4","2","766374165644316674","应","15","","","","","","","","","","","","","","","","","","","","","","","","","","","","","","feedback_test","","","","","","","","","","","",""
"785","","f","psychophysics","69","140351","0.0-7.0-1.0-1.0-0.0-0.30","3","4","4","3","3","4","3","3","4","3","4","4","4","4","4","5","4","4","4","4","2","2","2","2","2","1","2","2","1","0","1","0","0","1","1","0","0","1","0","0","0","1","0","0","4","2","1","1","2","1","4","4","5","4","2","766374165644316674","应","15","","","","nonmatch","","","","","","","","","","","","","","key","f","16.663888888888998","747.8345776424576","416.9343220484498","f","true","nonmatch","img/diamond.png","梯形","菱形","ALT1_2","prac_ALT1_2","","","","","","","","","","","",""
"null","<span style='color:GreenYellow; font-size: 70px;'>正确! </span>","null","html-keyboard-response","70","140853","0.0-7.0-1.0-1.0-0.0-1.30","3","4","4","3","3","4","3","3","4","3","4","4","4","4","4","5","4","4","4","4","2","2","2","2","2","1","2","2","1","0","1","0","0","1","1","0","0","1","0","0","0","1","0","0","4","2","1","1","2","1","4","4","5","4","2","766374165644316674","应","15","","","","","","","","","","","","","","","","","","","","","","","","","","","","","","feedback_test","","","","","","","","","","","",""
"573","","j","psychophysics","71","142427","0.0-7.0-1.0-1.0-0.0-0.31","3","4","4","3","3","4","3","3","4","3","4","4","4","4","4","5","4","4","4","4","2","2","2","2","2","1","2","2","1","0","1","0","0","1","1","0","0","1","0","0","0","1","0","0","4","2","1","1","2","1","4","4","5","4","2","766374165644316674","应","15","","","","match","","","","","","","","","","","","","","key","j","16.661702127659698","747.8345776424576","416.9343220484498","j","true","match","img/trapezoid.png","梯形","梯形","ALT1_2","prac_ALT1_2","","","","","","","","","","","",""
"null","<span style='color:GreenYellow; font-size: 70px;'>正确! </span>","null","html-keyboard-response","72","142928","0.0-7.0-1.0-1.0-0.0-1.31","3","4","4","3","3","4","3","3","4","3","4","4","4","4","4","5","4","4","4","4","2","2","2","2","2","1","2","2","1","0","1","0","0","1","1","0","0","1","0","0","0","1","0","0","4","2","1","1","2","1","4","4","5","4","2","766374165644316674","应","15","","","","","","","","","","","","","","","","","","","","","","","","","","","","","","feedback_test","","","","","","","","","","","",""
"807","","f","psychophysics","73","144737","0.0-7.0-1.0-1.0-0.0-0.32","3","4","4","3","3","4","3","3","4","3","4","4","4","4","4","5","4","4","4","4","2","2","2","2","2","1","2","2","1","0","1","0","0","1","1","0","0","1","0","0","0","1","0","0","4","2","1","1","2","1","4","4","5","4","2","766374165644316674","应","15","","","","nonmatch","","","","","","","","","","","","","","key","f","16.664485981308466","747.8345776424576","416.9343220484498","f","true","nonmatch","img/pentagon.png","菱形","五边","ALT1_2","prac_ALT1_2","","","","","","","","","","","",""
"null","<span style='color:GreenYellow; font-size: 70px;'>正确! </span>","null","html-keyboard-response","74","145240","0.0-7.0-1.0-1.0-0.0-1.32","3","4","4","3","3","4","3","3","4","3","4","4","4","4","4","5","4","4","4","4","2","2","2","2","2","1","2","2","1","0","1","0","0","1","1","0","0","1","0","0","0","1","0","0","4","2","1","1","2","1","4","4","5","4","2","766374165644316674","应","15","","","","","","","","","","","","","","","","","","","","","","","","","","","","","","feedback_test","","","","","","","","","","","",""
"720","","f","psychophysics","75","146976","0.0-7.0-1.0-1.0-0.0-0.33","3","4","4","3","3","4","3","3","4","3","4","4","4","4","4","5","4","4","4","4","2","2","2","2","2","1","2","2","1","0","1","0","0","1","1","0","0","1","0","0","0","1","0","0","4","2","1","1","2","1","4","4","5","4","2","766374165644316674","应","15","","","","nonmatch","","","","","","","","","","","","","","key","f","16.66504854368932","747.8345776424576","416.9343220484498","f","true","nonmatch","img/pentagon.png","梯形","五边","ALT1_2","prac_ALT1_2","","","","","","","","","","","",""
"null","<span style='color:GreenYellow; font-size: 70px;'>正确! </span>","null","html-keyboard-response","76","147478","0.0-7.0-1.0-1.0-0.0-1.33","3","4","4","3","3","4","3","3","4","3","4","4","4","4","4","5","4","4","4","4","2","2","2","2","2","1","2","2","1","0","1","0","0","1","1","0","0","1","0","0","0","1","0","0","4","2","1","1","2","1","4","4","5","4","2","766374165644316674","应","15","","","","","","","","","","","","","","","","","","","","","","","","","","","","","","feedback_test","","","","","","","","","","","",""
"735","","f","psychophysics","77","149214","0.0-7.0-1.0-1.0-0.0-0.34","3","4","4","3","3","4","3","3","4","3","4","4","4","4","4","5","4","4","4","4","2","2","2","2","2","1","2","2","1","0","1","0","0","1","1","0","0","1","0","0","0","1","0","0","4","2","1","1","2","1","4","4","5","4","2","766374165644316674","应","15","","","","nonmatch","","","","","","","","","","","","","","key","f","16.66504854368932","747.8345776424576","416.9343220484498","f","true","nonmatch","img/circle.png","菱形","圆形","ALT1_2","prac_ALT1_2","","","","","","","","","","","",""
"null","<span style='color:GreenYellow; font-size: 70px;'>正确! </span>","null","html-keyboard-response","78","149727","0.0-7.0-1.0-1.0-0.0-1.34","3","4","4","3","3","4","3","3","4","3","4","4","4","4","4","5","4","4","4","4","2","2","2","2","2","1","2","2","1","0","1","0","0","1","1","0","0","1","0","0","0","1","0","0","4","2","1","1","2","1","4","4","5","4","2","766374165644316674","应","15","","","","","","","","","","","","","","","","","","","","","","","","","","","","","","feedback_test","","","","","","","","","","","",""
"646","","f","psychophysics","79","151377","0.0-7.0-1.0-1.0-0.0-0.35","3","4","4","3","3","4","3","3","4","3","4","4","4","4","4","5","4","4","4","4","2","2","2","2","2","1","2","2","1","0","1","0","0","1","1","0","0","1","0","0","0","1","0","0","4","2","1","1","2","1","4","4","5","4","2","766374165644316674","应","15","","","","nonmatch","","","","","","","","","","","","","","key","f","16.664285714285775","747.8345776424576","416.9343220484498","f","true","nonmatch","img/diamond.png","圆形","菱形","ALT1_2","prac_ALT1_2","","","","","","","","","","","",""
"null","<span style='color:GreenYellow; font-size: 70px;'>正确! </span>","null","html-keyboard-response","80","151878","0.0-7.0-1.0-1.0-0.0-1.35","3","4","4","3","3","4","3","3","4","3","4","4","4","4","4","5","4","4","4","4","2","2","2","2","2","1","2","2","1","0","1","0","0","1","1","0","0","1","0","0","0","1","0","0","4","2","1","1","2","1","4","4","5","4","2","766374165644316674","应","15","","","","","","","","","","","","","","","","","","","","","","","","","","","","","","feedback_test","","","","","","","","","","","",""
"638","","j","psychophysics","81","153525","0.0-7.0-1.0-1.0-0.0-0.36","3","4","4","3","3","4","3","3","4","3","4","4","4","4","4","5","4","4","4","4","2","2","2","2","2","1","2","2","1","0","1","0","0","1","1","0","0","1","0","0","0","1","0","0","4","2","1","1","2","1","4","4","5","4","2","766374165644316674","应","15","","","","match","","","","","","","","","","","","","","key","j","16.664285714285477","747.8345776424576","416.9343220484498","f","false","nonmatch","img/trapezoid.png","菱形","梯形","ALT1_2","prac_ALT1_2","","","","","","","","","","","",""
"null","<span style='color:red; font-size: 70px;'>错误! </span>","null","html-keyboard-response","82","154026","0.0-7.0-1.0-1.0-0.0-1.36","3","4","4","3","3","4","3","3","4","3","4","4","4","4","4","5","4","4","4","4","2","2","2","2","2","1","2","2","1","0","1","0","0","1","1","0","0","1","0","0","0","1","0","0","4","2","1","1","2","1","4","4","5","4","2","766374165644316674","应","15","","","","","","","","","","","","","","","","","","","","","","","","","","","","","","feedback_test","","","","","","","","","","","",""
"826","","j","psychophysics","83","155854","0.0-7.0-1.0-1.0-0.0-0.37","3","4","4","3","3","4","3","3","4","3","4","4","4","4","4","5","4","4","4","4","2","2","2","2","2","1","2","2","1","0","1","0","0","1","1","0","0","1","0","0","0","1","0","0","4","2","1","1","2","1","4","4","5","4","2","766374165644316674","应","15","","","","match","","","","","","","","","","","","","","key","j","16.662962962963018","747.8345776424576","416.9343220484498","j","true","match","img/trapezoid.png","梯形","梯形","ALT1_2","prac_ALT1_2","","","","","","","","","","","",""
"null","<span style='color:GreenYellow; font-size: 70px;'>正确! </span>","null","html-keyboard-response","84","156356","0.0-7.0-1.0-1.0-0.0-1.37","3","4","4","3","3","4","3","3","4","3","4","4","4","4","4","5","4","4","4","4","2","2","2","2","2","1","2","2","1","0","1","0","0","1","1","0","0","1","0","0","0","1","0","0","4","2","1","1","2","1","4","4","5","4","2","766374165644316674","应","15","","","","","","","","","","","","","","","","","","","","","","","","","","","","","","feedback_test","","","","","","","","","","","",""
"580","","f","psychophysics","85","157937","0.0-7.0-1.0-1.0-0.0-0.38","3","4","4","3","3","4","3","3","4","3","4","4","4","4","4","5","4","4","4","4","2","2","2","2","2","1","2","2","1","0","1","0","0","1","1","0","0","1","0","0","0","1","0","0","4","2","1","1","2","1","4","4","5","4","2","766374165644316674","应","15","","","","nonmatch","","","","","","","","","","","","","","key","f","16.66236559139791","747.8345776424576","416.9343220484498","f","true","nonmatch","img/diamond.png","五边","菱形","ALT1_2","prac_ALT1_2","","","","","","","","","","","",""
"null","<span style='color:GreenYellow; font-size: 70px;'>正确! </span>","null","html-keyboard-response","86","158440","0.0-7.0-1.0-1.0-0.0-1.38","3","4","4","3","3","4","3","3","4","3","4","4","4","4","4","5","4","4","4","4","2","2","2","2","2","1","2","2","1","0","1","0","0","1","1","0","0","1","0","0","0","1","0","0","4","2","1","1","2","1","4","4","5","4","2","766374165644316674","应","15","","","","","","","","","","","","","","","","","","","","","","","","","","","","","","feedback_test","","","","","","","","","","","",""
"730","","j","psychophysics","87","160186","0.0-7.0-1.0-1.0-0.0-0.39","3","4","4","3","3","4","3","3","4","3","4","4","4","4","4","5","4","4","4","4","2","2","2","2","2","1","2","2","1","0","1","0","0","1","1","0","0","1","0","0","0","1","0","0","4","2","1","1","2","1","4","4","5","4","2","766374165644316674","应","15","","","","match","","","","","","","","","","","","","","key","j","16.66310679611639","747.8345776424576","416.9343220484498","j","true","match","img/pentagon.png","五边","五边","ALT1_2","prac_ALT1_2","","","","","","","","","","","",""
"null","<span style='color:GreenYellow; font-size: 70px;'>正确! </span>","null","html-keyboard-response","88","160688","0.0-7.0-1.0-1.0-0.0-1.39","3","4","4","3","3","4","3","3","4","3","4","4","4","4","4","5","4","4","4","4","2","2","2","2","2","1","2","2","1","0","1","0","0","1","1","0","0","1","0","0","0","1","0","0","4","2","1","1","2","1","4","4","5","4","2","766374165644316674","应","15","","","","","","","","","","","","","","","","","","","","","","","","","","","","","","feedback_test","","","","","","","","","","","",""
"577","","f","psychophysics","89","162267","0.0-7.0-1.0-1.0-0.0-0.40","3","4","4","3","3","4","3","3","4","3","4","4","4","4","4","5","4","4","4","4","2","2","2","2","2","1","2","2","1","0","1","0","0","1","1","0","0","1","0","0","0","1","0","0","4","2","1","1","2","1","4","4","5","4","2","766374165644316674","应","15","","","","nonmatch","","","","","","","","","","","","","","key","f","16.663440860214866","747.8345776424576","416.9343220484498","f","true","nonmatch","img/trapezoid.png","圆形","梯形","ALT1_2","prac_ALT1_2","","","","","","","","","","","",""
"null","<span style='color:GreenYellow; font-size: 70px;'>正确! </span>","null","html-keyboard-response","90","162768","0.0-7.0-1.0-1.0-0.0-1.40","3","4","4","3","3","4","3","3","4","3","4","4","4","4","4","5","4","4","4","4","2","2","2","2","2","1","2","2","1","0","1","0","0","1","1","0","0","1","0","0","0","1","0","0","4","2","1","1","2","1","4","4","5","4","2","766374165644316674","应","15","","","","","","","","","","","","","","","","","","","","","","","","","","","","","","feedback_test","","","","","","","","","","","",""
"754","","j","psychophysics","91","164524","0.0-7.0-1.0-1.0-0.0-0.41","3","4","4","3","3","4","3","3","4","3","4","4","4","4","4","5","4","4","4","4","2","2","2","2","2","1","2","2","1","0","1","0","0","1","1","0","0","1","0","0","0","1","0","0","4","2","1","1","2","1","4","4","5","4","2","766374165644316674","应","15","","","","match","","","","","","","","","","","","","","key","j","16.663809523809636","747.8345776424576","416.9343220484498","j","true","match","img/circle.png","圆形","圆形","ALT1_2","prac_ALT1_2","","","","","","","","","","","",""
"null","<span style='color:GreenYellow; font-size: 70px;'>正确! </span>","null","html-keyboard-response","92","165026","0.0-7.0-1.0-1.0-0.0-1.41","3","4","4","3","3","4","3","3","4","3","4","4","4","4","4","5","4","4","4","4","2","2","2","2","2","1","2","2","1","0","1","0","0","1","1","0","0","1","0","0","0","1","0","0","4","2","1","1","2","1","4","4","5","4","2","766374165644316674","应","15","","","","","","","","","","","","","","","","","","","","","","","","","","","","","","feedback_test","","","","","","","","","","","",""
"697","","j","psychophysics","93","166752","0.0-7.0-1.0-1.0-0.0-0.42","3","4","4","3","3","4","3","3","4","3","4","4","4","4","4","5","4","4","4","4","2","2","2","2","2","1","2","2","1","0","1","0","0","1","1","0","0","1","0","0","0","1","0","0","4","2","1","1","2","1","4","4","5","4","2","766374165644316674","应","15","","","","match","","","","","","","","","","","","","","key","j","16.66470588235311","747.8345776424576","416.9343220484498","j","true","match","img/diamond.png","菱形","菱形","ALT1_2","prac_ALT1_2","","","","","","","","","","","",""
"null","<span style='color:GreenYellow; font-size: 70px;'>正确! </span>","null","html-keyboard-response","94","167266","0.0-7.0-1.0-1.0-0.0-1.42","3","4","4","3","3","4","3","3","4","3","4","4","4","4","4","5","4","4","4","4","2","2","2","2","2","1","2","2","1","0","1","0","0","1","1","0","0","1","0","0","0","1","0","0","4","2","1","1","2","1","4","4","5","4","2","766374165644316674","应","15","","","","","","","","","","","","","","","","","","","","","","","","","","","","","","feedback_test","","","","","","","","","","","",""
"680","","f","psychophysics","95","168948","0.0-7.0-1.0-1.0-0.0-0.43","3","4","4","3","3","4","3","3","4","3","4","4","4","4","4","5","4","4","4","4","2","2","2","2","2","1","2","2","1","0","1","0","0","1","1","0","0","1","0","0","0","1","0","0","4","2","1","1","2","1","4","4","5","4","2","766374165644316674","应","15","","","","nonmatch","","","","","","","","","","","","","","key","f","16.66399999999994","747.8345776424576","416.9343220484498","f","true","nonmatch","img/pentagon.png","圆形","五边","ALT1_2","prac_ALT1_2","","","","","","","","","","","",""
"null","<span style='color:GreenYellow; font-size: 70px;'>正确! </span>","null","html-keyboard-response","96","169449","0.0-7.0-1.0-1.0-0.0-1.43","3","4","4","3","3","4","3","3","4","3","4","4","4","4","4","5","4","4","4","4","2","2","2","2","2","1","2","2","1","0","1","0","0","1","1","0","0","1","0","0","0","1","0","0","4","2","1","1","2","1","4","4","5","4","2","766374165644316674","应","15","","","","","","","","","","","","","","","","","","","","","","","","","","","","","","feedback_test","","","","","","","","","","","",""
"738","","f","psychophysics","97","171189","0.0-7.0-1.0-1.0-0.0-0.44","3","4","4","3","3","4","3","3","4","3","4","4","4","4","4","5","4","4","4","4","2","2","2","2","2","1","2","2","1","0","1","0","0","1","1","0","0","1","0","0","0","1","0","0","4","2","1","1","2","1","4","4","5","4","2","766374165644316674","应","15","","","","nonmatch","","","","","","","","","","","","","","key","f","16.665384615384728","747.8345776424576","416.9343220484498","j","false","match","img/diamond.png","菱形","菱形","ALT1_2","prac_ALT1_2","","","","","","","","","","","",""
"null","<span style='color:red; font-size: 70px;'>错误! </span>","null","html-keyboard-response","98","171690","0.0-7.0-1.0-1.0-0.0-1.44","3","4","4","3","3","4","3","3","4","3","4","4","4","4","4","5","4","4","4","4","2","2","2","2","2","1","2","2","1","0","1","0","0","1","1","0","0","1","0","0","0","1","0","0","4","2","1","1","2","1","4","4","5","4","2","766374165644316674","应","15","","","","","","","","","","","","","","","","","","","","","","","","","","","","","","feedback_test","","","","","","","","","","","",""
"559","","j","psychophysics","99","173274","0.0-7.0-1.0-1.0-0.0-0.45","3","4","4","3","3","4","3","3","4","3","4","4","4","4","4","5","4","4","4","4","2","2","2","2","2","1","2","2","1","0","1","0","0","1","1","0","0","1","0","0","0","1","0","0","4","2","1","1","2","1","4","4","5","4","2","766374165644316674","应","15","","","","match","","","","","","","","","","","","","","key","j","16.664893617021278","747.8345776424576","416.9343220484498","j","true","match","img/trapezoid.png","梯形","梯形","ALT1_2","prac_ALT1_2","","","","","","","","","","","",""
"null","<span style='color:GreenYellow; font-size: 70px;'>正确! </span>","null","html-keyboard-response","100","173782","0.0-7.0-1.0-1.0-0.0-1.45","3","4","4","3","3","4","3","3","4","3","4","4","4","4","4","5","4","4","4","4","2","2","2","2","2","1","2","2","1","0","1","0","0","1","1","0","0","1","0","0","0","1","0","0","4","2","1","1","2","1","4","4","5","4","2","766374165644316674","应","15","","","","","","","","","","","","","","","","","","","","","","","","","","","","","","feedback_test","","","","","","","","","","","",""
"597","","j","psychophysics","101","175381","0.0-7.0-1.0-1.0-0.0-0.46","3","4","4","3","3","4","3","3","4","3","4","4","4","4","4","5","4","4","4","4","2","2","2","2","2","1","2","2","1","0","1","0","0","1","1","0","0","1","0","0","0","1","0","0","4","2","1","1","2","1","4","4","5","4","2","766374165644316674","应","15","","","","match","","","","","","","","","","","","","","key","j","16.664210526315543","747.8345776424576","416.9343220484498","j","true","match","img/circle.png","圆形","圆形","ALT1_2","prac_ALT1_2","","","","","","","","","","","",""
"null","<span style='color:GreenYellow; font-size: 70px;'>正确! </span>","null","html-keyboard-response","102","175884","0.0-7.0-1.0-1.0-0.0-1.46","3","4","4","3","3","4","3","3","4","3","4","4","4","4","4","5","4","4","4","4","2","2","2","2","2","1","2","2","1","0","1","0","0","1","1","0","0","1","0","0","0","1","0","0","4","2","1","1","2","1","4","4","5","4","2","766374165644316674","应","15","","","","","","","","","","","","","","","","","","","","","","","","","","","","","","feedback_test","","","","","","","","","","","",""
"682","","j","psychophysics","103","177568","0.0-7.0-1.0-1.0-0.0-0.47","3","4","4","3","3","4","3","3","4","3","4","4","4","4","4","5","4","4","4","4","2","2","2","2","2","1","2","2","1","0","1","0","0","1","1","0","0","1","0","0","0","1","0","0","4","2","1","1","2","1","4","4","5","4","2","766374165644316674","应","15","","","","match","","","","","","","","","","","","","","key","j","16.66399999999994","747.8345776424576","416.9343220484498","j","true","match","img/diamond.png","菱形","菱形","ALT1_2","prac_ALT1_2","","","","","","","","","","","",""
"null","<span style='color:GreenYellow; font-size: 70px;'>正确! </span>","null","html-keyboard-response","104","178069","0.0-7.0-1.0-1.0-0.0-1.47","3","4","4","3","3","4","3","3","4","3","4","4","4","4","4","5","4","4","4","4","2","2","2","2","2","1","2","2","1","0","1","0","0","1","1","0","0","1","0","0","0","1","0","0","4","2","1","1","2","1","4","4","5","4","2","766374165644316674","应","15","","","","","","","","","","","","","","","","","","","","","","","","","","","","","","feedback_test","","","","","","","","","","","",""
"11083","<style>.context{color:white; font-size: 35px; line-height:40px}</style>                          <div><p class='context'>您正确回答了92% 的试次。</p><p class='context'>您的平均反应时为688毫秒。</p><p class='context'>恭喜您完成练习。按空格键进入正式实验。</p><p class='footer' style='font-size: 35px; line-height:40px;'>请在进入正式实验实验之前将您的<span style='color: lightgreen;'>食指</span>放在电脑键盘的相应键位上进行按键。</p>"," ","html-keyboard-response","105","189157","0.0-7.0-1.0-2.0","3","4","4","3","3","4","3","3","4","3","4","4","4","4","4","5","4","4","4","4","2","2","2","2","2","1","2","2","1","0","1","0","0","1","1","0","0","1","0","0","0","1","0","0","4","2","1","1","2","1","4","4","5","4","2","766374165644316674","应","15","","","","","","","","","","","","","","","","","","","","","","","","","","","","","","","","","","","","","","","","","",""
"870","
  <p style='color: white; font-size: 22px'>请您将手指放在按键上，准备进入正式的匹配任务。</p>
  <p> <div style = ""color: green""><按空格键进入下一阶段的匹配任务></div></p>
  "," ","html-keyboard-response","106","190034","0.0-7.0-1.0-3.0","3","4","4","3","3","4","3","3","4","3","4","4","4","4","4","5","4","4","4","4","2","2","2","2","2","1","2","2","1","0","1","0","0","1","1","0","0","1","0","0","0","1","0","0","4","2","1","1","2","1","4","4","5","4","2","766374165644316674","应","15","","","","","","","","","","","","","","","","","","","","","","","","","","","","","","","","","","","","","","","","","",""
"null","","null","psychophysics","107","192238","0.0-7.0-1.0-4.0-0.0-0.0","3","4","4","3","3","4","3","3","4","3","4","4","4","4","4","5","4","4","4","4","2","2","2","2","2","1","2","2","1","0","1","0","0","1","1","0","0","1","0","0","0","1","0","0","4","2","1","1","2","1","4","4","5","4","2","766374165644316674","应","15","","","","null","","","","","","","","","","","","","","key","null","16.66488549618303","747.8345776424576","416.9343220484498","f","false","nonmatch","img/pentagon.png","菱形","五边","ALT1","formal_ALT1_2","","","","","","","","","","","",""
"null","<span class='add_' style='color:yellow; font-size: 70px;'> 太慢! </span>","null","html-keyboard-response","108","192740","0.0-7.0-1.0-4.0-0.0-1.0","3","4","4","3","3","4","3","3","4","3","4","4","4","4","4","5","4","4","4","4","2","2","2","2","2","1","2","2","1","0","1","0","0","1","1","0","0","1","0","0","0","1","0","0","4","2","1","1","2","1","4","4","5","4","2","766374165644316674","应","15","","","","","","","","","","","","","","","","","","","","","","","","","","","","","","feedback_test","","","","","","","","","","","",""
"543","","j","psychophysics","109","194286","0.0-7.0-1.0-4.0-0.0-0.1","3","4","4","3","3","4","3","3","4","3","4","4","4","4","4","5","4","4","4","4","2","2","2","2","2","1","2","2","1","0","1","0","0","1","1","0","0","1","0","0","0","1","0","0","4","2","1","1","2","1","4","4","5","4","2","766374165644316674","应","15","","","","match","","","","","","","","","","","","","","key","j","16.665217391304473","747.8345776424576","416.9343220484498","j","true","match","img/circle.png","圆形","圆形","ALT1","formal_ALT1_2","","","","","","","","","","","",""
"null","<span style='color:GreenYellow; font-size: 70px;'>正确! </span>","null","html-keyboard-response","110","194787","0.0-7.0-1.0-4.0-0.0-1.1","3","4","4","3","3","4","3","3","4","3","4","4","4","4","4","5","4","4","4","4","2","2","2","2","2","1","2","2","1","0","1","0","0","1","1","0","0","1","0","0","0","1","0","0","4","2","1","1","2","1","4","4","5","4","2","766374165644316674","应","15","","","","","","","","","","","","","","","","","","","","","","","","","","","","","","feedback_test","","","","","","","","","","","",""
"657","","f","psychophysics","111","196445","0.0-7.0-1.0-4.0-0.0-0.2","3","4","4","3","3","4","3","3","4","3","4","4","4","4","4","5","4","4","4","4","2","2","2","2","2","1","2","2","1","0","1","0","0","1","1","0","0","1","0","0","0","1","0","0","4","2","1","1","2","1","4","4","5","4","2","766374165644316674","应","15","","","","nonmatch","","","","","","","","","","","","","","key","f","16.6653061224488","747.8345776424576","416.9343220484498","f","true","nonmatch","img/pentagon.png","梯形","五边","ALT1","formal_ALT1_2","","","","","","","","","","","",""
"null","<span style='color:GreenYellow; font-size: 70px;'>正确! </span>","null","html-keyboard-response","112","196948","0.0-7.0-1.0-4.0-0.0-1.2","3","4","4","3","3","4","3","3","4","3","4","4","4","4","4","5","4","4","4","4","2","2","2","2","2","1","2","2","1","0","1","0","0","1","1","0","0","1","0","0","0","1","0","0","4","2","1","1","2","1","4","4","5","4","2","766374165644316674","应","15","","","","","","","","","","","","","","","","","","","","","","","","","","","","","","feedback_test","","","","","","","","","","","",""
"850","","j","psychophysics","113","198799","0.0-7.0-1.0-4.0-0.0-0.3","3","4","4","3","3","4","3","3","4","3","4","4","4","4","4","5","4","4","4","4","2","2","2","2","2","1","2","2","1","0","1","0","0","1","1","0","0","1","0","0","0","1","0","0","4","2","1","1","2","1","4","4","5","4","2","766374165644316674","应","15","","","","match","","","","","","","","","","","","","","key","j","16.66545454545465","747.8345776424576","416.9343220484498","j","true","match","img/pentagon.png","五边","五边","ALT1","formal_ALT1_2","","","","","","","","","","","",""
"null","<span style='color:GreenYellow; font-size: 70px;'>正确! </span>","null","html-keyboard-response","114","199326","0.0-7.0-1.0-4.0-0.0-1.3","3","4","4","3","3","4","3","3","4","3","4","4","4","4","4","5","4","4","4","4","2","2","2","2","2","1","2","2","1","0","1","0","0","1","1","0","0","1","0","0","0","1","0","0","4","2","1","1","2","1","4","4","5","4","2","766374165644316674","应","15","","","","","","","","","","","","","","","","","","","","","","","","","","","","","","feedback_test","","","","","","","","","","","",""
"767","","j","psychophysics","115","201114","0.0-7.0-1.0-4.0-0.0-0.4","3","4","4","3","3","4","3","3","4","3","4","4","4","4","4","5","4","4","4","4","2","2","2","2","2","1","2","2","1","0","1","0","0","1","1","0","0","1","0","0","0","1","0","0","4","2","1","1","2","1","4","4","5","4","2","766374165644316674","应","15","","","","match","","","","","","","","","","","","","","key","j","16.664150943396173","747.8345776424576","416.9343220484498","j","true","match","img/diamond.png","菱形","菱形","ALT1","formal_ALT1_2","","","","","","","","","","","",""
"null","<span style='color:GreenYellow; font-size: 70px;'>正确! </span>","null","html-keyboard-response","116","201616","0.0-7.0-1.0-4.0-0.0-1.4","3","4","4","3","3","4","3","3","4","3","4","4","4","4","4","5","4","4","4","4","2","2","2","2","2","1","2","2","1","0","1","0","0","1","1","0","0","1","0","0","0","1","0","0","4","2","1","1","2","1","4","4","5","4","2","766374165644316674","应","15","","","","","","","","","","","","","","","","","","","","","","","","","","","","","","feedback_test","","","","","","","","","","","",""
"611","","f","psychophysics","117","203229","0.0-7.0-1.0-4.0-0.0-0.5","3","4","4","3","3","4","3","3","4","3","4","4","4","4","4","5","4","4","4","4","2","2","2","2","2","1","2","2","1","0","1","0","0","1","1","0","0","1","0","0","0","1","0","0","4","2","1","1","2","1","4","4","5","4","2","766374165644316674","应","15","","","","nonmatch","","","","","","","","","","","","","","key","f","16.66631578947356","747.8345776424576","416.9343220484498","f","true","nonmatch","img/pentagon.png","圆形","五边","ALT1","formal_ALT1_2","","","","","","","","","","","",""
"null","<span style='color:GreenYellow; font-size: 70px;'>正确! </span>","null","html-keyboard-response","118","203731","0.0-7.0-1.0-4.0-0.0-1.5","3","4","4","3","3","4","3","3","4","3","4","4","4","4","4","5","4","4","4","4","2","2","2","2","2","1","2","2","1","0","1","0","0","1","1","0","0","1","0","0","0","1","0","0","4","2","1","1","2","1","4","4","5","4","2","766374165644316674","应","15","","","","","","","","","","","","","","","","","","","","","","","","","","","","","","feedback_test","","","","","","","","","","","",""
"507","","j","psychophysics","119","205240","0.0-7.0-1.0-4.0-0.0-0.6","3","4","4","3","3","4","3","3","4","3","4","4","4","4","4","5","4","4","4","4","2","2","2","2","2","1","2","2","1","0","1","0","0","1","1","0","0","1","0","0","0","1","0","0","4","2","1","1","2","1","4","4","5","4","2","766374165644316674","应","15","","","","match","","","","","","","","","","","","","","key","j","16.665555555555816","747.8345776424576","416.9343220484498","j","true","match","img/circle.png","圆形","圆形","ALT1","formal_ALT1_2","","","","","","","","","","","",""
"null","<span style='color:GreenYellow; font-size: 70px;'>正确! </span>","null","html-keyboard-response","120","205741","0.0-7.0-1.0-4.0-0.0-1.6","3","4","4","3","3","4","3","3","4","3","4","4","4","4","4","5","4","4","4","4","2","2","2","2","2","1","2","2","1","0","1","0","0","1","1","0","0","1","0","0","0","1","0","0","4","2","1","1","2","1","4","4","5","4","2","766374165644316674","应","15","","","","","","","","","","","","","","","","","","","","","","","","","","","","","","feedback_test","","","","","","","","","","","",""
"546","","j","psychophysics","121","207311","0.0-7.0-1.0-4.0-0.0-0.7","3","4","4","3","3","4","3","3","4","3","4","4","4","4","4","5","4","4","4","4","2","2","2","2","2","1","2","2","1","0","1","0","0","1","1","0","0","1","0","0","0","1","0","0","4","2","1","1","2","1","4","4","5","4","2","766374165644316674","应","15","","","","match","","","","","","","","","","","","","","key","j","16.6655913978494","747.8345776424576","416.9343220484498","j","true","match","img/trapezoid.png","梯形","梯形","ALT1","formal_ALT1_2","","","","","","","","","","","",""
"null","<span style='color:GreenYellow; font-size: 70px;'>正确! </span>","null","html-keyboard-response","122","207814","0.0-7.0-1.0-4.0-0.0-1.7","3","4","4","3","3","4","3","3","4","3","4","4","4","4","4","5","4","4","4","4","2","2","2","2","2","1","2","2","1","0","1","0","0","1","1","0","0","1","0","0","0","1","0","0","4","2","1","1","2","1","4","4","5","4","2","766374165644316674","应","15","","","","","","","","","","","","","","","","","","","","","","","","","","","","","","feedback_test","","","","","","","","","","","",""
"606","","f","psychophysics","123","209422","0.0-7.0-1.0-4.0-0.0-0.8","3","4","4","3","3","4","3","3","4","3","4","4","4","4","4","5","4","4","4","4","2","2","2","2","2","1","2","2","1","0","1","0","0","1","1","0","0","1","0","0","0","1","0","0","4","2","1","1","2","1","4","4","5","4","2","766374165644316674","应","15","","","","nonmatch","","","","","","","","","","","","","","key","f","16.65473684210508","747.8345776424576","416.9343220484498","f","true","nonmatch","img/circle.png","梯形","圆形","ALT1","formal_ALT1_2","","","","","","","","","","","",""
"null","<span style='color:GreenYellow; font-size: 70px;'>正确! </span>","null","html-keyboard-response","124","209924","0.0-7.0-1.0-4.0-0.0-1.8","3","4","4","3","3","4","3","3","4","3","4","4","4","4","4","5","4","4","4","4","2","2","2","2","2","1","2","2","1","0","1","0","0","1","1","0","0","1","0","0","0","1","0","0","4","2","1","1","2","1","4","4","5","4","2","766374165644316674","应","15","","","","","","","","","","","","","","","","","","","","","","","","","","","","","","feedback_test","","","","","","","","","","","",""
"575","","f","psychophysics","125","211501","0.0-7.0-1.0-4.0-0.0-0.9","3","4","4","3","3","4","3","3","4","3","4","4","4","4","4","5","4","4","4","4","2","2","2","2","2","1","2","2","1","0","1","0","0","1","1","0","0","1","0","0","0","1","0","0","4","2","1","1","2","1","4","4","5","4","2","766374165644316674","应","15","","","","nonmatch","","","","","","","","","","","","","","key","f","16.664516129032133","747.8345776424576","416.9343220484498","f","true","nonmatch","img/circle.png","菱形","圆形","ALT1","formal_ALT1_2","","","","","","","","","","","",""
"null","<span style='color:GreenYellow; font-size: 70px;'>正确! </span>","null","html-keyboard-response","126","212002","0.0-7.0-1.0-4.0-0.0-1.9","3","4","4","3","3","4","3","3","4","3","4","4","4","4","4","5","4","4","4","4","2","2","2","2","2","1","2","2","1","0","1","0","0","1","1","0","0","1","0","0","0","1","0","0","4","2","1","1","2","1","4","4","5","4","2","766374165644316674","应","15","","","","","","","","","","","","","","","","","","","","","","","","","","","","","","feedback_test","","","","","","","","","","","",""
"617","","j","psychophysics","127","213624","0.0-7.0-1.0-4.0-0.0-0.10","3","4","4","3","3","4","3","3","4","3","4","4","4","4","4","5","4","4","4","4","2","2","2","2","2","1","2","2","1","0","1","0","0","1","1","0","0","1","0","0","0","1","0","0","4","2","1","1","2","1","4","4","5","4","2","766374165644316674","应","15","","","","match","","","","","","","","","","","","","","key","j","16.664583333333212","747.8345776424576","416.9343220484498","j","true","match","img/diamond.png","菱形","菱形","ALT1","formal_ALT1_2","","","","","","","","","","","",""
"null","<span style='color:GreenYellow; font-size: 70px;'>正确! </span>","null","html-keyboard-response","128","214133","0.0-7.0-1.0-4.0-0.0-1.10","3","4","4","3","3","4","3","3","4","3","4","4","4","4","4","5","4","4","4","4","2","2","2","2","2","1","2","2","1","0","1","0","0","1","1","0","0","1","0","0","0","1","0","0","4","2","1","1","2","1","4","4","5","4","2","766374165644316674","应","15","","","","","","","","","","","","","","","","","","","","","","","","","","","","","","feedback_test","","","","","","","","","","","",""
"743","","j","psychophysics","129","215878","0.0-7.0-1.0-4.0-0.0-0.11","3","4","4","3","3","4","3","3","4","3","4","4","4","4","4","5","4","4","4","4","2","2","2","2","2","1","2","2","1","0","1","0","0","1","1","0","0","1","0","0","0","1","0","0","4","2","1","1","2","1","4","4","5","4","2","766374165644316674","应","15","","","","match","","","","","","","","","","","","","","key","j","16.664077669902856","747.8345776424576","416.9343220484498","j","true","match","img/trapezoid.png","梯形","梯形","ALT1","formal_ALT1_2","","","","","","","","","","","",""
"null","<span style='color:GreenYellow; font-size: 70px;'>正确! </span>","null","html-keyboard-response","130","216381","0.0-7.0-1.0-4.0-0.0-1.11","3","4","4","3","3","4","3","3","4","3","4","4","4","4","4","5","4","4","4","4","2","2","2","2","2","1","2","2","1","0","1","0","0","1","1","0","0","1","0","0","0","1","0","0","4","2","1","1","2","1","4","4","5","4","2","766374165644316674","应","15","","","","","","","","","","","","","","","","","","","","","","","","","","","","","","feedback_test","","","","","","","","","","","",""
"603","","f","psychophysics","131","217985","0.0-7.0-1.0-4.0-0.0-0.12","3","4","4","3","3","4","3","3","4","3","4","4","4","4","4","5","4","4","4","4","2","2","2","2","2","1","2","2","1","0","1","0","0","1","1","0","0","1","0","0","0","1","0","0","4","2","1","1","2","1","4","4","5","4","2","766374165644316674","应","15","","","","nonmatch","","","","","","","","","","","","","","key","f","16.66842105263158","747.8345776424576","416.9343220484498","f","true","nonmatch","img/trapezoid.png","圆形","梯形","ALT1","formal_ALT1_2","","","","","","","","","","","",""
"null","<span style='color:GreenYellow; font-size: 70px;'>正确! </span>","null","html-keyboard-response","132","218493","0.0-7.0-1.0-4.0-0.0-1.12","3","4","4","3","3","4","3","3","4","3","4","4","4","4","4","5","4","4","4","4","2","2","2","2","2","1","2","2","1","0","1","0","0","1","1","0","0","1","0","0","0","1","0","0","4","2","1","1","2","1","4","4","5","4","2","766374165644316674","应","15","","","","","","","","","","","","","","","","","","","","","","","","","","","","","","feedback_test","","","","","","","","","","","",""
"679","","f","psychophysics","133","220195","0.0-7.0-1.0-4.0-0.0-0.13","3","4","4","3","3","4","3","3","4","3","4","4","4","4","4","5","4","4","4","4","2","2","2","2","2","1","2","2","1","0","1","0","0","1","1","0","0","1","0","0","0","1","0","0","4","2","1","1","2","1","4","4","5","4","2","766374165644316674","应","15","","","","nonmatch","","","","","","","","","","","","","","key","f","16.665","747.8345776424576","416.9343220484498","f","true","nonmatch","img/trapezoid.png","五边","梯形","ALT1","formal_ALT1_2","","","","","","","","","","","",""
"null","<span style='color:GreenYellow; font-size: 70px;'>正确! </span>","null","html-keyboard-response","134","220695","0.0-7.0-1.0-4.0-0.0-1.13","3","4","4","3","3","4","3","3","4","3","4","4","4","4","4","5","4","4","4","4","2","2","2","2","2","1","2","2","1","0","1","0","0","1","1","0","0","1","0","0","0","1","0","0","4","2","1","1","2","1","4","4","5","4","2","766374165644316674","应","15","","","","","","","","","","","","","","","","","","","","","","","","","","","","","","feedback_test","","","","","","","","","","","",""
"724","","f","psychophysics","135","222421","0.0-7.0-1.0-4.0-0.0-0.14","3","4","4","3","3","4","3","3","4","3","4","4","4","4","4","5","4","4","4","4","2","2","2","2","2","1","2","2","1","0","1","0","0","1","1","0","0","1","0","0","0","1","0","0","4","2","1","1","2","1","4","4","5","4","2","766374165644316674","应","15","","","","nonmatch","","","","","","","","","","","","","","key","f","16.65588235294112","747.8345776424576","416.9343220484498","j","false","match","img/trapezoid.png","梯形","梯形","ALT1","formal_ALT1_2","","","","","","","","","","","",""
"null","<span style='color:red; font-size: 70px;'>错误! </span>","null","html-keyboard-response","136","222923","0.0-7.0-1.0-4.0-0.0-1.14","3","4","4","3","3","4","3","3","4","3","4","4","4","4","4","5","4","4","4","4","2","2","2","2","2","1","2","2","1","0","1","0","0","1","1","0","0","1","0","0","0","1","0","0","4","2","1","1","2","1","4","4","5","4","2","766374165644316674","应","15","","","","","","","","","","","","","","","","","","","","","","","","","","","","","","feedback_test","","","","","","","","","","","",""
"900","","f","psychophysics","137","224825","0.0-7.0-1.0-4.0-0.0-0.15","3","4","4","3","3","4","3","3","4","3","4","4","4","4","4","5","4","4","4","4","2","2","2","2","2","1","2","2","1","0","1","0","0","1","1","0","0","1","0","0","0","1","0","0","4","2","1","1","2","1","4","4","5","4","2","766374165644316674","应","15","","","","nonmatch","","","","","","","","","","","","","","key","f","16.664601769911297","747.8345776424576","416.9343220484498","f","true","nonmatch","img/circle.png","五边","圆形","ALT1","formal_ALT1_2","","","","","","","","","","","",""
"null","<span style='color:GreenYellow; font-size: 70px;'>正确! </span>","null","html-keyboard-response","138","225336","0.0-7.0-1.0-4.0-0.0-1.15","3","4","4","3","3","4","3","3","4","3","4","4","4","4","4","5","4","4","4","4","2","2","2","2","2","1","2","2","1","0","1","0","0","1","1","0","0","1","0","0","0","1","0","0","4","2","1","1","2","1","4","4","5","4","2","766374165644316674","应","15","","","","","","","","","","","","","","","","","","","","","","","","","","","","","","feedback_test","","","","","","","","","","","",""
"651","","j","psychophysics","139","227007","0.0-7.0-1.0-4.0-0.0-0.16","3","4","4","3","3","4","3","3","4","3","4","4","4","4","4","5","4","4","4","4","2","2","2","2","2","1","2","2","1","0","1","0","0","1","1","0","0","1","0","0","0","1","0","0","4","2","1","1","2","1","4","4","5","4","2","766374165644316674","应","15","","","","match","","","","","","","","","","","","","","key","j","16.664646464646346","747.8345776424576","416.9343220484498","j","true","match","img/pentagon.png","五边","五边","ALT1","formal_ALT1_2","","","","","","","","","","","",""
"null","<span style='color:GreenYellow; font-size: 70px;'>正确! </span>","null","html-keyboard-response","140","227508","0.0-7.0-1.0-4.0-0.0-1.16","3","4","4","3","3","4","3","3","4","3","4","4","4","4","4","5","4","4","4","4","2","2","2","2","2","1","2","2","1","0","1","0","0","1","1","0","0","1","0","0","0","1","0","0","4","2","1","1","2","1","4","4","5","4","2","766374165644316674","应","15","","","","","","","","","","","","","","","","","","","","","","","","","","","","","","feedback_test","","","","","","","","","","","",""
"null","","null","psychophysics","141","229713","0.0-7.0-1.0-4.0-0.0-0.17","3","4","4","3","3","4","3","3","4","3","4","4","4","4","4","5","4","4","4","4","2","2","2","2","2","1","2","2","1","0","1","0","0","1","1","0","0","1","0","0","0","1","0","0","4","2","1","1","2","1","4","4","5","4","2","766374165644316674","应","15","","","","null","","","","","","","","","","","","","","key","null","16.66412213740458","747.8345776424576","416.9343220484498","j","false","match","img/diamond.png","菱形","菱形","ALT1","formal_ALT1_2","","","","","","","","","","","",""
"null","<span class='add_' style='color:yellow; font-size: 70px;'> 太慢! </span>","null","html-keyboard-response","142","230229","0.0-7.0-1.0-4.0-0.0-1.17","3","4","4","3","3","4","3","3","4","3","4","4","4","4","4","5","4","4","4","4","2","2","2","2","2","1","2","2","1","0","1","0","0","1","1","0","0","1","0","0","0","1","0","0","4","2","1","1","2","1","4","4","5","4","2","766374165644316674","应","15","","","","","","","","","","","","","","","","","","","","","","","","","","","","","","feedback_test","","","","","","","","","","","",""
"843","","f","psychophysics","143","232073","0.0-7.0-1.0-4.0-0.0-0.18","3","4","4","3","3","4","3","3","4","3","4","4","4","4","4","5","4","4","4","4","2","2","2","2","2","1","2","2","1","0","1","0","0","1","1","0","0","1","0","0","0","1","0","0","4","2","1","1","2","1","4","4","5","4","2","766374165644316674","应","15","","","","nonmatch","","","","","","","","","","","","","","key","f","16.663302752293472","747.8345776424576","416.9343220484498","f","true","nonmatch","img/diamond.png","五边","菱形","ALT1","formal_ALT1_2","","","","","","","","","","","",""
"null","<span style='color:GreenYellow; font-size: 70px;'>正确! </span>","null","html-keyboard-response","144","232575","0.0-7.0-1.0-4.0-0.0-1.18","3","4","4","3","3","4","3","3","4","3","4","4","4","4","4","5","4","4","4","4","2","2","2","2","2","1","2","2","1","0","1","0","0","1","1","0","0","1","0","0","0","1","0","0","4","2","1","1","2","1","4","4","5","4","2","766374165644316674","应","15","","","","","","","","","","","","","","","","","","","","","","","","","","","","","","feedback_test","","","","","","","","","","","",""
"611","","j","psychophysics","145","234189","0.0-7.0-1.0-4.0-0.0-0.19","3","4","4","3","3","4","3","3","4","3","4","4","4","4","4","5","4","4","4","4","2","2","2","2","2","1","2","2","1","0","1","0","0","1","1","0","0","1","0","0","0","1","0","0","4","2","1","1","2","1","4","4","5","4","2","766374165644316674","应","15","","","","match","","","","","","","","","","","","","","key","j","16.663541666666788","747.8345776424576","416.9343220484498","j","true","match","img/circle.png","圆形","圆形","ALT1","formal_ALT1_2","","","","","","","","","","","",""
"null","<span style='color:GreenYellow; font-size: 70px;'>正确! </span>","null","html-keyboard-response","146","234690","0.0-7.0-1.0-4.0-0.0-1.19","3","4","4","3","3","4","3","3","4","3","4","4","4","4","4","5","4","4","4","4","2","2","2","2","2","1","2","2","1","0","1","0","0","1","1","0","0","1","0","0","0","1","0","0","4","2","1","1","2","1","4","4","5","4","2","766374165644316674","应","15","","","","","","","","","","","","","","","","","","","","","","","","","","","","","","feedback_test","","","","","","","","","","","",""
"794","","f","psychophysics","147","236486","0.0-7.0-1.0-4.0-0.0-0.20","3","4","4","3","3","4","3","3","4","3","4","4","4","4","4","5","4","4","4","4","2","2","2","2","2","1","2","2","1","0","1","0","0","1","1","0","0","1","0","0","0","1","0","0","4","2","1","1","2","1","4","4","5","4","2","766374165644316674","应","15","","","","nonmatch","","","","","","","","","","","","","","key","f","16.664485981308466","747.8345776424576","416.9343220484498","j","false","match","img/pentagon.png","五边","五边","ALT1","formal_ALT1_2","","","","","","","","","","","",""
"null","<span style='color:red; font-size: 70px;'>错误! </span>","null","html-keyboard-response","148","236988","0.0-7.0-1.0-4.0-0.0-1.20","3","4","4","3","3","4","3","3","4","3","4","4","4","4","4","5","4","4","4","4","2","2","2","2","2","1","2","2","1","0","1","0","0","1","1","0","0","1","0","0","0","1","0","0","4","2","1","1","2","1","4","4","5","4","2","766374165644316674","应","15","","","","","","","","","","","","","","","","","","","","","","","","","","","","","","feedback_test","","","","","","","","","","","",""
"774","","j","psychophysics","149","238769","0.0-7.0-1.0-4.0-0.0-0.21","3","4","4","3","3","4","3","3","4","3","4","4","4","4","4","5","4","4","4","4","2","2","2","2","2","1","2","2","1","0","1","0","0","1","1","0","0","1","0","0","0","1","0","0","4","2","1","1","2","1","4","4","5","4","2","766374165644316674","应","15","","","","match","","","","","","","","","","","","","","key","j","16.65566037735849","747.8345776424576","416.9343220484498","f","false","nonmatch","img/diamond.png","梯形","菱形","ALT1","formal_ALT1_2","","","","","","","","","","","",""
"null","<span style='color:red; font-size: 70px;'>错误! </span>","null","html-keyboard-response","150","239271","0.0-7.0-1.0-4.0-0.0-1.21","3","4","4","3","3","4","3","3","4","3","4","4","4","4","4","5","4","4","4","4","2","2","2","2","2","1","2","2","1","0","1","0","0","1","1","0","0","1","0","0","0","1","0","0","4","2","1","1","2","1","4","4","5","4","2","766374165644316674","应","15","","","","","","","","","","","","","","","","","","","","","","","","","","","","","","feedback_test","","","","","","","","","","","",""
"692","","f","psychophysics","151","240965","0.0-7.0-1.0-4.0-0.0-0.22","3","4","4","3","3","4","3","3","4","3","4","4","4","4","4","5","4","4","4","4","2","2","2","2","2","1","2","2","1","0","1","0","0","1","1","0","0","1","0","0","0","1","0","0","4","2","1","1","2","1","4","4","5","4","2","766374165644316674","应","15","","","","nonmatch","","","","","","","","","","","","","","key","f","16.662376237623704","747.8345776424576","416.9343220484498","f","true","nonmatch","img/diamond.png","圆形","菱形","ALT1","formal_ALT1_2","","","","","","","","","","","",""
"null","<span style='color:GreenYellow; font-size: 70px;'>正确! </span>","null","html-keyboard-response","152","241466","0.0-7.0-1.0-4.0-0.0-1.22","3","4","4","3","3","4","3","3","4","3","4","4","4","4","4","5","4","4","4","4","2","2","2","2","2","1","2","2","1","0","1","0","0","1","1","0","0","1","0","0","0","1","0","0","4","2","1","1","2","1","4","4","5","4","2","766374165644316674","应","15","","","","","","","","","","","","","","","","","","","","","","","","","","","","","","feedback_test","","","","","","","","","","","",""
"847","","f","psychophysics","153","243315","0.0-7.0-1.0-4.0-0.0-0.23","3","4","4","3","3","4","3","3","4","3","4","4","4","4","4","5","4","4","4","4","2","2","2","2","2","1","2","2","1","0","1","0","0","1","1","0","0","1","0","0","0","1","0","0","4","2","1","1","2","1","4","4","5","4","2","766374165644316674","应","15","","","","nonmatch","","","","","","","","","","","","","","key","f","16.664545454545507","747.8345776424576","416.9343220484498","f","true","nonmatch","img/trapezoid.png","菱形","梯形","ALT1","formal_ALT1_2","","","","","","","","","","","",""
"null","<span style='color:GreenYellow; font-size: 70px;'>正确! </span>","null","html-keyboard-response","154","243846","0.0-7.0-1.0-4.0-0.0-1.23","3","4","4","3","3","4","3","3","4","3","4","4","4","4","4","5","4","4","4","4","2","2","2","2","2","1","2","2","1","0","1","0","0","1","1","0","0","1","0","0","0","1","0","0","4","2","1","1","2","1","4","4","5","4","2","766374165644316674","应","15","","","","","","","","","","","","","","","","","","","","","","","","","","","","","","feedback_test","","","","","","","","","","","",""
"null","","null","psychophysics","155","246067","0.0-7.0-1.0-4.0-0.0-0.24","3","4","4","3","3","4","3","3","4","3","4","4","4","4","4","5","4","4","4","4","2","2","2","2","2","1","2","2","1","0","1","0","0","1","1","0","0","1","0","0","0","1","0","0","4","2","1","1","2","1","4","4","5","4","2","766374165644316674","应","15","","","","null","","","","","","","","","","","","","","key","null","16.664393939394028","747.8345776424576","416.9343220484498","f","false","nonmatch","img/pentagon.png","梯形","五边","ALT1","formal_ALT1_2","","","","","","","","","","","",""
"null","<span class='add_' style='color:yellow; font-size: 70px;'> 太慢! </span>","null","html-keyboard-response","156","246568","0.0-7.0-1.0-4.0-0.0-1.24","3","4","4","3","3","4","3","3","4","3","4","4","4","4","4","5","4","4","4","4","2","2","2","2","2","1","2","2","1","0","1","0","0","1","1","0","0","1","0","0","0","1","0","0","4","2","1","1","2","1","4","4","5","4","2","766374165644316674","应","15","","","","","","","","","","","","","","","","","","","","","","","","","","","","","","feedback_test","","","","","","","","","","","",""
"805","","f","psychophysics","157","248375","0.0-7.0-1.0-4.0-0.0-0.25","3","4","4","3","3","4","3","3","4","3","4","4","4","4","4","5","4","4","4","4","2","2","2","2","2","1","2","2","1","0","1","0","0","1","1","0","0","1","0","0","0","1","0","0","4","2","1","1","2","1","4","4","5","4","2","766374165644316674","应","15","","","","nonmatch","","","","","","","","","","","","","","key","f","16.66355140186916","747.8345776424576","416.9343220484498","f","true","nonmatch","img/pentagon.png","菱形","五边","ALT1","formal_ALT1_2","","","","","","","","","","","",""
"null","<span style='color:GreenYellow; font-size: 70px;'>正确! </span>","null","html-keyboard-response","158","248877","0.0-7.0-1.0-4.0-0.0-1.25","3","4","4","3","3","4","3","3","4","3","4","4","4","4","4","5","4","4","4","4","2","2","2","2","2","1","2","2","1","0","1","0","0","1","1","0","0","1","0","0","0","1","0","0","4","2","1","1","2","1","4","4","5","4","2","766374165644316674","应","15","","","","","","","","","","","","","","","","","","","","","","","","","","","","","","feedback_test","","","","","","","","","","","",""
"658","","f","psychophysics","159","250537","0.0-7.0-1.0-4.0-0.0-0.26","3","4","4","3","3","4","3","3","4","3","4","4","4","4","4","5","4","4","4","4","2","2","2","2","2","1","2","2","1","0","1","0","0","1","1","0","0","1","0","0","0","1","0","0","4","2","1","1","2","1","4","4","5","4","2","766374165644316674","应","15","","","","nonmatch","","","","","","","","","","","","","","key","f","16.664285714285775","747.8345776424576","416.9343220484498","f","true","nonmatch","img/circle.png","菱形","圆形","ALT1","formal_ALT1_2","","","","","","","","","","","",""
"null","<span style='color:GreenYellow; font-size: 70px;'>正确! </span>","null","html-keyboard-response","160","251040","0.0-7.0-1.0-4.0-0.0-1.26","3","4","4","3","3","4","3","3","4","3","4","4","4","4","4","5","4","4","4","4","2","2","2","2","2","1","2","2","1","0","1","0","0","1","1","0","0","1","0","0","0","1","0","0","4","2","1","1","2","1","4","4","5","4","2","766374165644316674","应","15","","","","","","","","","","","","","","","","","","","","","","","","","","","","","","feedback_test","","","","","","","","","","","",""
"694","","j","psychophysics","161","252760","0.0-7.0-1.0-4.0-0.0-0.27","3","4","4","3","3","4","3","3","4","3","4","4","4","4","4","5","4","4","4","4","2","2","2","2","2","1","2","2","1","0","1","0","0","1","1","0","0","1","0","0","0","1","0","0","4","2","1","1","2","1","4","4","5","4","2","766374165644316674","应","15","","","","match","","","","","","","","","","","","","","key","j","16.663725490196192","747.8345776424576","416.9343220484498","j","true","match","img/pentagon.png","五边","五边","ALT1","formal_ALT1_2","","","","","","","","","","","",""
"null","<span style='color:GreenYellow; font-size: 70px;'>正确! </span>","null","html-keyboard-response","162","253263","0.0-7.0-1.0-4.0-0.0-1.27","3","4","4","3","3","4","3","3","4","3","4","4","4","4","4","5","4","4","4","4","2","2","2","2","2","1","2","2","1","0","1","0","0","1","1","0","0","1","0","0","0","1","0","0","4","2","1","1","2","1","4","4","5","4","2","766374165644316674","应","15","","","","","","","","","","","","","","","","","","","","","","","","","","","","","","feedback_test","","","","","","","","","","","",""
"644","","f","psychophysics","163","254909","0.0-7.0-1.0-4.0-0.0-0.28","3","4","4","3","3","4","3","3","4","3","4","4","4","4","4","5","4","4","4","4","2","2","2","2","2","1","2","2","1","0","1","0","0","1","1","0","0","1","0","0","0","1","0","0","4","2","1","1","2","1","4","4","5","4","2","766374165644316674","应","15","","","","nonmatch","","","","","","","","","","","","","","key","f","16.664948453608247","747.8345776424576","416.9343220484498","f","true","nonmatch","img/diamond.png","五边","菱形","ALT1","formal_ALT1_2","","","","","","","","","","","",""
"null","<span style='color:GreenYellow; font-size: 70px;'>正确! </span>","null","html-keyboard-response","164","255412","0.0-7.0-1.0-4.0-0.0-1.28","3","4","4","3","3","4","3","3","4","3","4","4","4","4","4","5","4","4","4","4","2","2","2","2","2","1","2","2","1","0","1","0","0","1","1","0","0","1","0","0","0","1","0","0","4","2","1","1","2","1","4","4","5","4","2","766374165644316674","应","15","","","","","","","","","","","","","","","","","","","","","","","","","","","","","","feedback_test","","","","","","","","","","","",""
"573","","j","psychophysics","165","256987","0.0-7.0-1.0-4.0-0.0-0.29","3","4","4","3","3","4","3","3","4","3","4","4","4","4","4","5","4","4","4","4","2","2","2","2","2","1","2","2","1","0","1","0","0","1","1","0","0","1","0","0","0","1","0","0","4","2","1","1","2","1","4","4","5","4","2","766374165644316674","应","15","","","","match","","","","","","","","","","","","","","key","j","16.66344086021518","747.8345776424576","416.9343220484498","f","false","nonmatch","img/trapezoid.png","圆形","梯形","ALT1","formal_ALT1_2","","","","","","","","","","","",""
"null","<span style='color:red; font-size: 70px;'>错误! </span>","null","html-keyboard-response","166","257488","0.0-7.0-1.0-4.0-0.0-1.29","3","4","4","3","3","4","3","3","4","3","4","4","4","4","4","5","4","4","4","4","2","2","2","2","2","1","2","2","1","0","1","0","0","1","1","0","0","1","0","0","0","1","0","0","4","2","1","1","2","1","4","4","5","4","2","766374165644316674","应","15","","","","","","","","","","","","","","","","","","","","","","","","","","","","","","feedback_test","","","","","","","","","","","",""
"596","","f","psychophysics","167","259112","0.0-7.0-1.0-4.0-0.0-0.30","3","4","4","3","3","4","3","3","4","3","4","4","4","4","4","5","4","4","4","4","2","2","2","2","2","1","2","2","1","0","1","0","0","1","1","0","0","1","0","0","0","1","0","0","4","2","1","1","2","1","4","4","5","4","2","766374165644316674","应","15","","","","nonmatch","","","","","","","","","","","","","","key","f","16.66597938144336","747.8345776424576","416.9343220484498","f","true","nonmatch","img/diamond.png","圆形","菱形","ALT1","formal_ALT1_2","","","","","","","","","","","",""
"null","<span style='color:GreenYellow; font-size: 70px;'>正确! </span>","null","html-keyboard-response","168","259613","0.0-7.0-1.0-4.0-0.0-1.30","3","4","4","3","3","4","3","3","4","3","4","4","4","4","4","5","4","4","4","4","2","2","2","2","2","1","2","2","1","0","1","0","0","1","1","0","0","1","0","0","0","1","0","0","4","2","1","1","2","1","4","4","5","4","2","766374165644316674","应","15","","","","","","","","","","","","","","","","","","","","","","","","","","","","","","feedback_test","","","","","","","","","","","",""
"737","","j","psychophysics","169","261357","0.0-7.0-1.0-4.0-0.0-0.31","3","4","4","3","3","4","3","3","4","3","4","4","4","4","4","5","4","4","4","4","2","2","2","2","2","1","2","2","1","0","1","0","0","1","1","0","0","1","0","0","0","1","0","0","4","2","1","1","2","1","4","4","5","4","2","766374165644316674","应","15","","","","match","","","","","","","","","","","","","","key","j","16.66504854368932","747.8345776424576","416.9343220484498","j","true","match","img/trapezoid.png","梯形","梯形","ALT1","formal_ALT1_2","","","","","","","","","","","",""
"null","<span style='color:GreenYellow; font-size: 70px;'>正确! </span>","null","html-keyboard-response","170","261859","0.0-7.0-1.0-4.0-0.0-1.31","3","4","4","3","3","4","3","3","4","3","4","4","4","4","4","5","4","4","4","4","2","2","2","2","2","1","2","2","1","0","1","0","0","1","1","0","0","1","0","0","0","1","0","0","4","2","1","1","2","1","4","4","5","4","2","766374165644316674","应","15","","","","","","","","","","","","","","","","","","","","","","","","","","","","","","feedback_test","","","","","","","","","","","",""
"597","","f","psychophysics","171","263458","0.0-7.0-1.0-4.0-0.0-0.32","3","4","4","3","3","4","3","3","4","3","4","4","4","4","4","5","4","4","4","4","2","2","2","2","2","1","2","2","1","0","1","0","0","1","1","0","0","1","0","0","0","1","0","0","4","2","1","1","2","1","4","4","5","4","2","766374165644316674","应","15","","","","nonmatch","","","","","","","","","","","","","","key","f","16.664893617021278","747.8345776424576","416.9343220484498","f","true","nonmatch","img/circle.png","五边","圆形","ALT1","formal_ALT1_2","","","","","","","","","","","",""
"null","<span style='color:GreenYellow; font-size: 70px;'>正确! </span>","null","html-keyboard-response","172","263960","0.0-7.0-1.0-4.0-0.0-1.32","3","4","4","3","3","4","3","3","4","3","4","4","4","4","4","5","4","4","4","4","2","2","2","2","2","1","2","2","1","0","1","0","0","1","1","0","0","1","0","0","0","1","0","0","4","2","1","1","2","1","4","4","5","4","2","766374165644316674","应","15","","","","","","","","","","","","","","","","","","","","","","","","","","","","","","feedback_test","","","","","","","","","","","",""
"551","","f","psychophysics","173","265517","0.0-7.0-1.0-4.0-0.0-0.33","3","4","4","3","3","4","3","3","4","3","4","4","4","4","4","5","4","4","4","4","2","2","2","2","2","1","2","2","1","0","1","0","0","1","1","0","0","1","0","0","0","1","0","0","4","2","1","1","2","1","4","4","5","4","2","766374165644316674","应","15","","","","nonmatch","","","","","","","","","","","","","","key","f","16.665217391304473","747.8345776424576","416.9343220484498","f","true","nonmatch","img/trapezoid.png","五边","梯形","ALT1","formal_ALT1_2","","","","","","","","","","","",""
"null","<span style='color:GreenYellow; font-size: 70px;'>正确! </span>","null","html-keyboard-response","174","266018","0.0-7.0-1.0-4.0-0.0-1.33","3","4","4","3","3","4","3","3","4","3","4","4","4","4","4","5","4","4","4","4","2","2","2","2","2","1","2","2","1","0","1","0","0","1","1","0","0","1","0","0","0","1","0","0","4","2","1","1","2","1","4","4","5","4","2","766374165644316674","应","15","","","","","","","","","","","","","","","","","","","","","","","","","","","","","","feedback_test","","","","","","","","","","","",""
"702","","j","psychophysics","175","267722","0.0-7.0-1.0-4.0-0.0-0.34","3","4","4","3","3","4","3","3","4","3","4","4","4","4","4","5","4","4","4","4","2","2","2","2","2","1","2","2","1","0","1","0","0","1","1","0","0","1","0","0","0","1","0","0","4","2","1","1","2","1","4","4","5","4","2","766374165644316674","应","15","","","","match","","","","","","","","","","","","","","key","j","16.663366336633665","747.8345776424576","416.9343220484498","j","true","match","img/diamond.png","菱形","菱形","ALT1","formal_ALT1_2","","","","","","","","","","","",""
"null","<span style='color:GreenYellow; font-size: 70px;'>正确! </span>","null","html-keyboard-response","176","268224","0.0-7.0-1.0-4.0-0.0-1.34","3","4","4","3","3","4","3","3","4","3","4","4","4","4","4","5","4","4","4","4","2","2","2","2","2","1","2","2","1","0","1","0","0","1","1","0","0","1","0","0","0","1","0","0","4","2","1","1","2","1","4","4","5","4","2","766374165644316674","应","15","","","","","","","","","","","","","","","","","","","","","","","","","","","","","","feedback_test","","","","","","","","","","","",""
"841","","j","psychophysics","177","270066","0.0-7.0-1.0-4.0-0.0-0.35","3","4","4","3","3","4","3","3","4","3","4","4","4","4","4","5","4","4","4","4","2","2","2","2","2","1","2","2","1","0","1","0","0","1","1","0","0","1","0","0","0","1","0","0","4","2","1","1","2","1","4","4","5","4","2","766374165644316674","应","15","","","","match","","","","","","","","","","","","","","key","j","16.666972477064327","747.8345776424576","416.9343220484498","j","true","match","img/diamond.png","菱形","菱形","ALT1","formal_ALT1_2","","","","","","","","","","","",""
