"rt","stimulus","response","trial_type","trial_index","time_elapsed","internal_node_id","ses_1","ses_2","ses_3","ses_4","ses_5","ses_6","ses_7","ses_8","ses_9","ses_10","coreself_1","coreself_2","coreself_3","coreself_4","coreself_5","coreself_6","coreself_7","coreself_8","coreself_9","coreself_10","SGPS_1","SGPS_2","SGPS_3","SGPS_4","SGPS_5","SGPS_6","SGPS_7","SGPS_8","SGPS_9","NPI1","NPI2","NPI3","NPI4","NPI5","NPI6","NPI7","NPI8","NPI9","NPI10","NPI11","NPI12","NPI13","NPI14","NPI15","hsns_1","hsns_2","hsns_3","hsns_4","hsns_5","trap1","hsns_6","hsns_7","hsns_8","hsns_9","hsns_10","subj_idx","friend_name","ParticipantID","value","success","user_agent","responses","item_order","radio_event_ids","radio_event_times","key_event_times","mouse_event_times","straightlining","zigzagging","honeypot","timeout","failed_images","failed_audio","failed_video","view_history","response_type","key_press","avg_frame_time","center_x","center_y","correct_response","correct","identity","Image","word","condition","task_id","screen_id","time_stamp","version_attrib2","version_target2","IAT","RT","varname","summary","version_attrib","version_target","question_order","correct_answer","trap1_item"
"1870","
   <p><div style = ""color: white;font-size:25px;"">您好，欢迎参加本次实验。</div> </p>
   <p><div style = ""color: white;font-size:25px;"">为充分保障您的权利，请确保您已经知晓并同意《参与实验同意书》以及《数据公开知情同意书》。</div></p>
   <p><div style = ""color: white;font-size:25px;"">如果您未见过上述内容，请咨询实验员。</div></p>
   <p><div style = ""color: white;font-size:25px;"">如果您选择继续实验，则表示您已经清楚两份知情同意书的内容并同意。</div></p>
   <p><div style = ""color: pink;font-size:30px;"">请确保您记得day0的实验编号，您将在本次实验输入该编号，若您忘记，请咨询实验员后作答。</div></p>
   <p><div style = ""color: lightblue;font-size:25px;"">请您尽可能认真地作答，我们将依据您在各问卷和按键任务中的作答质量发放报酬。</div></p>
   <p> <div style = ""color: green;font-size:25px;""><按空格键至下页></div> </p>
   "," ","html-keyboard-response","0","1872","0.0-0.0","1","2","2","1","1","2","2","1","2","1","2","1","2","1","2","2","2","1","2","1","4","5","4","5","5","4","4","1","5","1","0","1","1","0","0","1","1","0","1","1","1","1","0","1","4","5","5","4","5","","5","4","5","1","1","789416392486293505","王","104","","","","","","","","","","","","","","","","","","","","","","","","","","","","","","","","","","","","","","","","","",""
"","","","call-function","1","1874","0.0-1.0-0.0","1","2","2","1","1","2","2","1","2","1","2","1","2","1","2","2","2","1","2","1","4","5","4","5","5","4","4","1","5","1","0","1","1","0","0","1","1","0","1","1","1","1","0","1","4","5","5","4","5","","5","4","5","1","1","789416392486293505","王","104","","","","","","","","","","","","","","","","","","","","","","","","","","","","","","","","","","","","","","","","","",""
"6143","","{""friend_name"":""王"",""ParticipantID"":""104""}","survey-html-form","2","8018","0.0-1.0-1.0","1","2","2","1","1","2","2","1","2","1","2","1","2","1","2","2","2","1","2","1","4","5","4","5","5","4","4","1","5","1","0","1","1","0","0","1","1","0","1","1","1","1","0","1","4","5","5","4","5","","5","4","5","1","1","789416392486293505","王","104","","","","","","","","","","","","","","","","","","","","","","","","","","","","","","","","","","","","","","","","","",""
"","","","fullscreen","3","9307","0.0-2.0","1","2","2","1","1","2","2","1","2","1","2","1","2","1","2","2","2","1","2","1","4","5","4","5","5","4","4","1","5","1","0","1","1","0","0","1","1","0","1","1","1","1","0","1","4","5","5","4","5","","5","4","5","1","1","789416392486293505","王","104","","true","","","","","","","","","","","","","","","","","","","","","","","","","","","","","","","","","","","","","","","",""
"26958.344999933615","","{""Q01"":""1"",""Q02"":""2"",""Q03"":""2"",""Q04"":""1"",""Q05"":""1"",""Q06"":""2"",""Q07"":""2"",""Q08"":""1"",""Q09"":""2"",""Q10"":""1""}","survey-template","4","36270","0.0-3.0","1","2","2","1","1","2","2","1","2","1","2","1","2","1","2","2","2","1","2","1","4","5","4","5","5","4","4","1","5","1","0","1","1","0","0","1","1","0","1","1","1","1","0","1","4","5","5","4","5","","5","4","5","1","1","789416392486293505","王","104","","","","{""Q01"":""1"",""Q02"":""2"",""Q03"":""2"",""Q04"":""1"",""Q05"":""1"",""Q06"":""2"",""Q07"":""2"",""Q08"":""1"",""Q09"":""2"",""Q10"":""1""}","[0,1,2,3,4,5,6,7,8,9]","[""Q09"",""Q10"",""Q08"",""Q07"",""Q06"",""Q05"",""Q04"",""Q03"",""Q02"",""Q01""]","[2989.2899999395013,4222.989999921992,7992.964999983087,10183.069999911822,11723.119999980554,13370.879999944009,16243.234999943525,17831.43999997992,20750.00999995973,23231.089999899268]","[]","[2989.2899999395013,4222.989999921992,5961.279999930412,7632.914999965578,7992.964999983087,8874.379999935627,10183.069999911822,11723.119999980554,13370.879999944009,16243.234999943525,17831.43999997992,18883.35499993991,20096.719999914058,20750.00999995973,22849.25500000827,23231.089999899268,26956.899999990128]","0.3","0.5555555555555556","0","","","","","","","","","","","","","","","","","","","","","","","","","","","","","",""
"23872.564999968745","","{""Q01"":""2"",""Q02"":""1"",""Q03"":""2"",""Q04"":""1"",""Q05"":""2"",""Q06"":""2"",""Q07"":""2"",""Q08"":""1"",""Q09"":""2"",""Q10"":""1""}","survey-template","5","60151","0.0-4.0","1","2","2","1","1","2","2","1","2","1","2","1","2","1","2","2","2","1","2","1","4","5","4","5","5","4","4","1","5","1","0","1","1","0","0","1","1","0","1","1","1","1","0","1","4","5","5","4","5","","5","4","5","1","1","789416392486293505","王","104","","","","{""Q01"":""2"",""Q02"":""1"",""Q03"":""2"",""Q04"":""1"",""Q05"":""2"",""Q06"":""2"",""Q07"":""2"",""Q08"":""1"",""Q09"":""2"",""Q10"":""1""}","[0,1,2,3,4,5,6,7,8,9]","[""Q01"",""Q02"",""Q03"",""Q04"",""Q05"",""Q05"",""Q06"",""Q06"",""Q07"",""Q08"",""Q09"",""Q10""]","[2068.585000000894,3638.2950000697747,4612.345000030473,6454.630000051111,8380.059999995865,9687.57499998901,11268.775000004098,12306.100000045262,15046.304999967106,15904.074999969453,19514.020000002347,21586.25499997288]","[]","[2068.585000000894,3638.2950000697747,4612.345000030473,6454.630000051111,8380.059999995865,9687.57499998901,11268.775000004098,12306.100000045262,15046.304999967106,15904.074999969453,18623.80000005942,19514.020000002347,20197.920000064187,21586.25499997288,23870.3000000678]","0.3","0.2222222222222222","0","","","","","","","","","","","","","","","","","","","","","","","","","","","","","",""
"","","","preload","6","60402","0.0-5.0","1","2","2","1","1","2","2","1","2","1","2","1","2","1","2","2","2","1","2","1","4","5","4","5","5","4","4","1","5","1","0","1","1","0","0","1","1","0","1","1","1","1","0","1","4","5","5","4","5","","5","4","5","1","1","789416392486293505","王","104","","true","","","","","","","","","","","false","[]","[]","[]","","","","","","","","","","","","","","","","","","","","","","","","","",""
"20889","","","instructions","7","81292","0.0-6.0","1","2","2","1","1","2","2","1","2","1","2","1","2","1","2","2","2","1","2","1","4","5","4","5","5","4","4","1","5","1","0","1","1","0","0","1","1","0","1","1","1","1","0","1","4","5","5","4","5","","5","4","5","1","1","789416392486293505","王","104","","","","","","","","","","","","","","","","","[{""page_index"":0,""viewing_time"":20888}]","","","","","","","","","","","","","","","","","","","","","","","","",""
"19738","","","instructions","8","101031","0.0-7.0-1.0-0.0","1","2","2","1","1","2","2","1","2","1","2","1","2","1","2","2","2","1","2","1","4","5","4","5","5","4","4","1","5","1","0","1","1","0","0","1","1","0","1","1","1","1","0","1","4","5","5","4","5","","5","4","5","1","1","789416392486293505","王","104","","","","","","","","","","","","","","","","","[{""page_index"":0,""viewing_time"":13860},{""page_index"":1,""viewing_time"":2809},{""page_index"":2,""viewing_time"":3069}]","","","","","","","","","","","","","","","","","","","","","","","","",""
"null","","null","psychophysics","9","103236","0.0-7.0-1.0-1.0-0.0-0.0","1","2","2","1","1","2","2","1","2","1","2","1","2","1","2","2","2","1","2","1","4","5","4","5","5","4","4","1","5","1","0","1","1","0","0","1","1","0","1","1","1","1","0","1","4","5","5","4","5","","5","4","5","1","1","789416392486293505","王","104","","","","null","","","","","","","","","","","","","","key","null","16.65063076923073","960","536","f","false","match","img/triangle.png","三角","三角","ALT1_2","prac_ALT1_2","","","","","","","","","","","",""
"null","<span class='add_' style='color:yellow; font-size: 70px;'> 太慢! </span>","null","html-keyboard-response","10","103738","0.0-7.0-1.0-1.0-0.0-1.0","1","2","2","1","1","2","2","1","2","1","2","1","2","1","2","2","2","1","2","1","4","5","4","5","5","4","4","1","5","1","0","1","1","0","0","1","1","0","1","1","1","1","0","1","4","5","5","4","5","","5","4","5","1","1","789416392486293505","王","104","","","","","","","","","","","","","","","","","","","","","","","","","","","","","","feedback_test","","","","","","","","","","","",""
"848","","f","psychophysics","11","105588","0.0-7.0-1.0-1.0-0.0-0.1","1","2","2","1","1","2","2","1","2","1","2","1","2","1","2","2","2","1","2","1","4","5","4","5","5","4","4","1","5","1","0","1","1","0","0","1","1","0","1","1","1","1","0","1","4","5","5","4","5","","5","4","5","1","1","789416392486293505","王","104","","","","match","","","","","","","","","","","","","","key","f","16.65053636363644","960","536","f","true","match","img/pentagon.png","五边","五边","ALT1_2","prac_ALT1_2","","","","","","","","","","","",""
"null","<span style='color:GreenYellow; font-size: 70px;'>正确! </span>","null","html-keyboard-response","12","106090","0.0-7.0-1.0-1.0-0.0-1.1","1","2","2","1","1","2","2","1","2","1","2","1","2","1","2","2","2","1","2","1","4","5","4","5","5","4","4","1","5","1","0","1","1","0","0","1","1","0","1","1","1","1","0","1","4","5","5","4","5","","5","4","5","1","1","789416392486293505","王","104","","","","","","","","","","","","","","","","","","","","","","","","","","","","","","feedback_test","","","","","","","","","","","",""
"522","","f","psychophysics","13","107614","0.0-7.0-1.0-1.0-0.0-0.2","1","2","2","1","1","2","2","1","2","1","2","1","2","1","2","2","2","1","2","1","4","5","4","5","5","4","4","1","5","1","0","1","1","0","0","1","1","0","1","1","1","1","0","1","4","5","5","4","5","","5","4","5","1","1","789416392486293505","王","104","","","","match","","","","","","","","","","","","","","key","f","16.651711111111055","960","536","f","true","match","img/circle.png","圆形","圆形","ALT1_2","prac_ALT1_2","","","","","","","","","","","",""
"null","<span style='color:GreenYellow; font-size: 70px;'>正确! </span>","null","html-keyboard-response","14","108115","0.0-7.0-1.0-1.0-0.0-1.2","1","2","2","1","1","2","2","1","2","1","2","1","2","1","2","2","2","1","2","1","4","5","4","5","5","4","4","1","5","1","0","1","1","0","0","1","1","0","1","1","1","1","0","1","4","5","5","4","5","","5","4","5","1","1","789416392486293505","王","104","","","","","","","","","","","","","","","","","","","","","","","","","","","","","","feedback_test","","","","","","","","","","","",""
"611","","f","psychophysics","15","109728","0.0-7.0-1.0-1.0-0.0-0.3","1","2","2","1","1","2","2","1","2","1","2","1","2","1","2","2","2","1","2","1","4","5","4","5","5","4","4","1","5","1","0","1","1","0","0","1","1","0","1","1","1","1","0","1","4","5","5","4","5","","5","4","5","1","1","789416392486293505","王","104","","","","match","","","","","","","","","","","","","","key","f","16.65204210526304","960","536","f","true","match","img/triangle.png","三角","三角","ALT1_2","prac_ALT1_2","","","","","","","","","","","",""
"null","<span style='color:GreenYellow; font-size: 70px;'>正确! </span>","null","html-keyboard-response","16","110229","0.0-7.0-1.0-1.0-0.0-1.3","1","2","2","1","1","2","2","1","2","1","2","1","2","1","2","2","2","1","2","1","4","5","4","5","5","4","4","1","5","1","0","1","1","0","0","1","1","0","1","1","1","1","0","1","4","5","5","4","5","","5","4","5","1","1","789416392486293505","王","104","","","","","","","","","","","","","","","","","","","","","","","","","","","","","","feedback_test","","","","","","","","","","","",""
"544","","f","psychophysics","17","111775","0.0-7.0-1.0-1.0-0.0-0.4","1","2","2","1","1","2","2","1","2","1","2","1","2","1","2","2","2","1","2","1","4","5","4","5","5","4","4","1","5","1","0","1","1","0","0","1","1","0","1","1","1","1","0","1","4","5","5","4","5","","5","4","5","1","1","789416392486293505","王","104","","","","match","","","","","","","","","","","","","","key","f","16.650692307692346","960","536","f","true","match","img/pentagon.png","五边","五边","ALT1_2","prac_ALT1_2","","","","","","","","","","","",""
"null","<span style='color:GreenYellow; font-size: 70px;'>正确! </span>","null","html-keyboard-response","18","112276","0.0-7.0-1.0-1.0-0.0-1.4","1","2","2","1","1","2","2","1","2","1","2","1","2","1","2","2","2","1","2","1","4","5","4","5","5","4","4","1","5","1","0","1","1","0","0","1","1","0","1","1","1","1","0","1","4","5","5","4","5","","5","4","5","1","1","789416392486293505","王","104","","","","","","","","","","","","","","","","","","","","","","","","","","","","","","feedback_test","","","","","","","","","","","",""
"451","","f","psychophysics","19","113729","0.0-7.0-1.0-1.0-0.0-0.5","1","2","2","1","1","2","2","1","2","1","2","1","2","1","2","2","2","1","2","1","4","5","4","5","5","4","4","1","5","1","0","1","1","0","0","1","1","0","1","1","1","1","0","1","4","5","5","4","5","","5","4","5","1","1","789416392486293505","王","104","","","","match","","","","","","","","","","","","","","key","f","16.65161627906965","960","536","j","false","nonmatch","img/diamond.png","圆形","菱形","ALT1_2","prac_ALT1_2","","","","","","","","","","","",""
"null","<span style='color:red; font-size: 70px;'>错误! </span>","null","html-keyboard-response","20","114230","0.0-7.0-1.0-1.0-0.0-1.5","1","2","2","1","1","2","2","1","2","1","2","1","2","1","2","2","2","1","2","1","4","5","4","5","5","4","4","1","5","1","0","1","1","0","0","1","1","0","1","1","1","1","0","1","4","5","5","4","5","","5","4","5","1","1","789416392486293505","王","104","","","","","","","","","","","","","","","","","","","","","","","","","","","","","","feedback_test","","","","","","","","","","","",""
"567","","j","psychophysics","21","115799","0.0-7.0-1.0-1.0-0.0-0.6","1","2","2","1","1","2","2","1","2","1","2","1","2","1","2","2","2","1","2","1","4","5","4","5","5","4","4","1","5","1","0","1","1","0","0","1","1","0","1","1","1","1","0","1","4","5","5","4","5","","5","4","5","1","1","789416392486293505","王","104","","","","nonmatch","","","","","","","","","","","","","","key","j","16.652021505376254","960","536","f","false","match","img/diamond.png","菱形","菱形","ALT1_2","prac_ALT1_2","","","","","","","","","","","",""
"null","<span style='color:red; font-size: 70px;'>错误! </span>","null","html-keyboard-response","22","116300","0.0-7.0-1.0-1.0-0.0-1.6","1","2","2","1","1","2","2","1","2","1","2","1","2","1","2","2","2","1","2","1","4","5","4","5","5","4","4","1","5","1","0","1","1","0","0","1","1","0","1","1","1","1","0","1","4","5","5","4","5","","5","4","5","1","1","789416392486293505","王","104","","","","","","","","","","","","","","","","","","","","","","","","","","","","","","feedback_test","","","","","","","","","","","",""
"null","","null","psychophysics","23","118506","0.0-7.0-1.0-1.0-0.0-0.7","1","2","2","1","1","2","2","1","2","1","2","1","2","1","2","2","2","1","2","1","4","5","4","5","5","4","4","1","5","1","0","1","1","0","0","1","1","0","1","1","1","1","0","1","4","5","5","4","5","","5","4","5","1","1","789416392486293505","王","104","","","","null","","","","","","","","","","","","","","key","null","16.78494573643412","960","536","j","false","nonmatch","img/pentagon.png","三角","五边","ALT1_2","prac_ALT1_2","","","","","","","","","","","",""
"null","<span class='add_' style='color:yellow; font-size: 70px;'> 太慢! </span>","null","html-keyboard-response","24","119007","0.0-7.0-1.0-1.0-0.0-1.7","1","2","2","1","1","2","2","1","2","1","2","1","2","1","2","2","2","1","2","1","4","5","4","5","5","4","4","1","5","1","0","1","1","0","0","1","1","0","1","1","1","1","0","1","4","5","5","4","5","","5","4","5","1","1","789416392486293505","王","104","","","","","","","","","","","","","","","","","","","","","","","","","","","","","","feedback_test","","","","","","","","","","","",""
"483","","j","psychophysics","25","120492","0.0-7.0-1.0-1.0-0.0-0.8","1","2","2","1","1","2","2","1","2","1","2","1","2","1","2","2","2","1","2","1","4","5","4","5","5","4","4","1","5","1","0","1","1","0","0","1","1","0","1","1","1","1","0","1","4","5","5","4","5","","5","4","5","1","1","789416392486293505","王","104","","","","nonmatch","","","","","","","","","","","","","","key","j","16.573045454545454","960","536","j","true","nonmatch","img/diamond.png","五边","菱形","ALT1_2","prac_ALT1_2","","","","","","","","","","","",""
"null","<span style='color:GreenYellow; font-size: 70px;'>正确! </span>","null","html-keyboard-response","26","120993","0.0-7.0-1.0-1.0-0.0-1.8","1","2","2","1","1","2","2","1","2","1","2","1","2","1","2","2","2","1","2","1","4","5","4","5","5","4","4","1","5","1","0","1","1","0","0","1","1","0","1","1","1","1","0","1","4","5","5","4","5","","5","4","5","1","1","789416392486293505","王","104","","","","","","","","","","","","","","","","","","","","","","","","","","","","","","feedback_test","","","","","","","","","","","",""
"487","","j","psychophysics","27","122482","0.0-7.0-1.0-1.0-0.0-0.9","1","2","2","1","1","2","2","1","2","1","2","1","2","1","2","2","2","1","2","1","4","5","4","5","5","4","4","1","5","1","0","1","1","0","0","1","1","0","1","1","1","1","0","1","4","5","5","4","5","","5","4","5","1","1","789416392486293505","王","104","","","","nonmatch","","","","","","","","","","","","","","key","j","16.618761363636374","960","536","j","true","nonmatch","img/triangle.png","五边","三角","ALT1_2","prac_ALT1_2","","","","","","","","","","","",""
"null","<span style='color:GreenYellow; font-size: 70px;'>正确! </span>","null","html-keyboard-response","28","122984","0.0-7.0-1.0-1.0-0.0-1.9","1","2","2","1","1","2","2","1","2","1","2","1","2","1","2","2","2","1","2","1","4","5","4","5","5","4","4","1","5","1","0","1","1","0","0","1","1","0","1","1","1","1","0","1","4","5","5","4","5","","5","4","5","1","1","789416392486293505","王","104","","","","","","","","","","","","","","","","","","","","","","","","","","","","","","feedback_test","","","","","","","","","","","",""
"581","","j","psychophysics","29","124566","0.0-7.0-1.0-1.0-0.0-0.10","1","2","2","1","1","2","2","1","2","1","2","1","2","1","2","2","2","1","2","1","4","5","4","5","5","4","4","1","5","1","0","1","1","0","0","1","1","0","1","1","1","1","0","1","4","5","5","4","5","","5","4","5","1","1","789416392486293505","王","104","","","","nonmatch","","","","","","","","","","","","","","key","j","16.640548387096736","960","536","f","false","match","img/diamond.png","菱形","菱形","ALT1_2","prac_ALT1_2","","","","","","","","","","","",""
"null","<span style='color:red; font-size: 70px;'>错误! </span>","null","html-keyboard-response","30","125067","0.0-7.0-1.0-1.0-0.0-1.10","1","2","2","1","1","2","2","1","2","1","2","1","2","1","2","2","2","1","2","1","4","5","4","5","5","4","4","1","5","1","0","1","1","0","0","1","1","0","1","1","1","1","0","1","4","5","5","4","5","","5","4","5","1","1","789416392486293505","王","104","","","","","","","","","","","","","","","","","","","","","","","","","","","","","","feedback_test","","","","","","","","","","","",""
"667","","j","psychophysics","31","126736","0.0-7.0-1.0-1.0-0.0-0.11","1","2","2","1","1","2","2","1","2","1","2","1","2","1","2","2","2","1","2","1","4","5","4","5","5","4","4","1","5","1","0","1","1","0","0","1","1","0","1","1","1","1","0","1","4","5","5","4","5","","5","4","5","1","1","789416392486293505","王","104","","","","nonmatch","","","","","","","","","","","","","","key","j","16.6488787878788","960","536","j","true","nonmatch","img/pentagon.png","菱形","五边","ALT1_2","prac_ALT1_2","","","","","","","","","","","",""
"null","<span style='color:GreenYellow; font-size: 70px;'>正确! </span>","null","html-keyboard-response","32","127238","0.0-7.0-1.0-1.0-0.0-1.11","1","2","2","1","1","2","2","1","2","1","2","1","2","1","2","2","2","1","2","1","4","5","4","5","5","4","4","1","5","1","0","1","1","0","0","1","1","0","1","1","1","1","0","1","4","5","5","4","5","","5","4","5","1","1","789416392486293505","王","104","","","","","","","","","","","","","","","","","","","","","","","","","","","","","","feedback_test","","","","","","","","","","","",""
"512","","f","psychophysics","33","128751","0.0-7.0-1.0-1.0-0.0-0.12","1","2","2","1","1","2","2","1","2","1","2","1","2","1","2","2","2","1","2","1","4","5","4","5","5","4","4","1","5","1","0","1","1","0","0","1","1","0","1","1","1","1","0","1","4","5","5","4","5","","5","4","5","1","1","789416392486293505","王","104","","","","match","","","","","","","","","","","","","","key","f","16.645477777777867","960","536","f","true","match","img/triangle.png","三角","三角","ALT1_2","prac_ALT1_2","","","","","","","","","","","",""
"null","<span style='color:GreenYellow; font-size: 70px;'>正确! </span>","null","html-keyboard-response","34","129253","0.0-7.0-1.0-1.0-0.0-1.12","1","2","2","1","1","2","2","1","2","1","2","1","2","1","2","2","2","1","2","1","4","5","4","5","5","4","4","1","5","1","0","1","1","0","0","1","1","0","1","1","1","1","0","1","4","5","5","4","5","","5","4","5","1","1","789416392486293505","王","104","","","","","","","","","","","","","","","","","","","","","","","","","","","","","","feedback_test","","","","","","","","","","","",""
"587","","j","psychophysics","35","130842","0.0-7.0-1.0-1.0-0.0-0.13","1","2","2","1","1","2","2","1","2","1","2","1","2","1","2","2","2","1","2","1","4","5","4","5","5","4","4","1","5","1","0","1","1","0","0","1","1","0","1","1","1","1","0","1","4","5","5","4","5","","5","4","5","1","1","789416392486293505","王","104","","","","nonmatch","","","","","","","","","","","","","","key","j","16.82729032258043","960","536","f","false","match","img/diamond.png","菱形","菱形","ALT1_2","prac_ALT1_2","","","","","","","","","","","",""
"null","<span style='color:red; font-size: 70px;'>错误! </span>","null","html-keyboard-response","36","131343","0.0-7.0-1.0-1.0-0.0-1.13","1","2","2","1","1","2","2","1","2","1","2","1","2","1","2","2","2","1","2","1","4","5","4","5","5","4","4","1","5","1","0","1","1","0","0","1","1","0","1","1","1","1","0","1","4","5","5","4","5","","5","4","5","1","1","789416392486293505","王","104","","","","","","","","","","","","","","","","","","","","","","","","","","","","","","feedback_test","","","","","","","","","","","",""
"609","","j","psychophysics","37","132954","0.0-7.0-1.0-1.0-0.0-0.14","1","2","2","1","1","2","2","1","2","1","2","1","2","1","2","2","2","1","2","1","4","5","4","5","5","4","4","1","5","1","0","1","1","0","0","1","1","0","1","1","1","1","0","1","4","5","5","4","5","","5","4","5","1","1","789416392486293505","王","104","","","","nonmatch","","","","","","","","","","","","","","key","j","16.65057894736835","960","536","j","true","nonmatch","img/circle.png","五边","圆形","ALT1_2","prac_ALT1_2","","","","","","","","","","","",""
"null","<span style='color:GreenYellow; font-size: 70px;'>正确! </span>","null","html-keyboard-response","38","133456","0.0-7.0-1.0-1.0-0.0-1.14","1","2","2","1","1","2","2","1","2","1","2","1","2","1","2","2","2","1","2","1","4","5","4","5","5","4","4","1","5","1","0","1","1","0","0","1","1","0","1","1","1","1","0","1","4","5","5","4","5","","5","4","5","1","1","789416392486293505","王","104","","","","","","","","","","","","","","","","","","","","","","","","","","","","","","feedback_test","","","","","","","","","","","",""
"458","","j","psychophysics","39","134916","0.0-7.0-1.0-1.0-0.0-0.15","1","2","2","1","1","2","2","1","2","1","2","1","2","1","2","2","2","1","2","1","4","5","4","5","5","4","4","1","5","1","0","1","1","0","0","1","1","0","1","1","1","1","0","1","4","5","5","4","5","","5","4","5","1","1","789416392486293505","王","104","","","","nonmatch","","","","","","","","","","","","","","key","j","16.648558139534693","960","536","f","false","match","img/circle.png","圆形","圆形","ALT1_2","prac_ALT1_2","","","","","","","","","","","",""
"null","<span style='color:red; font-size: 70px;'>错误! </span>","null","html-keyboard-response","40","135418","0.0-7.0-1.0-1.0-0.0-1.15","1","2","2","1","1","2","2","1","2","1","2","1","2","1","2","2","2","1","2","1","4","5","4","5","5","4","4","1","5","1","0","1","1","0","0","1","1","0","1","1","1","1","0","1","4","5","5","4","5","","5","4","5","1","1","789416392486293505","王","104","","","","","","","","","","","","","","","","","","","","","","","","","","","","","","feedback_test","","","","","","","","","","","",""
"714","","j","psychophysics","41","137134","0.0-7.0-1.0-1.0-0.0-0.16","1","2","2","1","1","2","2","1","2","1","2","1","2","1","2","2","2","1","2","1","4","5","4","5","5","4","4","1","5","1","0","1","1","0","0","1","1","0","1","1","1","1","0","1","4","5","5","4","5","","5","4","5","1","1","789416392486293505","王","104","","","","nonmatch","","","","","","","","","","","","","","key","j","16.621274509803875","960","536","j","true","nonmatch","img/diamond.png","三角","菱形","ALT1_2","prac_ALT1_2","","","","","","","","","","","",""
"null","<span style='color:GreenYellow; font-size: 70px;'>正确! </span>","null","html-keyboard-response","42","137636","0.0-7.0-1.0-1.0-0.0-1.16","1","2","2","1","1","2","2","1","2","1","2","1","2","1","2","2","2","1","2","1","4","5","4","5","5","4","4","1","5","1","0","1","1","0","0","1","1","0","1","1","1","1","0","1","4","5","5","4","5","","5","4","5","1","1","789416392486293505","王","104","","","","","","","","","","","","","","","","","","","","","","","","","","","","","","feedback_test","","","","","","","","","","","",""
"732","","j","psychophysics","43","139370","0.0-7.0-1.0-1.0-0.0-0.17","1","2","2","1","1","2","2","1","2","1","2","1","2","1","2","2","2","1","2","1","4","5","4","5","5","4","4","1","5","1","0","1","1","0","0","1","1","0","1","1","1","1","0","1","4","5","5","4","5","","5","4","5","1","1","789416392486293505","王","104","","","","nonmatch","","","","","","","","","","","","","","key","j","16.64911764705903","960","536","j","true","nonmatch","img/triangle.png","菱形","三角","ALT1_2","prac_ALT1_2","","","","","","","","","","","",""
"null","<span style='color:GreenYellow; font-size: 70px;'>正确! </span>","null","html-keyboard-response","44","139871","0.0-7.0-1.0-1.0-0.0-1.17","1","2","2","1","1","2","2","1","2","1","2","1","2","1","2","2","2","1","2","1","4","5","4","5","5","4","4","1","5","1","0","1","1","0","0","1","1","0","1","1","1","1","0","1","4","5","5","4","5","","5","4","5","1","1","789416392486293505","王","104","","","","","","","","","","","","","","","","","","","","","","","","","","","","","","feedback_test","","","","","","","","","","","",""
"607","","j","psychophysics","45","141480","0.0-7.0-1.0-1.0-0.0-0.18","1","2","2","1","1","2","2","1","2","1","2","1","2","1","2","2","2","1","2","1","4","5","4","5","5","4","4","1","5","1","0","1","1","0","0","1","1","0","1","1","1","1","0","1","4","5","5","4","5","","5","4","5","1","1","789416392486293505","王","104","","","","nonmatch","","","","","","","","","","","","","","key","j","16.652684210526363","960","536","j","true","nonmatch","img/pentagon.png","圆形","五边","ALT1_2","prac_ALT1_2","","","","","","","","","","","",""
"null","<span style='color:GreenYellow; font-size: 70px;'>正确! </span>","null","html-keyboard-response","46","141981","0.0-7.0-1.0-1.0-0.0-1.18","1","2","2","1","1","2","2","1","2","1","2","1","2","1","2","2","2","1","2","1","4","5","4","5","5","4","4","1","5","1","0","1","1","0","0","1","1","0","1","1","1","1","0","1","4","5","5","4","5","","5","4","5","1","1","789416392486293505","王","104","","","","","","","","","","","","","","","","","","","","","","","","","","","","","","feedback_test","","","","","","","","","","","",""
"578","","j","psychophysics","47","143560","0.0-7.0-1.0-1.0-0.0-0.19","1","2","2","1","1","2","2","1","2","1","2","1","2","1","2","2","2","1","2","1","4","5","4","5","5","4","4","1","5","1","0","1","1","0","0","1","1","0","1","1","1","1","0","1","4","5","5","4","5","","5","4","5","1","1","789416392486293505","王","104","","","","nonmatch","","","","","","","","","","","","","","key","j","16.649258064516065","960","536","j","true","nonmatch","img/circle.png","菱形","圆形","ALT1_2","prac_ALT1_2","","","","","","","","","","","",""
"null","<span style='color:GreenYellow; font-size: 70px;'>正确! </span>","null","html-keyboard-response","48","144061","0.0-7.0-1.0-1.0-0.0-1.19","1","2","2","1","1","2","2","1","2","1","2","1","2","1","2","2","2","1","2","1","4","5","4","5","5","4","4","1","5","1","0","1","1","0","0","1","1","0","1","1","1","1","0","1","4","5","5","4","5","","5","4","5","1","1","789416392486293505","王","104","","","","","","","","","","","","","","","","","","","","","","","","","","","","","","feedback_test","","","","","","","","","","","",""
"596","","f","psychophysics","49","145660","0.0-7.0-1.0-1.0-0.0-0.20","1","2","2","1","1","2","2","1","2","1","2","1","2","1","2","2","2","1","2","1","4","5","4","5","5","4","4","1","5","1","0","1","1","0","0","1","1","0","1","1","1","1","0","1","4","5","5","4","5","","5","4","5","1","1","789416392486293505","王","104","","","","match","","","","","","","","","","","","","","key","f","16.649500000000153","960","536","f","true","match","img/circle.png","圆形","圆形","ALT1_2","prac_ALT1_2","","","","","","","","","","","",""
"null","<span style='color:GreenYellow; font-size: 70px;'>正确! </span>","null","html-keyboard-response","50","146162","0.0-7.0-1.0-1.0-0.0-1.20","1","2","2","1","1","2","2","1","2","1","2","1","2","1","2","2","2","1","2","1","4","5","4","5","5","4","4","1","5","1","0","1","1","0","0","1","1","0","1","1","1","1","0","1","4","5","5","4","5","","5","4","5","1","1","789416392486293505","王","104","","","","","","","","","","","","","","","","","","","","","","","","","","","","","","feedback_test","","","","","","","","","","","",""
"554","","j","psychophysics","51","147717","0.0-7.0-1.0-1.0-0.0-0.21","1","2","2","1","1","2","2","1","2","1","2","1","2","1","2","2","2","1","2","1","4","5","4","5","5","4","4","1","5","1","0","1","1","0","0","1","1","0","1","1","1","1","0","1","4","5","5","4","5","","5","4","5","1","1","789416392486293505","王","104","","","","nonmatch","","","","","","","","","","","","","","key","j","16.651934782608727","960","536","j","true","nonmatch","img/circle.png","三角","圆形","ALT1_2","prac_ALT1_2","","","","","","","","","","","",""
"null","<span style='color:GreenYellow; font-size: 70px;'>正确! </span>","null","html-keyboard-response","52","148219","0.0-7.0-1.0-1.0-0.0-1.21","1","2","2","1","1","2","2","1","2","1","2","1","2","1","2","2","2","1","2","1","4","5","4","5","5","4","4","1","5","1","0","1","1","0","0","1","1","0","1","1","1","1","0","1","4","5","5","4","5","","5","4","5","1","1","789416392486293505","王","104","","","","","","","","","","","","","","","","","","","","","","","","","","","","","","feedback_test","","","","","","","","","","","",""
"581","","j","psychophysics","53","149802","0.0-7.0-1.0-1.0-0.0-0.22","1","2","2","1","1","2","2","1","2","1","2","1","2","1","2","2","2","1","2","1","4","5","4","5","5","4","4","1","5","1","0","1","1","0","0","1","1","0","1","1","1","1","0","1","4","5","5","4","5","","5","4","5","1","1","789416392486293505","王","104","","","","nonmatch","","","","","","","","","","","","","","key","j","16.652191489361513","960","536","j","true","nonmatch","img/triangle.png","圆形","三角","ALT1_2","prac_ALT1_2","","","","","","","","","","","",""
"null","<span style='color:GreenYellow; font-size: 70px;'>正确! </span>","null","html-keyboard-response","54","150304","0.0-7.0-1.0-1.0-0.0-1.22","1","2","2","1","1","2","2","1","2","1","2","1","2","1","2","2","2","1","2","1","4","5","4","5","5","4","4","1","5","1","0","1","1","0","0","1","1","0","1","1","1","1","0","1","4","5","5","4","5","","5","4","5","1","1","789416392486293505","王","104","","","","","","","","","","","","","","","","","","","","","","","","","","","","","","feedback_test","","","","","","","","","","","",""
"635","","f","psychophysics","55","151941","0.0-7.0-1.0-1.0-0.0-0.23","1","2","2","1","1","2","2","1","2","1","2","1","2","1","2","2","2","1","2","1","4","5","4","5","5","4","4","1","5","1","0","1","1","0","0","1","1","0","1","1","1","1","0","1","4","5","5","4","5","","5","4","5","1","1","789416392486293505","王","104","","","","match","","","","","","","","","","","","","","key","f","16.652218750000127","960","536","f","true","match","img/pentagon.png","五边","五边","ALT1_2","prac_ALT1_2","","","","","","","","","","","",""
"null","<span style='color:GreenYellow; font-size: 70px;'>正确! </span>","null","html-keyboard-response","56","152442","0.0-7.0-1.0-1.0-0.0-1.23","1","2","2","1","1","2","2","1","2","1","2","1","2","1","2","2","2","1","2","1","4","5","4","5","5","4","4","1","5","1","0","1","1","0","0","1","1","0","1","1","1","1","0","1","4","5","5","4","5","","5","4","5","1","1","789416392486293505","王","104","","","","","","","","","","","","","","","","","","","","","","","","","","","","","","feedback_test","","","","","","","","","","","",""
"623","","j","psychophysics","57","154068","0.0-7.0-1.0-1.0-0.0-0.24","1","2","2","1","1","2","2","1","2","1","2","1","2","1","2","2","2","1","2","1","4","5","4","5","5","4","4","1","5","1","0","1","1","0","0","1","1","0","1","1","1","1","0","1","4","5","5","4","5","","5","4","5","1","1","789416392486293505","王","104","","","","nonmatch","","","","","","","","","","","","","","key","j","16.829999999999753","960","536","j","true","nonmatch","img/diamond.png","五边","菱形","ALT1_2","prac_ALT1_2","","","","","","","","","","","",""
"null","<span style='color:GreenYellow; font-size: 70px;'>正确! </span>","null","html-keyboard-response","58","154569","0.0-7.0-1.0-1.0-0.0-1.24","1","2","2","1","1","2","2","1","2","1","2","1","2","1","2","2","2","1","2","1","4","5","4","5","5","4","4","1","5","1","0","1","1","0","0","1","1","0","1","1","1","1","0","1","4","5","5","4","5","","5","4","5","1","1","789416392486293505","王","104","","","","","","","","","","","","","","","","","","","","","","","","","","","","","","feedback_test","","","","","","","","","","","",""
"681","","f","psychophysics","59","156252","0.0-7.0-1.0-1.0-0.0-0.25","1","2","2","1","1","2","2","1","2","1","2","1","2","1","2","2","2","1","2","1","4","5","4","5","5","4","4","1","5","1","0","1","1","0","0","1","1","0","1","1","1","1","0","1","4","5","5","4","5","","5","4","5","1","1","789416392486293505","王","104","","","","match","","","","","","","","","","","","","","key","f","16.59451000000001","960","536","j","false","nonmatch","img/pentagon.png","菱形","五边","ALT1_2","prac_ALT1_2","","","","","","","","","","","",""
"null","<span style='color:red; font-size: 70px;'>错误! </span>","null","html-keyboard-response","60","156754","0.0-7.0-1.0-1.0-0.0-1.25","1","2","2","1","1","2","2","1","2","1","2","1","2","1","2","2","2","1","2","1","4","5","4","5","5","4","4","1","5","1","0","1","1","0","0","1","1","0","1","1","1","1","0","1","4","5","5","4","5","","5","4","5","1","1","789416392486293505","王","104","","","","","","","","","","","","","","","","","","","","","","","","","","","","","","feedback_test","","","","","","","","","","","",""
"647","","f","psychophysics","61","158404","0.0-7.0-1.0-1.0-0.0-0.26","1","2","2","1","1","2","2","1","2","1","2","1","2","1","2","2","2","1","2","1","4","5","4","5","5","4","4","1","5","1","0","1","1","0","0","1","1","0","1","1","1","1","0","1","4","5","5","4","5","","5","4","5","1","1","789416392486293505","王","104","","","","match","","","","","","","","","","","","","","key","f","16.64638775510224","960","536","j","false","nonmatch","img/triangle.png","五边","三角","ALT1_2","prac_ALT1_2","","","","","","","","","","","",""
"null","<span style='color:red; font-size: 70px;'>错误! </span>","null","html-keyboard-response","62","158905","0.0-7.0-1.0-1.0-0.0-1.26","1","2","2","1","1","2","2","1","2","1","2","1","2","1","2","2","2","1","2","1","4","5","4","5","5","4","4","1","5","1","0","1","1","0","0","1","1","0","1","1","1","1","0","1","4","5","5","4","5","","5","4","5","1","1","789416392486293505","王","104","","","","","","","","","","","","","","","","","","","","","","","","","","","","","","feedback_test","","","","","","","","","","","",""
"901","","f","psychophysics","63","160808","0.0-7.0-1.0-1.0-0.0-0.27","1","2","2","1","1","2","2","1","2","1","2","1","2","1","2","2","2","1","2","1","4","5","4","5","5","4","4","1","5","1","0","1","1","0","0","1","1","0","1","1","1","1","0","1","4","5","5","4","5","","5","4","5","1","1","789416392486293505","王","104","","","","match","","","","","","","","","","","","","","key","f","16.642309734513066","960","536","f","true","match","img/circle.png","圆形","圆形","ALT1_2","prac_ALT1_2","","","","","","","","","","","",""
"null","<span style='color:GreenYellow; font-size: 70px;'>正确! </span>","null","html-keyboard-response","64","161309","0.0-7.0-1.0-1.0-0.0-1.27","1","2","2","1","1","2","2","1","2","1","2","1","2","1","2","2","2","1","2","1","4","5","4","5","5","4","4","1","5","1","0","1","1","0","0","1","1","0","1","1","1","1","0","1","4","5","5","4","5","","5","4","5","1","1","789416392486293505","王","104","","","","","","","","","","","","","","","","","","","","","","","","","","","","","","feedback_test","","","","","","","","","","","",""
"1075","","j","psychophysics","65","163385","0.0-7.0-1.0-1.0-0.0-0.28","1","2","2","1","1","2","2","1","2","1","2","1","2","1","2","2","2","1","2","1","4","5","4","5","5","4","4","1","5","1","0","1","1","0","0","1","1","0","1","1","1","1","0","1","4","5","5","4","5","","5","4","5","1","1","789416392486293505","王","104","","","","nonmatch","","","","","","","","","","","","","","key","j","16.647250000000163","960","536","f","false","match","img/circle.png","圆形","圆形","ALT1_2","prac_ALT1_2","","","","","","","","","","","",""
"null","<span style='color:red; font-size: 70px;'>错误! </span>","null","html-keyboard-response","66","163887","0.0-7.0-1.0-1.0-0.0-1.28","1","2","2","1","1","2","2","1","2","1","2","1","2","1","2","2","2","1","2","1","4","5","4","5","5","4","4","1","5","1","0","1","1","0","0","1","1","0","1","1","1","1","0","1","4","5","5","4","5","","5","4","5","1","1","789416392486293505","王","104","","","","","","","","","","","","","","","","","","","","","","","","","","","","","","feedback_test","","","","","","","","","","","",""
"869","","f","psychophysics","67","165758","0.0-7.0-1.0-1.0-0.0-0.29","1","2","2","1","1","2","2","1","2","1","2","1","2","1","2","2","2","1","2","1","4","5","4","5","5","4","4","1","5","1","0","1","1","0","0","1","1","0","1","1","1","1","0","1","4","5","5","4","5","","5","4","5","1","1","789416392486293505","王","104","","","","match","","","","","","","","","","","","","","key","f","16.626072072072127","960","536","j","false","nonmatch","img/circle.png","菱形","圆形","ALT1_2","prac_ALT1_2","","","","","","","","","","","",""
"null","<span style='color:red; font-size: 70px;'>错误! </span>","null","html-keyboard-response","68","166259","0.0-7.0-1.0-1.0-0.0-1.29","1","2","2","1","1","2","2","1","2","1","2","1","2","1","2","2","2","1","2","1","4","5","4","5","5","4","4","1","5","1","0","1","1","0","0","1","1","0","1","1","1","1","0","1","4","5","5","4","5","","5","4","5","1","1","789416392486293505","王","104","","","","","","","","","","","","","","","","","","","","","","","","","","","","","","feedback_test","","","","","","","","","","","",""
"774","","j","psychophysics","69","168034","0.0-7.0-1.0-1.0-0.0-0.30","1","2","2","1","1","2","2","1","2","1","2","1","2","1","2","2","2","1","2","1","4","5","4","5","5","4","4","1","5","1","0","1","1","0","0","1","1","0","1","1","1","1","0","1","4","5","5","4","5","","5","4","5","1","1","789416392486293505","王","104","","","","nonmatch","","","","","","","","","","","","","","key","j","16.65113333333339","960","536","j","true","nonmatch","img/diamond.png","三角","菱形","ALT1_2","prac_ALT1_2","","","","","","","","","","","",""
"null","<span style='color:GreenYellow; font-size: 70px;'>正确! </span>","null","html-keyboard-response","70","168536","0.0-7.0-1.0-1.0-0.0-1.30","1","2","2","1","1","2","2","1","2","1","2","1","2","1","2","2","2","1","2","1","4","5","4","5","5","4","4","1","5","1","0","1","1","0","0","1","1","0","1","1","1","1","0","1","4","5","5","4","5","","5","4","5","1","1","789416392486293505","王","104","","","","","","","","","","","","","","","","","","","","","","","","","","","","","","feedback_test","","","","","","","","","","","",""
"673","","j","psychophysics","71","170212","0.0-7.0-1.0-1.0-0.0-0.31","1","2","2","1","1","2","2","1","2","1","2","1","2","1","2","2","2","1","2","1","4","5","4","5","5","4","4","1","5","1","0","1","1","0","0","1","1","0","1","1","1","1","0","1","4","5","5","4","5","","5","4","5","1","1","789416392486293505","王","104","","","","nonmatch","","","","","","","","","","","","","","key","j","16.652212121212006","960","536","j","true","nonmatch","img/pentagon.png","圆形","五边","ALT1_2","prac_ALT1_2","","","","","","","","","","","",""
"null","<span style='color:GreenYellow; font-size: 70px;'>正确! </span>","null","html-keyboard-response","72","170713","0.0-7.0-1.0-1.0-0.0-1.31","1","2","2","1","1","2","2","1","2","1","2","1","2","1","2","2","2","1","2","1","4","5","4","5","5","4","4","1","5","1","0","1","1","0","0","1","1","0","1","1","1","1","0","1","4","5","5","4","5","","5","4","5","1","1","789416392486293505","王","104","","","","","","","","","","","","","","","","","","","","","","","","","","","","","","feedback_test","","","","","","","","","","","",""
"664","","j","psychophysics","73","172379","0.0-7.0-1.0-1.0-0.0-0.32","1","2","2","1","1","2","2","1","2","1","2","1","2","1","2","2","2","1","2","1","4","5","4","5","5","4","4","1","5","1","0","1","1","0","0","1","1","0","1","1","1","1","0","1","4","5","5","4","5","","5","4","5","1","1","789416392486293505","王","104","","","","nonmatch","","","","","","","","","","","","","","key","j","16.648292929293046","960","536","j","true","nonmatch","img/triangle.png","菱形","三角","ALT1_2","prac_ALT1_2","","","","","","","","","","","",""
"null","<span style='color:GreenYellow; font-size: 70px;'>正确! </span>","null","html-keyboard-response","74","172881","0.0-7.0-1.0-1.0-0.0-1.32","1","2","2","1","1","2","2","1","2","1","2","1","2","1","2","2","2","1","2","1","4","5","4","5","5","4","4","1","5","1","0","1","1","0","0","1","1","0","1","1","1","1","0","1","4","5","5","4","5","","5","4","5","1","1","789416392486293505","王","104","","","","","","","","","","","","","","","","","","","","","","","","","","","","","","feedback_test","","","","","","","","","","","",""
"695","","j","psychophysics","75","174577","0.0-7.0-1.0-1.0-0.0-0.33","1","2","2","1","1","2","2","1","2","1","2","1","2","1","2","2","2","1","2","1","4","5","4","5","5","4","4","1","5","1","0","1","1","0","0","1","1","0","1","1","1","1","0","1","4","5","5","4","5","","5","4","5","1","1","789416392486293505","王","104","","","","nonmatch","","","","","","","","","","","","","","key","j","16.650396039603983","960","536","j","true","nonmatch","img/triangle.png","圆形","三角","ALT1_2","prac_ALT1_2","","","","","","","","","","","",""
"null","<span style='color:GreenYellow; font-size: 70px;'>正确! </span>","null","html-keyboard-response","76","175078","0.0-7.0-1.0-1.0-0.0-1.33","1","2","2","1","1","2","2","1","2","1","2","1","2","1","2","2","2","1","2","1","4","5","4","5","5","4","4","1","5","1","0","1","1","0","0","1","1","0","1","1","1","1","0","1","4","5","5","4","5","","5","4","5","1","1","789416392486293505","王","104","","","","","","","","","","","","","","","","","","","","","","","","","","","","","","feedback_test","","","","","","","","","","","",""
"859","","f","psychophysics","77","176939","0.0-7.0-1.0-1.0-0.0-0.34","1","2","2","1","1","2","2","1","2","1","2","1","2","1","2","2","2","1","2","1","4","5","4","5","5","4","4","1","5","1","0","1","1","0","0","1","1","0","1","1","1","1","0","1","4","5","5","4","5","","5","4","5","1","1","789416392486293505","王","104","","","","match","","","","","","","","","","","","","","key","f","16.650936936936812","960","536","f","true","match","img/pentagon.png","五边","五边","ALT1_2","prac_ALT1_2","","","","","","","","","","","",""
"null","<span style='color:GreenYellow; font-size: 70px;'>正确! </span>","null","html-keyboard-response","78","177439","0.0-7.0-1.0-1.0-0.0-1.34","1","2","2","1","1","2","2","1","2","1","2","1","2","1","2","2","2","1","2","1","4","5","4","5","5","4","4","1","5","1","0","1","1","0","0","1","1","0","1","1","1","1","0","1","4","5","5","4","5","","5","4","5","1","1","789416392486293505","王","104","","","","","","","","","","","","","","","","","","","","","","","","","","","","","","feedback_test","","","","","","","","","","","",""
"1101","","j","psychophysics","79","179542","0.0-7.0-1.0-1.0-0.0-0.35","1","2","2","1","1","2","2","1","2","1","2","1","2","1","2","2","2","1","2","1","4","5","4","5","5","4","4","1","5","1","0","1","1","0","0","1","1","0","1","1","1","1","0","1","4","5","5","4","5","","5","4","5","1","1","789416392486293505","王","104","","","","nonmatch","","","","","","","","","","","","","","key","j","16.651039999999803","960","536","f","false","match","img/diamond.png","菱形","菱形","ALT1_2","prac_ALT1_2","","","","","","","","","","","",""
"null","<span style='color:red; font-size: 70px;'>错误! </span>","null","html-keyboard-response","80","180044","0.0-7.0-1.0-1.0-0.0-1.35","1","2","2","1","1","2","2","1","2","1","2","1","2","1","2","2","2","1","2","1","4","5","4","5","5","4","4","1","5","1","0","1","1","0","0","1","1","0","1","1","1","1","0","1","4","5","5","4","5","","5","4","5","1","1","789416392486293505","王","104","","","","","","","","","","","","","","","","","","","","","","","","","","","","","","feedback_test","","","","","","","","","","","",""
"963","","f","psychophysics","81","182009","0.0-7.0-1.0-1.0-0.0-0.36","1","2","2","1","1","2","2","1","2","1","2","1","2","1","2","2","2","1","2","1","4","5","4","5","5","4","4","1","5","1","0","1","1","0","0","1","1","0","1","1","1","1","0","1","4","5","5","4","5","","5","4","5","1","1","789416392486293505","王","104","","","","match","","","","","","","","","","","","","","key","f","16.65092241379296","960","536","f","true","match","img/pentagon.png","五边","五边","ALT1_2","prac_ALT1_2","","","","","","","","","","","",""
"null","<span style='color:GreenYellow; font-size: 70px;'>正确! </span>","null","html-keyboard-response","82","182510","0.0-7.0-1.0-1.0-0.0-1.36","1","2","2","1","1","2","2","1","2","1","2","1","2","1","2","2","2","1","2","1","4","5","4","5","5","4","4","1","5","1","0","1","1","0","0","1","1","0","1","1","1","1","0","1","4","5","5","4","5","","5","4","5","1","1","789416392486293505","王","104","","","","","","","","","","","","","","","","","","","","","","","","","","","","","","feedback_test","","","","","","","","","","","",""
"703","","f","psychophysics","83","184215","0.0-7.0-1.0-1.0-0.0-0.37","1","2","2","1","1","2","2","1","2","1","2","1","2","1","2","2","2","1","2","1","4","5","4","5","5","4","4","1","5","1","0","1","1","0","0","1","1","0","1","1","1","1","0","1","4","5","5","4","5","","5","4","5","1","1","789416392486293505","王","104","","","","match","","","","","","","","","","","","","","key","f","16.652475247524695","960","536","f","true","match","img/triangle.png","三角","三角","ALT1_2","prac_ALT1_2","","","","","","","","","","","",""
"null","<span style='color:GreenYellow; font-size: 70px;'>正确! </span>","null","html-keyboard-response","84","184716","0.0-7.0-1.0-1.0-0.0-1.37","1","2","2","1","1","2","2","1","2","1","2","1","2","1","2","2","2","1","2","1","4","5","4","5","5","4","4","1","5","1","0","1","1","0","0","1","1","0","1","1","1","1","0","1","4","5","5","4","5","","5","4","5","1","1","789416392486293505","王","104","","","","","","","","","","","","","","","","","","","","","","","","","","","","","","feedback_test","","","","","","","","","","","",""
"719","","f","psychophysics","85","186437","0.0-7.0-1.0-1.0-0.0-0.38","1","2","2","1","1","2","2","1","2","1","2","1","2","1","2","2","2","1","2","1","4","5","4","5","5","4","4","1","5","1","0","1","1","0","0","1","1","0","1","1","1","1","0","1","4","5","5","4","5","","5","4","5","1","1","789416392486293505","王","104","","","","match","","","","","","","","","","","","","","key","f","16.650627450980405","960","536","j","false","nonmatch","img/circle.png","三角","圆形","ALT1_2","prac_ALT1_2","","","","","","","","","","","",""
"null","<span style='color:red; font-size: 70px;'>错误! </span>","null","html-keyboard-response","86","186938","0.0-7.0-1.0-1.0-0.0-1.38","1","2","2","1","1","2","2","1","2","1","2","1","2","1","2","2","2","1","2","1","4","5","4","5","5","4","4","1","5","1","0","1","1","0","0","1","1","0","1","1","1","1","0","1","4","5","5","4","5","","5","4","5","1","1","789416392486293505","王","104","","","","","","","","","","","","","","","","","","","","","","","","","","","","","","feedback_test","","","","","","","","","","","",""
"1115","","j","psychophysics","87","189054","0.0-7.0-1.0-1.0-0.0-0.39","1","2","2","1","1","2","2","1","2","1","2","1","2","1","2","2","2","1","2","1","4","5","4","5","5","4","4","1","5","1","0","1","1","0","0","1","1","0","1","1","1","1","0","1","4","5","5","4","5","","5","4","5","1","1","789416392486293505","王","104","","","","nonmatch","","","","","","","","","","","","","","key","j","16.778475806451752","960","536","j","true","nonmatch","img/pentagon.png","三角","五边","ALT1_2","prac_ALT1_2","","","","","","","","","","","",""
"null","<span style='color:GreenYellow; font-size: 70px;'>正确! </span>","null","html-keyboard-response","88","189555","0.0-7.0-1.0-1.0-0.0-1.39","1","2","2","1","1","2","2","1","2","1","2","1","2","1","2","2","2","1","2","1","4","5","4","5","5","4","4","1","5","1","0","1","1","0","0","1","1","0","1","1","1","1","0","1","4","5","5","4","5","","5","4","5","1","1","789416392486293505","王","104","","","","","","","","","","","","","","","","","","","","","","","","","","","","","","feedback_test","","","","","","","","","","","",""
"776","","f","psychophysics","89","191333","0.0-7.0-1.0-1.0-0.0-0.40","1","2","2","1","1","2","2","1","2","1","2","1","2","1","2","2","2","1","2","1","4","5","4","5","5","4","4","1","5","1","0","1","1","0","0","1","1","0","1","1","1","1","0","1","4","5","5","4","5","","5","4","5","1","1","789416392486293505","王","104","","","","match","","","","","","","","","","","","","","key","f","16.6490095238096","960","536","f","true","match","img/pentagon.png","五边","五边","ALT1_2","prac_ALT1_2","","","","","","","","","","","",""
"null","<span style='color:GreenYellow; font-size: 70px;'>正确! </span>","null","html-keyboard-response","90","191834","0.0-7.0-1.0-1.0-0.0-1.40","1","2","2","1","1","2","2","1","2","1","2","1","2","1","2","2","2","1","2","1","4","5","4","5","5","4","4","1","5","1","0","1","1","0","0","1","1","0","1","1","1","1","0","1","4","5","5","4","5","","5","4","5","1","1","789416392486293505","王","104","","","","","","","","","","","","","","","","","","","","","","","","","","","","","","feedback_test","","","","","","","","","","","",""
"596","","f","psychophysics","91","193432","0.0-7.0-1.0-1.0-0.0-0.41","1","2","2","1","1","2","2","1","2","1","2","1","2","1","2","2","2","1","2","1","4","5","4","5","5","4","4","1","5","1","0","1","1","0","0","1","1","0","1","1","1","1","0","1","4","5","5","4","5","","5","4","5","1","1","789416392486293505","王","104","","","","match","","","","","","","","","","","","","","key","f","16.631191489361957","960","536","f","true","match","img/triangle.png","三角","三角","ALT1_2","prac_ALT1_2","","","","","","","","","","","",""
"null","<span style='color:GreenYellow; font-size: 70px;'>正确! </span>","null","html-keyboard-response","92","193934","0.0-7.0-1.0-1.0-0.0-1.41","1","2","2","1","1","2","2","1","2","1","2","1","2","1","2","2","2","1","2","1","4","5","4","5","5","4","4","1","5","1","0","1","1","0","0","1","1","0","1","1","1","1","0","1","4","5","5","4","5","","5","4","5","1","1","789416392486293505","王","104","","","","","","","","","","","","","","","","","","","","","","","","","","","","","","feedback_test","","","","","","","","","","","",""
"638","","j","psychophysics","93","195573","0.0-7.0-1.0-1.0-0.0-0.42","1","2","2","1","1","2","2","1","2","1","2","1","2","1","2","2","2","1","2","1","4","5","4","5","5","4","4","1","5","1","0","1","1","0","0","1","1","0","1","1","1","1","0","1","4","5","5","4","5","","5","4","5","1","1","789416392486293505","王","104","","","","nonmatch","","","","","","","","","","","","","","key","j","16.637855670103125","960","536","j","true","nonmatch","img/circle.png","五边","圆形","ALT1_2","prac_ALT1_2","","","","","","","","","","","",""
"null","<span style='color:GreenYellow; font-size: 70px;'>正确! </span>","null","html-keyboard-response","94","196074","0.0-7.0-1.0-1.0-0.0-1.42","1","2","2","1","1","2","2","1","2","1","2","1","2","1","2","2","2","1","2","1","4","5","4","5","5","4","4","1","5","1","0","1","1","0","0","1","1","0","1","1","1","1","0","1","4","5","5","4","5","","5","4","5","1","1","789416392486293505","王","104","","","","","","","","","","","","","","","","","","","","","","","","","","","","","","feedback_test","","","","","","","","","","","",""
"null","","null","psychophysics","95","198277","0.0-7.0-1.0-1.0-0.0-0.43","1","2","2","1","1","2","2","1","2","1","2","1","2","1","2","2","2","1","2","1","4","5","4","5","5","4","4","1","5","1","0","1","1","0","0","1","1","0","1","1","1","1","0","1","4","5","5","4","5","","5","4","5","1","1","789416392486293505","王","104","","","","null","","","","","","","","","","","","","","key","null","16.644824427480984","960","536","f","false","match","img/diamond.png","菱形","菱形","ALT1_2","prac_ALT1_2","","","","","","","","","","","",""
"null","<span class='add_' style='color:yellow; font-size: 70px;'> 太慢! </span>","null","html-keyboard-response","96","198780","0.0-7.0-1.0-1.0-0.0-1.43","1","2","2","1","1","2","2","1","2","1","2","1","2","1","2","2","2","1","2","1","4","5","4","5","5","4","4","1","5","1","0","1","1","0","0","1","1","0","1","1","1","1","0","1","4","5","5","4","5","","5","4","5","1","1","789416392486293505","王","104","","","","","","","","","","","","","","","","","","","","","","","","","","","","","","feedback_test","","","","","","","","","","","",""
"1049","","j","psychophysics","97","200831","0.0-7.0-1.0-1.0-0.0-0.44","1","2","2","1","1","2","2","1","2","1","2","1","2","1","2","2","2","1","2","1","4","5","4","5","5","4","4","1","5","1","0","1","1","0","0","1","1","0","1","1","1","1","0","1","4","5","5","4","5","","5","4","5","1","1","789416392486293505","王","104","","","","nonmatch","","","","","","","","","","","","","","key","j","16.648631147540996","960","536","j","true","nonmatch","img/diamond.png","圆形","菱形","ALT1_2","prac_ALT1_2","","","","","","","","","","","",""
"null","<span style='color:GreenYellow; font-size: 70px;'>正确! </span>","null","html-keyboard-response","98","201333","0.0-7.0-1.0-1.0-0.0-1.44","1","2","2","1","1","2","2","1","2","1","2","1","2","1","2","2","2","1","2","1","4","5","4","5","5","4","4","1","5","1","0","1","1","0","0","1","1","0","1","1","1","1","0","1","4","5","5","4","5","","5","4","5","1","1","789416392486293505","王","104","","","","","","","","","","","","","","","","","","","","","","","","","","","","","","feedback_test","","","","","","","","","","","",""
"681","","f","psychophysics","99","203015","0.0-7.0-1.0-1.0-0.0-0.45","1","2","2","1","1","2","2","1","2","1","2","1","2","1","2","2","2","1","2","1","4","5","4","5","5","4","4","1","5","1","0","1","1","0","0","1","1","0","1","1","1","1","0","1","4","5","5","4","5","","5","4","5","1","1","789416392486293505","王","104","","","","match","","","","","","","","","","","","","","key","f","16.651239999999817","960","536","f","true","match","img/diamond.png","菱形","菱形","ALT1_2","prac_ALT1_2","","","","","","","","","","","",""
"null","<span style='color:GreenYellow; font-size: 70px;'>正确! </span>","null","html-keyboard-response","100","203516","0.0-7.0-1.0-1.0-0.0-1.45","1","2","2","1","1","2","2","1","2","1","2","1","2","1","2","2","2","1","2","1","4","5","4","5","5","4","4","1","5","1","0","1","1","0","0","1","1","0","1","1","1","1","0","1","4","5","5","4","5","","5","4","5","1","1","789416392486293505","王","104","","","","","","","","","","","","","","","","","","","","","","","","","","","","","","feedback_test","","","","","","","","","","","",""
"864","","f","psychophysics","101","205382","0.0-7.0-1.0-1.0-0.0-0.46","1","2","2","1","1","2","2","1","2","1","2","1","2","1","2","2","2","1","2","1","4","5","4","5","5","4","4","1","5","1","0","1","1","0","0","1","1","0","1","1","1","1","0","1","4","5","5","4","5","","5","4","5","1","1","789416392486293505","王","104","","","","match","","","","","","","","","","","","","","key","f","16.64990090090086","960","536","f","true","match","img/circle.png","圆形","圆形","ALT1_2","prac_ALT1_2","","","","","","","","","","","",""
"null","<span style='color:GreenYellow; font-size: 70px;'>正确! </span>","null","html-keyboard-response","102","205883","0.0-7.0-1.0-1.0-0.0-1.46","1","2","2","1","1","2","2","1","2","1","2","1","2","1","2","2","2","1","2","1","4","5","4","5","5","4","4","1","5","1","0","1","1","0","0","1","1","0","1","1","1","1","0","1","4","5","5","4","5","","5","4","5","1","1","789416392486293505","王","104","","","","","","","","","","","","","","","","","","","","","","","","","","","","","","feedback_test","","","","","","","","","","","",""
"787","","f","psychophysics","103","207673","0.0-7.0-1.0-1.0-0.0-0.47","1","2","2","1","1","2","2","1","2","1","2","1","2","1","2","2","2","1","2","1","4","5","4","5","5","4","4","1","5","1","0","1","1","0","0","1","1","0","1","1","1","1","0","1","4","5","5","4","5","","5","4","5","1","1","789416392486293505","王","104","","","","match","","","","","","","","","","","","","","key","f","16.810547169811368","960","536","f","true","match","img/triangle.png","三角","三角","ALT1_2","prac_ALT1_2","","","","","","","","","","","",""
"null","<span style='color:GreenYellow; font-size: 70px;'>正确! </span>","null","html-keyboard-response","104","208174","0.0-7.0-1.0-1.0-0.0-1.47","1","2","2","1","1","2","2","1","2","1","2","1","2","1","2","2","2","1","2","1","4","5","4","5","5","4","4","1","5","1","0","1","1","0","0","1","1","0","1","1","1","1","0","1","4","5","5","4","5","","5","4","5","1","1","789416392486293505","王","104","","","","","","","","","","","","","","","","","","","","","","","","","","","","","","feedback_test","","","","","","","","","","","",""
"4422","<style>.context{color:white; font-size: 35px; line-height:40px}</style>                          <div><p class='context'>您正确回答了71% 的试次。</p><p class='context'>您的平均反应时为695毫秒。</p><p class='context'>恭喜您完成练习。按空格键进入正式实验。</p><p class='footer' style='font-size: 35px; line-height:40px;'>请在进入正式实验实验之前将您的<span style='color: lightgreen;'>食指</span>放在电脑键盘的相应键位上进行按键。</p>"," ","html-keyboard-response","105","212598","0.0-7.0-1.0-2.0","1","2","2","1","1","2","2","1","2","1","2","1","2","1","2","2","2","1","2","1","4","5","4","5","5","4","4","1","5","1","0","1","1","0","0","1","1","0","1","1","1","1","0","1","4","5","5","4","5","","5","4","5","1","1","789416392486293505","王","104","","","","","","","","","","","","","","","","","","","","","","","","","","","","","","","","","","","","","","","","","",""
"2705","
  <p style='color: white; font-size: 22px'>请您将手指放在按键上，准备进入正式的匹配任务。</p>
  <p> <div style = ""color: green""><按空格键进入下一阶段的匹配任务></div></p>
  "," ","html-keyboard-response","106","215309","0.0-7.0-1.0-3.0","1","2","2","1","1","2","2","1","2","1","2","1","2","1","2","2","2","1","2","1","4","5","4","5","5","4","4","1","5","1","0","1","1","0","0","1","1","0","1","1","1","1","0","1","4","5","5","4","5","","5","4","5","1","1","789416392486293505","王","104","","","","","","","","","","","","","","","","","","","","","","","","","","","","","","","","","","","","","","","","","",""
"708","","f","psychophysics","107","217018","0.0-7.0-1.0-4.0-0.0-0.0","1","2","2","1","1","2","2","1","2","1","2","1","2","1","2","2","2","1","2","1","4","5","4","5","5","4","4","1","5","1","0","1","1","0","0","1","1","0","1","1","1","1","0","1","4","5","5","4","5","","5","4","5","1","1","789416392486293505","王","104","","","","match","","","","","","","","","","","","","","key","f","16.6551683168316","960","536","f","true","match","img/pentagon.png","五边","五边","ALT1","formal_ALT1_2","","","","","","","","","","","",""
"null","<span style='color:GreenYellow; font-size: 70px;'>正确! </span>","null","html-keyboard-response","108","217520","0.0-7.0-1.0-4.0-0.0-1.0","1","2","2","1","1","2","2","1","2","1","2","1","2","1","2","2","2","1","2","1","4","5","4","5","5","4","4","1","5","1","0","1","1","0","0","1","1","0","1","1","1","1","0","1","4","5","5","4","5","","5","4","5","1","1","789416392486293505","王","104","","","","","","","","","","","","","","","","","","","","","","","","","","","","","","feedback_test","","","","","","","","","","","",""
"705","","f","psychophysics","109","219228","0.0-7.0-1.0-4.0-0.0-0.1","1","2","2","1","1","2","2","1","2","1","2","1","2","1","2","2","2","1","2","1","4","5","4","5","5","4","4","1","5","1","0","1","1","0","0","1","1","0","1","1","1","1","0","1","4","5","5","4","5","","5","4","5","1","1","789416392486293505","王","104","","","","match","","","","","","","","","","","","","","key","f","16.630643564356504","960","536","f","true","match","img/pentagon.png","五边","五边","ALT1","formal_ALT1_2","","","","","","","","","","","",""
"null","<span style='color:GreenYellow; font-size: 70px;'>正确! </span>","null","html-keyboard-response","110","219729","0.0-7.0-1.0-4.0-0.0-1.1","1","2","2","1","1","2","2","1","2","1","2","1","2","1","2","2","2","1","2","1","4","5","4","5","5","4","4","1","5","1","0","1","1","0","0","1","1","0","1","1","1","1","0","1","4","5","5","4","5","","5","4","5","1","1","789416392486293505","王","104","","","","","","","","","","","","","","","","","","","","","","","","","","","","","","feedback_test","","","","","","","","","","","",""
"1062","","j","psychophysics","111","221793","0.0-7.0-1.0-4.0-0.0-0.2","1","2","2","1","1","2","2","1","2","1","2","1","2","1","2","2","2","1","2","1","4","5","4","5","5","4","4","1","5","1","0","1","1","0","0","1","1","0","1","1","1","1","0","1","4","5","5","4","5","","5","4","5","1","1","789416392486293505","王","104","","","","nonmatch","","","","","","","","","","","","","","key","j","16.641357723577137","960","536","j","true","nonmatch","img/pentagon.png","三角","五边","ALT1","formal_ALT1_2","","","","","","","","","","","",""
"null","<span style='color:GreenYellow; font-size: 70px;'>正确! </span>","null","html-keyboard-response","112","222295","0.0-7.0-1.0-4.0-0.0-1.2","1","2","2","1","1","2","2","1","2","1","2","1","2","1","2","2","2","1","2","1","4","5","4","5","5","4","4","1","5","1","0","1","1","0","0","1","1","0","1","1","1","1","0","1","4","5","5","4","5","","5","4","5","1","1","789416392486293505","王","104","","","","","","","","","","","","","","","","","","","","","","","","","","","","","","feedback_test","","","","","","","","","","","",""
"714","","f","psychophysics","113","224011","0.0-7.0-1.0-4.0-0.0-0.3","1","2","2","1","1","2","2","1","2","1","2","1","2","1","2","2","2","1","2","1","4","5","4","5","5","4","4","1","5","1","0","1","1","0","0","1","1","0","1","1","1","1","0","1","4","5","5","4","5","","5","4","5","1","1","789416392486293505","王","104","","","","match","","","","","","","","","","","","","","key","f","16.642431372548934","960","536","f","true","match","img/triangle.png","三角","三角","ALT1","formal_ALT1_2","","","","","","","","","","","",""
"null","<span style='color:GreenYellow; font-size: 70px;'>正确! </span>","null","html-keyboard-response","114","224513","0.0-7.0-1.0-4.0-0.0-1.3","1","2","2","1","1","2","2","1","2","1","2","1","2","1","2","2","2","1","2","1","4","5","4","5","5","4","4","1","5","1","0","1","1","0","0","1","1","0","1","1","1","1","0","1","4","5","5","4","5","","5","4","5","1","1","789416392486293505","王","104","","","","","","","","","","","","","","","","","","","","","","","","","","","","","","feedback_test","","","","","","","","","","","",""
"891","","j","psychophysics","115","226406","0.0-7.0-1.0-4.0-0.0-0.4","1","2","2","1","1","2","2","1","2","1","2","1","2","1","2","2","2","1","2","1","4","5","4","5","5","4","4","1","5","1","0","1","1","0","0","1","1","0","1","1","1","1","0","1","4","5","5","4","5","","5","4","5","1","1","789416392486293505","王","104","","","","nonmatch","","","","","","","","","","","","","","key","j","16.648407079645924","960","536","j","true","nonmatch","img/pentagon.png","圆形","五边","ALT1","formal_ALT1_2","","","","","","","","","","","",""
"null","<span style='color:GreenYellow; font-size: 70px;'>正确! </span>","null","html-keyboard-response","116","226908","0.0-7.0-1.0-4.0-0.0-1.4","1","2","2","1","1","2","2","1","2","1","2","1","2","1","2","2","2","1","2","1","4","5","4","5","5","4","4","1","5","1","0","1","1","0","0","1","1","0","1","1","1","1","0","1","4","5","5","4","5","","5","4","5","1","1","789416392486293505","王","104","","","","","","","","","","","","","","","","","","","","","","","","","","","","","","feedback_test","","","","","","","","","","","",""
"1136","","f","psychophysics","117","229045","0.0-7.0-1.0-4.0-0.0-0.5","1","2","2","1","1","2","2","1","2","1","2","1","2","1","2","2","2","1","2","1","4","5","4","5","5","4","4","1","5","1","0","1","1","0","0","1","1","0","1","1","1","1","0","1","4","5","5","4","5","","5","4","5","1","1","789416392486293505","王","104","","","","match","","","","","","","","","","","","","","key","f","16.650992125984306","960","536","j","false","nonmatch","img/diamond.png","三角","菱形","ALT1","formal_ALT1_2","","","","","","","","","","","",""
"null","<span style='color:red; font-size: 70px;'>错误! </span>","null","html-keyboard-response","118","229547","0.0-7.0-1.0-4.0-0.0-1.5","1","2","2","1","1","2","2","1","2","1","2","1","2","1","2","2","2","1","2","1","4","5","4","5","5","4","4","1","5","1","0","1","1","0","0","1","1","0","1","1","1","1","0","1","4","5","5","4","5","","5","4","5","1","1","789416392486293505","王","104","","","","","","","","","","","","","","","","","","","","","","","","","","","","","","feedback_test","","","","","","","","","","","",""
"718","","f","psychophysics","119","231267","0.0-7.0-1.0-4.0-0.0-0.6","1","2","2","1","1","2","2","1","2","1","2","1","2","1","2","2","2","1","2","1","4","5","4","5","5","4","4","1","5","1","0","1","1","0","0","1","1","0","1","1","1","1","0","1","4","5","5","4","5","","5","4","5","1","1","789416392486293505","王","104","","","","match","","","","","","","","","","","","","","key","f","16.652089108910936","960","536","f","true","match","img/circle.png","圆形","圆形","ALT1","formal_ALT1_2","","","","","","","","","","","",""
"null","<span style='color:GreenYellow; font-size: 70px;'>正确! </span>","null","html-keyboard-response","120","231768","0.0-7.0-1.0-4.0-0.0-1.6","1","2","2","1","1","2","2","1","2","1","2","1","2","1","2","2","2","1","2","1","4","5","4","5","5","4","4","1","5","1","0","1","1","0","0","1","1","0","1","1","1","1","0","1","4","5","5","4","5","","5","4","5","1","1","789416392486293505","王","104","","","","","","","","","","","","","","","","","","","","","","","","","","","","","","feedback_test","","","","","","","","","","","",""
"707","","j","psychophysics","121","233476","0.0-7.0-1.0-4.0-0.0-0.7","1","2","2","1","1","2","2","1","2","1","2","1","2","1","2","2","2","1","2","1","4","5","4","5","5","4","4","1","5","1","0","1","1","0","0","1","1","0","1","1","1","1","0","1","4","5","5","4","5","","5","4","5","1","1","789416392486293505","王","104","","","","nonmatch","","","","","","","","","","","","","","key","j","16.6492574257424","960","536","j","true","nonmatch","img/diamond.png","圆形","菱形","ALT1","formal_ALT1_2","","","","","","","","","","","",""
"null","<span style='color:GreenYellow; font-size: 70px;'>正确! </span>","null","html-keyboard-response","122","233977","0.0-7.0-1.0-4.0-0.0-1.7","1","2","2","1","1","2","2","1","2","1","2","1","2","1","2","2","2","1","2","1","4","5","4","5","5","4","4","1","5","1","0","1","1","0","0","1","1","0","1","1","1","1","0","1","4","5","5","4","5","","5","4","5","1","1","789416392486293505","王","104","","","","","","","","","","","","","","","","","","","","","","","","","","","","","","feedback_test","","","","","","","","","","","",""
"null","","null","psychophysics","123","236180","0.0-7.0-1.0-4.0-0.0-0.8","1","2","2","1","1","2","2","1","2","1","2","1","2","1","2","2","2","1","2","1","4","5","4","5","5","4","4","1","5","1","0","1","1","0","0","1","1","0","1","1","1","1","0","1","4","5","5","4","5","","5","4","5","1","1","789416392486293505","王","104","","","","null","","","","","","","","","","","","","","key","null","16.65132824427498","960","536","f","false","match","img/diamond.png","菱形","菱形","ALT1","formal_ALT1_2","","","","","","","","","","","",""
"null","<span class='add_' style='color:yellow; font-size: 70px;'> 太慢! </span>","null","html-keyboard-response","124","236683","0.0-7.0-1.0-4.0-0.0-1.8","1","2","2","1","1","2","2","1","2","1","2","1","2","1","2","2","2","1","2","1","4","5","4","5","5","4","4","1","5","1","0","1","1","0","0","1","1","0","1","1","1","1","0","1","4","5","5","4","5","","5","4","5","1","1","789416392486293505","王","104","","","","","","","","","","","","","","","","","","","","","","","","","","","","","","feedback_test","","","","","","","","","","","",""
"928","","j","psychophysics","125","238613","0.0-7.0-1.0-4.0-0.0-0.9","1","2","2","1","1","2","2","1","2","1","2","1","2","1","2","2","2","1","2","1","4","5","4","5","5","4","4","1","5","1","0","1","1","0","0","1","1","0","1","1","1","1","0","1","4","5","5","4","5","","5","4","5","1","1","789416392486293505","王","104","","","","nonmatch","","","","","","","","","","","","","","key","j","16.65159130434774","960","536","j","true","nonmatch","img/triangle.png","圆形","三角","ALT1","formal_ALT1_2","","","","","","","","","","","",""
"null","<span style='color:GreenYellow; font-size: 70px;'>正确! </span>","null","html-keyboard-response","126","239114","0.0-7.0-1.0-4.0-0.0-1.9","1","2","2","1","1","2","2","1","2","1","2","1","2","1","2","2","2","1","2","1","4","5","4","5","5","4","4","1","5","1","0","1","1","0","0","1","1","0","1","1","1","1","0","1","4","5","5","4","5","","5","4","5","1","1","789416392486293505","王","104","","","","","","","","","","","","","","","","","","","","","","","","","","","","","","feedback_test","","","","","","","","","","","",""
"663","","f","psychophysics","127","240779","0.0-7.0-1.0-4.0-0.0-0.10","1","2","2","1","1","2","2","1","2","1","2","1","2","1","2","2","2","1","2","1","4","5","4","5","5","4","4","1","5","1","0","1","1","0","0","1","1","0","1","1","1","1","0","1","4","5","5","4","5","","5","4","5","1","1","789416392486293505","王","104","","","","match","","","","","","","","","","","","","","key","f","16.651666666666515","960","536","f","true","match","img/diamond.png","菱形","菱形","ALT1","formal_ALT1_2","","","","","","","","","","","",""
"null","<span style='color:GreenYellow; font-size: 70px;'>正确! </span>","null","html-keyboard-response","128","241280","0.0-7.0-1.0-4.0-0.0-1.10","1","2","2","1","1","2","2","1","2","1","2","1","2","1","2","2","2","1","2","1","4","5","4","5","5","4","4","1","5","1","0","1","1","0","0","1","1","0","1","1","1","1","0","1","4","5","5","4","5","","5","4","5","1","1","789416392486293505","王","104","","","","","","","","","","","","","","","","","","","","","","","","","","","","","","feedback_test","","","","","","","","","","","",""
"568","","f","psychophysics","129","242850","0.0-7.0-1.0-4.0-0.0-0.11","1","2","2","1","1","2","2","1","2","1","2","1","2","1","2","2","2","1","2","1","4","5","4","5","5","4","4","1","5","1","0","1","1","0","0","1","1","0","1","1","1","1","0","1","4","5","5","4","5","","5","4","5","1","1","789416392486293505","王","104","","","","match","","","","","","","","","","","","","","key","f","16.83455434782619","960","536","f","true","match","img/triangle.png","三角","三角","ALT1","formal_ALT1_2","","","","","","","","","","","",""
"null","<span style='color:GreenYellow; font-size: 70px;'>正确! </span>","null","html-keyboard-response","130","243352","0.0-7.0-1.0-4.0-0.0-1.11","1","2","2","1","1","2","2","1","2","1","2","1","2","1","2","2","2","1","2","1","4","5","4","5","5","4","4","1","5","1","0","1","1","0","0","1","1","0","1","1","1","1","0","1","4","5","5","4","5","","5","4","5","1","1","789416392486293505","王","104","","","","","","","","","","","","","","","","","","","","","","","","","","","","","","feedback_test","","","","","","","","","","","",""
"575","","j","psychophysics","131","244929","0.0-7.0-1.0-4.0-0.0-0.12","1","2","2","1","1","2","2","1","2","1","2","1","2","1","2","2","2","1","2","1","4","5","4","5","5","4","4","1","5","1","0","1","1","0","0","1","1","0","1","1","1","1","0","1","4","5","5","4","5","","5","4","5","1","1","789416392486293505","王","104","","","","nonmatch","","","","","","","","","","","","","","key","j","16.69406451612914","960","536","j","true","nonmatch","img/triangle.png","五边","三角","ALT1","formal_ALT1_2","","","","","","","","","","","",""
"null","<span style='color:GreenYellow; font-size: 70px;'>正确! </span>","null","html-keyboard-response","132","245430","0.0-7.0-1.0-4.0-0.0-1.12","1","2","2","1","1","2","2","1","2","1","2","1","2","1","2","2","2","1","2","1","4","5","4","5","5","4","4","1","5","1","0","1","1","0","0","1","1","0","1","1","1","1","0","1","4","5","5","4","5","","5","4","5","1","1","789416392486293505","王","104","","","","","","","","","","","","","","","","","","","","","","","","","","","","","","feedback_test","","","","","","","","","","","",""
"1076","","f","psychophysics","133","247507","0.0-7.0-1.0-4.0-0.0-0.13","1","2","2","1","1","2","2","1","2","1","2","1","2","1","2","2","2","1","2","1","4","5","4","5","5","4","4","1","5","1","0","1","1","0","0","1","1","0","1","1","1","1","0","1","4","5","5","4","5","","5","4","5","1","1","789416392486293505","王","104","","","","match","","","","","","","","","","","","","","key","f","16.65153225806458","960","536","f","true","match","img/diamond.png","菱形","菱形","ALT1","formal_ALT1_2","","","","","","","","","","","",""
"null","<span style='color:GreenYellow; font-size: 70px;'>正确! </span>","null","html-keyboard-response","134","248008","0.0-7.0-1.0-4.0-0.0-1.13","1","2","2","1","1","2","2","1","2","1","2","1","2","1","2","2","2","1","2","1","4","5","4","5","5","4","4","1","5","1","0","1","1","0","0","1","1","0","1","1","1","1","0","1","4","5","5","4","5","","5","4","5","1","1","789416392486293505","王","104","","","","","","","","","","","","","","","","","","","","","","","","","","","","","","feedback_test","","","","","","","","","","","",""
"612","","j","psychophysics","135","249622","0.0-7.0-1.0-4.0-0.0-0.14","1","2","2","1","1","2","2","1","2","1","2","1","2","1","2","2","2","1","2","1","4","5","4","5","5","4","4","1","5","1","0","1","1","0","0","1","1","0","1","1","1","1","0","1","4","5","5","4","5","","5","4","5","1","1","789416392486293505","王","104","","","","nonmatch","","","","","","","","","","","","","","key","j","16.649062499999975","960","536","f","false","match","img/pentagon.png","五边","五边","ALT1","formal_ALT1_2","","","","","","","","","","","",""
"null","<span style='color:red; font-size: 70px;'>错误! </span>","null","html-keyboard-response","136","250124","0.0-7.0-1.0-4.0-0.0-1.14","1","2","2","1","1","2","2","1","2","1","2","1","2","1","2","2","2","1","2","1","4","5","4","5","5","4","4","1","5","1","0","1","1","0","0","1","1","0","1","1","1","1","0","1","4","5","5","4","5","","5","4","5","1","1","789416392486293505","王","104","","","","","","","","","","","","","","","","","","","","","","","","","","","","","","feedback_test","","","","","","","","","","","",""
"925","","j","psychophysics","137","252051","0.0-7.0-1.0-4.0-0.0-0.15","1","2","2","1","1","2","2","1","2","1","2","1","2","1","2","2","2","1","2","1","4","5","4","5","5","4","4","1","5","1","0","1","1","0","0","1","1","0","1","1","1","1","0","1","4","5","5","4","5","","5","4","5","1","1","789416392486293505","王","104","","","","nonmatch","","","","","","","","","","","","","","key","j","16.647469565217413","960","536","j","true","nonmatch","img/triangle.png","菱形","三角","ALT1","formal_ALT1_2","","","","","","","","","","","",""
"null","<span style='color:GreenYellow; font-size: 70px;'>正确! </span>","null","html-keyboard-response","138","252552","0.0-7.0-1.0-4.0-0.0-1.15","1","2","2","1","1","2","2","1","2","1","2","1","2","1","2","2","2","1","2","1","4","5","4","5","5","4","4","1","5","1","0","1","1","0","0","1","1","0","1","1","1","1","0","1","4","5","5","4","5","","5","4","5","1","1","789416392486293505","王","104","","","","","","","","","","","","","","","","","","","","","","","","","","","","","","feedback_test","","","","","","","","","","","",""
"585","","f","psychophysics","139","254138","0.0-7.0-1.0-4.0-0.0-0.16","1","2","2","1","1","2","2","1","2","1","2","1","2","1","2","2","2","1","2","1","4","5","4","5","5","4","4","1","5","1","0","1","1","0","0","1","1","0","1","1","1","1","0","1","4","5","5","4","5","","5","4","5","1","1","789416392486293505","王","104","","","","match","","","","","","","","","","","","","","key","f","16.647319148936152","960","536","f","true","match","img/triangle.png","三角","三角","ALT1","formal_ALT1_2","","","","","","","","","","","",""
"null","<span style='color:GreenYellow; font-size: 70px;'>正确! </span>","null","html-keyboard-response","140","254640","0.0-7.0-1.0-4.0-0.0-1.16","1","2","2","1","1","2","2","1","2","1","2","1","2","1","2","2","2","1","2","1","4","5","4","5","5","4","4","1","5","1","0","1","1","0","0","1","1","0","1","1","1","1","0","1","4","5","5","4","5","","5","4","5","1","1","789416392486293505","王","104","","","","","","","","","","","","","","","","","","","","","","","","","","","","","","feedback_test","","","","","","","","","","","",""
"736","","f","psychophysics","141","256378","0.0-7.0-1.0-4.0-0.0-0.17","1","2","2","1","1","2","2","1","2","1","2","1","2","1","2","2","2","1","2","1","4","5","4","5","5","4","4","1","5","1","0","1","1","0","0","1","1","0","1","1","1","1","0","1","4","5","5","4","5","","5","4","5","1","1","789416392486293505","王","104","","","","match","","","","","","","","","","","","","","key","f","16.64950485436898","960","536","f","true","match","img/circle.png","圆形","圆形","ALT1","formal_ALT1_2","","","","","","","","","","","",""
"null","<span style='color:GreenYellow; font-size: 70px;'>正确! </span>","null","html-keyboard-response","142","256879","0.0-7.0-1.0-4.0-0.0-1.17","1","2","2","1","1","2","2","1","2","1","2","1","2","1","2","2","2","1","2","1","4","5","4","5","5","4","4","1","5","1","0","1","1","0","0","1","1","0","1","1","1","1","0","1","4","5","5","4","5","","5","4","5","1","1","789416392486293505","王","104","","","","","","","","","","","","","","","","","","","","","","","","","","","","","","feedback_test","","","","","","","","","","","",""
"820","","j","psychophysics","143","258701","0.0-7.0-1.0-4.0-0.0-0.18","1","2","2","1","1","2","2","1","2","1","2","1","2","1","2","2","2","1","2","1","4","5","4","5","5","4","4","1","5","1","0","1","1","0","0","1","1","0","1","1","1","1","0","1","4","5","5","4","5","","5","4","5","1","1","789416392486293505","王","104","","","","nonmatch","","","","","","","","","","","","","","key","j","16.647537037037115","960","536","j","true","nonmatch","img/diamond.png","五边","菱形","ALT1","formal_ALT1_2","","","","","","","","","","","",""
"null","<span style='color:GreenYellow; font-size: 70px;'>正确! </span>","null","html-keyboard-response","144","259203","0.0-7.0-1.0-4.0-0.0-1.18","1","2","2","1","1","2","2","1","2","1","2","1","2","1","2","2","2","1","2","1","4","5","4","5","5","4","4","1","5","1","0","1","1","0","0","1","1","0","1","1","1","1","0","1","4","5","5","4","5","","5","4","5","1","1","789416392486293505","王","104","","","","","","","","","","","","","","","","","","","","","","","","","","","","","","feedback_test","","","","","","","","","","","",""
"1076","","j","psychophysics","145","261282","0.0-7.0-1.0-4.0-0.0-0.19","1","2","2","1","1","2","2","1","2","1","2","1","2","1","2","2","2","1","2","1","4","5","4","5","5","4","4","1","5","1","0","1","1","0","0","1","1","0","1","1","1","1","0","1","4","5","5","4","5","","5","4","5","1","1","789416392486293505","王","104","","","","nonmatch","","","","","","","","","","","","","","key","j","16.786663934426215","960","536","j","true","nonmatch","img/pentagon.png","菱形","五边","ALT1","formal_ALT1_2","","","","","","","","","","","",""
"null","<span style='color:GreenYellow; font-size: 70px;'>正确! </span>","null","html-keyboard-response","146","261783","0.0-7.0-1.0-4.0-0.0-1.19","1","2","2","1","1","2","2","1","2","1","2","1","2","1","2","2","2","1","2","1","4","5","4","5","5","4","4","1","5","1","0","1","1","0","0","1","1","0","1","1","1","1","0","1","4","5","5","4","5","","5","4","5","1","1","789416392486293505","王","104","","","","","","","","","","","","","","","","","","","","","","","","","","","","","","feedback_test","","","","","","","","","","","",""
"709","","j","psychophysics","147","263493","0.0-7.0-1.0-4.0-0.0-0.20","1","2","2","1","1","2","2","1","2","1","2","1","2","1","2","2","2","1","2","1","4","5","4","5","5","4","4","1","5","1","0","1","1","0","0","1","1","0","1","1","1","1","0","1","4","5","5","4","5","","5","4","5","1","1","789416392486293505","王","104","","","","nonmatch","","","","","","","","","","","","","","key","j","16.61170588235266","960","536","j","true","nonmatch","img/circle.png","五边","圆形","ALT1","formal_ALT1_2","","","","","","","","","","","",""
"null","<span style='color:GreenYellow; font-size: 70px;'>正确! </span>","null","html-keyboard-response","148","263994","0.0-7.0-1.0-4.0-0.0-1.20","1","2","2","1","1","2","2","1","2","1","2","1","2","1","2","2","2","1","2","1","4","5","4","5","5","4","4","1","5","1","0","1","1","0","0","1","1","0","1","1","1","1","0","1","4","5","5","4","5","","5","4","5","1","1","789416392486293505","王","104","","","","","","","","","","","","","","","","","","","","","","","","","","","","","","feedback_test","","","","","","","","","","","",""
"846","","j","psychophysics","149","265842","0.0-7.0-1.0-4.0-0.0-0.21","1","2","2","1","1","2","2","1","2","1","2","1","2","1","2","2","2","1","2","1","4","5","4","5","5","4","4","1","5","1","0","1","1","0","0","1","1","0","1","1","1","1","0","1","4","5","5","4","5","","5","4","5","1","1","789416392486293505","王","104","","","","nonmatch","","","","","","","","","","","","","","key","j","16.63739090909049","960","536","j","true","nonmatch","img/circle.png","菱形","圆形","ALT1","formal_ALT1_2","","","","","","","","","","","",""
"null","<span style='color:GreenYellow; font-size: 70px;'>正确! </span>","null","html-keyboard-response","150","266343","0.0-7.0-1.0-4.0-0.0-1.21","1","2","2","1","1","2","2","1","2","1","2","1","2","1","2","2","2","1","2","1","4","5","4","5","5","4","4","1","5","1","0","1","1","0","0","1","1","0","1","1","1","1","0","1","4","5","5","4","5","","5","4","5","1","1","789416392486293505","王","104","","","","","","","","","","","","","","","","","","","","","","","","","","","","","","feedback_test","","","","","","","","","","","",""
"765","","j","psychophysics","151","268110","0.0-7.0-1.0-4.0-0.0-0.22","1","2","2","1","1","2","2","1","2","1","2","1","2","1","2","2","2","1","2","1","4","5","4","5","5","4","4","1","5","1","0","1","1","0","0","1","1","0","1","1","1","1","0","1","4","5","5","4","5","","5","4","5","1","1","789416392486293505","王","104","","","","nonmatch","","","","","","","","","","","","","","key","j","16.649780952381082","960","536","j","true","nonmatch","img/circle.png","三角","圆形","ALT1","formal_ALT1_2","","","","","","","","","","","",""
"null","<span style='color:GreenYellow; font-size: 70px;'>正确! </span>","null","html-keyboard-response","152","268611","0.0-7.0-1.0-4.0-0.0-1.22","1","2","2","1","1","2","2","1","2","1","2","1","2","1","2","2","2","1","2","1","4","5","4","5","5","4","4","1","5","1","0","1","1","0","0","1","1","0","1","1","1","1","0","1","4","5","5","4","5","","5","4","5","1","1","789416392486293505","王","104","","","","","","","","","","","","","","","","","","","","","","","","","","","","","","feedback_test","","","","","","","","","","","",""
"598","","f","psychophysics","153","270211","0.0-7.0-1.0-4.0-0.0-0.23","1","2","2","1","1","2","2","1","2","1","2","1","2","1","2","2","2","1","2","1","4","5","4","5","5","4","4","1","5","1","0","1","1","0","0","1","1","0","1","1","1","1","0","1","4","5","5","4","5","","5","4","5","1","1","789416392486293505","王","104","","","","match","","","","","","","","","","","","","","key","f","16.648021276595635","960","536","f","true","match","img/circle.png","圆形","圆形","ALT1","formal_ALT1_2","","","","","","","","","","","",""
"null","<span style='color:GreenYellow; font-size: 70px;'>正确! </span>","null","html-keyboard-response","154","270712","0.0-7.0-1.0-4.0-0.0-1.23","1","2","2","1","1","2","2","1","2","1","2","1","2","1","2","2","2","1","2","1","4","5","4","5","5","4","4","1","5","1","0","1","1","0","0","1","1","0","1","1","1","1","0","1","4","5","5","4","5","","5","4","5","1","1","789416392486293505","王","104","","","","","","","","","","","","","","","","","","","","","","","","","","","","","","feedback_test","","","","","","","","","","","",""
"1043","","j","psychophysics","155","272758","0.0-7.0-1.0-4.0-0.0-0.24","1","2","2","1","1","2","2","1","2","1","2","1","2","1","2","2","2","1","2","1","4","5","4","5","5","4","4","1","5","1","0","1","1","0","0","1","1","0","1","1","1","1","0","1","4","5","5","4","5","","5","4","5","1","1","789416392486293505","王","104","","","","nonmatch","","","","","","","","","","","","","","key","j","16.64777685950408","960","536","f","false","match","img/triangle.png","三角","三角","ALT1","formal_ALT1_2","","","","","","","","","","","",""
"null","<span style='color:red; font-size: 70px;'>错误! </span>","null","html-keyboard-response","156","273259","0.0-7.0-1.0-4.0-0.0-1.24","1","2","2","1","1","2","2","1","2","1","2","1","2","1","2","2","2","1","2","1","4","5","4","5","5","4","4","1","5","1","0","1","1","0","0","1","1","0","1","1","1","1","0","1","4","5","5","4","5","","5","4","5","1","1","789416392486293505","王","104","","","","","","","","","","","","","","","","","","","","","","","","","","","","","","feedback_test","","","","","","","","","","","",""
"1061","","f","psychophysics","157","275321","0.0-7.0-1.0-4.0-0.0-0.25","1","2","2","1","1","2","2","1","2","1","2","1","2","1","2","2","2","1","2","1","4","5","4","5","5","4","4","1","5","1","0","1","1","0","0","1","1","0","1","1","1","1","0","1","4","5","5","4","5","","5","4","5","1","1","789416392486293505","王","104","","","","match","","","","","","","","","","","","","","key","f","16.633245901639295","960","536","f","true","match","img/pentagon.png","五边","五边","ALT1","formal_ALT1_2","","","","","","","","","","","",""
"null","<span style='color:GreenYellow; font-size: 70px;'>正确! </span>","null","html-keyboard-response","158","275823","0.0-7.0-1.0-4.0-0.0-1.25","1","2","2","1","1","2","2","1","2","1","2","1","2","1","2","2","2","1","2","1","4","5","4","5","5","4","4","1","5","1","0","1","1","0","0","1","1","0","1","1","1","1","0","1","4","5","5","4","5","","5","4","5","1","1","789416392486293505","王","104","","","","","","","","","","","","","","","","","","","","","","","","","","","","","","feedback_test","","","","","","","","","","","",""
"699","","j","psychophysics","159","277524","0.0-7.0-1.0-4.0-0.0-0.26","1","2","2","1","1","2","2","1","2","1","2","1","2","1","2","2","2","1","2","1","4","5","4","5","5","4","4","1","5","1","0","1","1","0","0","1","1","0","1","1","1","1","0","1","4","5","5","4","5","","5","4","5","1","1","789416392486293505","王","104","","","","nonmatch","","","","","","","","","","","","","","key","j","16.65335999999952","960","536","j","true","nonmatch","img/triangle.png","五边","三角","ALT1","formal_ALT1_2","","","","","","","","","","","",""
"null","<span style='color:GreenYellow; font-size: 70px;'>正确! </span>","null","html-keyboard-response","160","278025","0.0-7.0-1.0-4.0-0.0-1.26","1","2","2","1","1","2","2","1","2","1","2","1","2","1","2","2","2","1","2","1","4","5","4","5","5","4","4","1","5","1","0","1","1","0","0","1","1","0","1","1","1","1","0","1","4","5","5","4","5","","5","4","5","1","1","789416392486293505","王","104","","","","","","","","","","","","","","","","","","","","","","","","","","","","","","feedback_test","","","","","","","","","","","",""
"1043","","j","psychophysics","161","280070","0.0-7.0-1.0-4.0-0.0-0.27","1","2","2","1","1","2","2","1","2","1","2","1","2","1","2","2","2","1","2","1","4","5","4","5","5","4","4","1","5","1","0","1","1","0","0","1","1","0","1","1","1","1","0","1","4","5","5","4","5","","5","4","5","1","1","789416392486293505","王","104","","","","nonmatch","","","","","","","","","","","","","","key","j","16.62866115702503","960","536","j","true","nonmatch","img/diamond.png","三角","菱形","ALT1","formal_ALT1_2","","","","","","","","","","","",""
"null","<span style='color:GreenYellow; font-size: 70px;'>正确! </span>","null","html-keyboard-response","162","280571","0.0-7.0-1.0-4.0-0.0-1.27","1","2","2","1","1","2","2","1","2","1","2","1","2","1","2","2","2","1","2","1","4","5","4","5","5","4","4","1","5","1","0","1","1","0","0","1","1","0","1","1","1","1","0","1","4","5","5","4","5","","5","4","5","1","1","789416392486293505","王","104","","","","","","","","","","","","","","","","","","","","","","","","","","","","","","feedback_test","","","","","","","","","","","",""
"820","","f","psychophysics","163","282393","0.0-7.0-1.0-4.0-0.0-0.28","1","2","2","1","1","2","2","1","2","1","2","1","2","1","2","2","2","1","2","1","4","5","4","5","5","4","4","1","5","1","0","1","1","0","0","1","1","0","1","1","1","1","0","1","4","5","5","4","5","","5","4","5","1","1","789416392486293505","王","104","","","","match","","","","","","","","","","","","","","key","f","16.646481481481548","960","536","f","true","match","img/pentagon.png","五边","五边","ALT1","formal_ALT1_2","","","","","","","","","","","",""
"null","<span style='color:GreenYellow; font-size: 70px;'>正确! </span>","null","html-keyboard-response","164","282894","0.0-7.0-1.0-4.0-0.0-1.28","1","2","2","1","1","2","2","1","2","1","2","1","2","1","2","2","2","1","2","1","4","5","4","5","5","4","4","1","5","1","0","1","1","0","0","1","1","0","1","1","1","1","0","1","4","5","5","4","5","","5","4","5","1","1","789416392486293505","王","104","","","","","","","","","","","","","","","","","","","","","","","","","","","","","","feedback_test","","","","","","","","","","","",""
"842","","j","psychophysics","165","284739","0.0-7.0-1.0-4.0-0.0-0.29","1","2","2","1","1","2","2","1","2","1","2","1","2","1","2","2","2","1","2","1","4","5","4","5","5","4","4","1","5","1","0","1","1","0","0","1","1","0","1","1","1","1","0","1","4","5","5","4","5","","5","4","5","1","1","789416392486293505","王","104","","","","nonmatch","","","","","","","","","","","","","","key","j","16.650336363636466","960","536","j","true","nonmatch","img/diamond.png","圆形","菱形","ALT1","formal_ALT1_2","","","","","","","","","","","",""
"null","<span style='color:GreenYellow; font-size: 70px;'>正确! </span>","null","html-keyboard-response","166","285240","0.0-7.0-1.0-4.0-0.0-1.29","1","2","2","1","1","2","2","1","2","1","2","1","2","1","2","2","2","1","2","1","4","5","4","5","5","4","4","1","5","1","0","1","1","0","0","1","1","0","1","1","1","1","0","1","4","5","5","4","5","","5","4","5","1","1","789416392486293505","王","104","","","","","","","","","","","","","","","","","","","","","","","","","","","","","","feedback_test","","","","","","","","","","","",""
"1159","","j","psychophysics","167","287401","0.0-7.0-1.0-4.0-0.0-0.30","1","2","2","1","1","2","2","1","2","1","2","1","2","1","2","2","2","1","2","1","4","5","4","5","5","4","4","1","5","1","0","1","1","0","0","1","1","0","1","1","1","1","0","1","4","5","5","4","5","","5","4","5","1","1","789416392486293505","王","104","","","","nonmatch","","","","","","","","","","","","","","key","j","16.649356589147228","960","536","j","true","nonmatch","img/circle.png","三角","圆形","ALT1","formal_ALT1_2","","","","","","","","","","","",""
"null","<span style='color:GreenYellow; font-size: 70px;'>正确! </span>","null","html-keyboard-response","168","287903","0.0-7.0-1.0-4.0-0.0-1.30","1","2","2","1","1","2","2","1","2","1","2","1","2","1","2","2","2","1","2","1","4","5","4","5","5","4","4","1","5","1","0","1","1","0","0","1","1","0","1","1","1","1","0","1","4","5","5","4","5","","5","4","5","1","1","789416392486293505","王","104","","","","","","","","","","","","","","","","","","","","","","","","","","","","","","feedback_test","","","","","","","","","","","",""
"928","","f","psychophysics","169","289832","0.0-7.0-1.0-4.0-0.0-0.31","1","2","2","1","1","2","2","1","2","1","2","1","2","1","2","2","2","1","2","1","4","5","4","5","5","4","4","1","5","1","0","1","1","0","0","1","1","0","1","1","1","1","0","1","4","5","5","4","5","","5","4","5","1","1","789416392486293505","王","104","","","","match","","","","","","","","","","","","","","key","f","16.79669298245643","960","536","f","true","match","img/diamond.png","菱形","菱形","ALT1","formal_ALT1_2","","","","","","","","","","","",""
"null","<span style='color:GreenYellow; font-size: 70px;'>正确! </span>","null","html-keyboard-response","170","290335","0.0-7.0-1.0-4.0-0.0-1.31","1","2","2","1","1","2","2","1","2","1","2","1","2","1","2","2","2","1","2","1","4","5","4","5","5","4","4","1","5","1","0","1","1","0","0","1","1","0","1","1","1","1","0","1","4","5","5","4","5","","5","4","5","1","1","789416392486293505","王","104","","","","","","","","","","","","","","","","","","","","","","","","","","","","","","feedback_test","","","","","","","","","","","",""
"685","","j","psychophysics","171","292021","0.0-7.0-1.0-4.0-0.0-0.32","1","2","2","1","1","2","2","1","2","1","2","1","2","1","2","2","2","1","2","1","4","5","4","5","5","4","4","1","5","1","0","1","1","0","0","1","1","0","1","1","1","1","0","1","4","5","5","4","5","","5","4","5","1","1","789416392486293505","王","104","","","","nonmatch","","","","","","","","","","","","","","key","j","16.648730000000214","960","536","j","true","nonmatch","img/circle.png","五边","圆形","ALT1","formal_ALT1_2","","","","","","","","","","","",""
"null","<span style='color:GreenYellow; font-size: 70px;'>正确! </span>","null","html-keyboard-response","172","292522","0.0-7.0-1.0-4.0-0.0-1.32","1","2","2","1","1","2","2","1","2","1","2","1","2","1","2","2","2","1","2","1","4","5","4","5","5","4","4","1","5","1","0","1","1","0","0","1","1","0","1","1","1","1","0","1","4","5","5","4","5","","5","4","5","1","1","789416392486293505","王","104","","","","","","","","","","","","","","","","","","","","","","","","","","","","","","feedback_test","","","","","","","","","","","",""
"590","","f","psychophysics","173","294114","0.0-7.0-1.0-4.0-0.0-0.33","1","2","2","1","1","2","2","1","2","1","2","1","2","1","2","2","2","1","2","1","4","5","4","5","5","4","4","1","5","1","0","1","1","0","0","1","1","0","1","1","1","1","0","1","4","5","5","4","5","","5","4","5","1","1","789416392486293505","王","104","","","","match","","","","","","","","","","","","","","key","f","16.650457446808318","960","536","f","true","match","img/diamond.png","菱形","菱形","ALT1","formal_ALT1_2","","","","","","","","","","","",""
"null","<span style='color:GreenYellow; font-size: 70px;'>正确! </span>","null","html-keyboard-response","174","294615","0.0-7.0-1.0-4.0-0.0-1.33","1","2","2","1","1","2","2","1","2","1","2","1","2","1","2","2","2","1","2","1","4","5","4","5","5","4","4","1","5","1","0","1","1","0","0","1","1","0","1","1","1","1","0","1","4","5","5","4","5","","5","4","5","1","1","789416392486293505","王","104","","","","","","","","","","","","","","","","","","","","","","","","","","","","","","feedback_test","","","","","","","","","","","",""
"779","","f","psychophysics","175","296397","0.0-7.0-1.0-4.0-0.0-0.34","1","2","2","1","1","2","2","1","2","1","2","1","2","1","2","2","2","1","2","1","4","5","4","5","5","4","4","1","5","1","0","1","1","0","0","1","1","0","1","1","1","1","0","1","4","5","5","4","5","","5","4","5","1","1","789416392486293505","王","104","","","","match","","","","","","","","","","","","","","key","f","16.811314285714513","960","536","f","true","match","img/pentagon.png","五边","五边","ALT1","formal_ALT1_2","","","","","","","","","","","",""
"null","<span style='color:GreenYellow; font-size: 70px;'>正确! </span>","null","html-keyboard-response","176","296897","0.0-7.0-1.0-4.0-0.0-1.34","1","2","2","1","1","2","2","1","2","1","2","1","2","1","2","2","2","1","2","1","4","5","4","5","5","4","4","1","5","1","0","1","1","0","0","1","1","0","1","1","1","1","0","1","4","5","5","4","5","","5","4","5","1","1","789416392486293505","王","104","","","","","","","","","","","","","","","","","","","","","","","","","","","","","","feedback_test","","","","","","","","","","","",""
"594","","f","psychophysics","177","298492","0.0-7.0-1.0-4.0-0.0-0.35","1","2","2","1","1","2","2","1","2","1","2","1","2","1","2","2","2","1","2","1","4","5","4","5","5","4","4","1","5","1","0","1","1","0","0","1","1","0","1","1","1","1","0","1","4","5","5","4","5","","5","4","5","1","1","789416392486293505","王","104","","","","match","","","","","","","","","","","","","","key","f","16.729468085106458","960","536","f","true","match","img/triangle.png","三角","三角","ALT1","formal_ALT1_2","","","","","","","","","","","",""
"null","<span style='color:GreenYellow; font-size: 70px;'>正确! </span>","null","html-keyboard-response","178","298994","0.0-7.0-1.0-4.0-0.0-1.35","1","2","2","1","1","2","2","1","2","1","2","1","2","1","2","2","2","1","2","1","4","5","4","5","5","4","4","1","5","1","0","1","1","0","0","1","1","0","1","1","1","1","0","1","4","5","5","4","5","","5","4","5","1","1","789416392486293505","王","104","","","","","","","","","","","","","","","","","","","","","","","","","","","","","","feedback_test","","","","","","","","","","","",""
"619","","j","psychophysics","179","300614","0.0-7.0-1.0-4.0-0.0-0.36","1","2","2","1","1","2","2","1","2","1","2","1","2","1","2","2","2","1","2","1","4","5","4","5","5","4","4","1","5","1","0","1","1","0","0","1","1","0","1","1","1","1","0","1","4","5","5","4","5","","5","4","5","1","1","789416392486293505","王","104","","","","nonmatch","","","","","","","","","","","","","","key","j","16.63959375000013","960","536","j","true","nonmatch","img/circle.png","菱形","圆形","ALT1","formal_ALT1_2","","","","","","","","","","","",""
"null","<span style='color:GreenYellow; font-size: 70px;'>正确! </span>","null","html-keyboard-response","180","301116","0.0-7.0-1.0-4.0-0.0-1.36","1","2","2","1","1","2","2","1","2","1","2","1","2","1","2","2","2","1","2","1","4","5","4","5","5","4","4","1","5","1","0","1","1","0","0","1","1","0","1","1","1","1","0","1","4","5","5","4","5","","5","4","5","1","1","789416392486293505","王","104","","","","","","","","","","","","","","","","","","","","","","","","","","","","","","feedback_test","","","","","","","","","","","",""
"1037","","f","psychophysics","181","303154","0.0-7.0-1.0-4.0-0.0-0.37","1","2","2","1","1","2","2","1","2","1","2","1","2","1","2","2","2","1","2","1","4","5","4","5","5","4","4","1","5","1","0","1","1","0","0","1","1","0","1","1","1","1","0","1","4","5","5","4","5","","5","4","5","1","1","789416392486293505","王","104","","","","match","","","","","","","","","","","","","","key","f","16.640115702479562","960","536","f","true","match","img/circle.png","圆形","圆形","ALT1","formal_ALT1_2","","","","","","","","","","","",""
