"rt","stimulus","response","trial_type","trial_index","time_elapsed","internal_node_id","ses_1","ses_2","ses_3","ses_4","ses_5","ses_6","ses_7","ses_8","ses_9","ses_10","coreself_1","coreself_2","coreself_3","coreself_4","coreself_5","coreself_6","coreself_7","coreself_8","coreself_9","coreself_10","SGPS_1","SGPS_2","SGPS_3","SGPS_4","SGPS_5","SGPS_6","SGPS_7","SGPS_8","SGPS_9","NPI1","NPI2","NPI3","NPI4","NPI5","NPI6","NPI7","NPI8","NPI9","NPI10","NPI11","NPI12","NPI13","NPI14","NPI15","hsns_1","hsns_2","hsns_3","hsns_4","hsns_5","trap1","hsns_6","hsns_7","hsns_8","hsns_9","hsns_10","subj_idx","friend_name","ParticipantID","value","success","user_agent","responses","item_order","radio_event_ids","radio_event_times","key_event_times","mouse_event_times","straightlining","zigzagging","honeypot","timeout","failed_images","failed_audio","failed_video","view_history","response_type","key_press","avg_frame_time","center_x","center_y","correct_response","correct","identity","Image","word","condition","task_id","screen_id","time_stamp","version_attrib2","version_target2","IAT","RT","varname","summary","version_attrib","version_target","question_order","correct_answer","trap1_item"
"4445","
   <p><div style = ""color: white;font-size:25px;"">您好，欢迎参加本次实验。</div> </p>
   <p><div style = ""color: white;font-size:25px;"">为充分保障您的权利，请确保您已经知晓并同意《参与实验同意书》以及《数据公开知情同意书》。</div></p>
   <p><div style = ""color: white;font-size:25px;"">如果您未见过上述内容，请咨询实验员。</div></p>
   <p><div style = ""color: white;font-size:25px;"">如果您选择继续实验，则表示您已经清楚两份知情同意书的内容并同意。</div></p>
   <p><div style = ""color: pink;font-size:30px;"">请确保您记得day0的实验编号，您将在本次实验输入该编号，若您忘记，请咨询实验员后作答。</div></p>
   <p><div style = ""color: lightblue;font-size:25px;"">请您尽可能认真地作答，我们将依据您在各问卷和按键任务中的作答质量发放报酬。</div></p>
   <p> <div style = ""color: green;font-size:25px;""><按空格键至下页></div> </p>
   "," ","html-keyboard-response","0","4447","0.0-0.0","2","3","2","2","2","2","2","2","2","2","2","2","2","3","2","2","2","2","3","2","4","4","4","4","3","3","4","4","3","1","0","1","1","0","0","1","1","0","1","1","0","1","0","1","3","4","4","4","5","1","3","4","4","3","1","718768648436580352","张","423","","","","","","","","","","","","","","","","","","","","","","","","","","","","","","","","","","","","","","","","","",""
"","","","call-function","1","4448","0.0-1.0-0.0","2","3","2","2","2","2","2","2","2","2","2","2","2","3","2","2","2","2","3","2","4","4","4","4","3","3","4","4","3","1","0","1","1","0","0","1","1","0","1","1","0","1","0","1","3","4","4","4","5","1","3","4","4","3","1","718768648436580352","张","423","","","","","","","","","","","","","","","","","","","","","","","","","","","","","","","","","","","","","","","","","",""
"27671","","{""friend_name"":""张"",""ParticipantID"":""423""}","survey-html-form","2","32118","0.0-1.0-1.0","2","3","2","2","2","2","2","2","2","2","2","2","2","3","2","2","2","2","3","2","4","4","4","4","3","3","4","4","3","1","0","1","1","0","0","1","1","0","1","1","0","1","0","1","3","4","4","4","5","1","3","4","4","3","1","718768648436580352","张","423","","","","","","","","","","","","","","","","","","","","","","","","","","","","","","","","","","","","","","","","","",""
"","","","fullscreen","3","33403","0.0-2.0","2","3","2","2","2","2","2","2","2","2","2","2","2","3","2","2","2","2","3","2","4","4","4","4","3","3","4","4","3","1","0","1","1","0","0","1","1","0","1","1","0","1","0","1","3","4","4","4","5","1","3","4","4","3","1","718768648436580352","张","423","","true","{}","","","","","","","","","","","","","","","","","","","","","","","","","","","","","","","","","","","","","","",""
"20146","","{""Q01"":""2"",""Q02"":""3"",""Q03"":""2"",""Q04"":""2"",""Q05"":""2"",""Q06"":""2"",""Q07"":""2"",""Q08"":""2"",""Q09"":""2"",""Q10"":""2""}","survey-template","4","53551","0.0-3.0","2","3","2","2","2","2","2","2","2","2","2","2","2","3","2","2","2","2","3","2","4","4","4","4","3","3","4","4","3","1","0","1","1","0","0","1","1","0","1","1","0","1","0","1","3","4","4","4","5","1","3","4","4","3","1","718768648436580352","张","423","","","","{""Q01"":""2"",""Q02"":""3"",""Q03"":""2"",""Q04"":""2"",""Q05"":""2"",""Q06"":""2"",""Q07"":""2"",""Q08"":""2"",""Q09"":""2"",""Q10"":""2""}","[0,1,2,3,4,5,6,7,8,9]","[""Q01"",""Q02"",""Q03"",""Q04"",""Q05"",""Q06"",""Q07"",""Q08"",""Q09"",""Q10""]","[2554.7000000029802,4545.5,6633.29999999702,8385.39999999851,10458.10000000149,11617.5,14897.60000000149,16153.5,17970.39999999851,19017.29999999702]","[]","[2554.7000000029802,4545.5,5810.5,6633.29999999702,8385.39999999851,10458.10000000149,11617.5,12897.70000000298,14897.60000000149,16153.5,17970.39999999851,19017.29999999702,20145.39999999851]","0.6","0.5555555555555556","0","","","","","","","","","","","","","","","","","","","","","","","","","","","","","",""
"24948","","{""Q01"":""2"",""Q02"":""2"",""Q03"":""2"",""Q04"":""3"",""Q05"":""2"",""Q06"":""2"",""Q07"":""2"",""Q08"":""2"",""Q09"":""3"",""Q10"":""2""}","survey-template","5","78503","0.0-4.0","2","3","2","2","2","2","2","2","2","2","2","2","2","3","2","2","2","2","3","2","4","4","4","4","3","3","4","4","3","1","0","1","1","0","0","1","1","0","1","1","0","1","0","1","3","4","4","4","5","1","3","4","4","3","1","718768648436580352","张","423","","","","{""Q01"":""2"",""Q02"":""2"",""Q03"":""2"",""Q04"":""3"",""Q05"":""2"",""Q06"":""2"",""Q07"":""2"",""Q08"":""2"",""Q09"":""3"",""Q10"":""2""}","[0,1,2,3,4,5,6,7,8,9]","[""Q01"",""Q02"",""Q03"",""Q04"",""Q04"",""Q05"",""Q06"",""Q07"",""Q08"",""Q09"",""Q10""]","[3843.1999999955297,4875.19999999553,6331.19999999553,8211.19999999553,11707.60000000149,15659.19999999553,17611.10000000149,19059.19999999553,22083.19999999553,23171.29999999702,24195.89999999851]","[]","[2883.2999999970198,3843.1999999955297,4875.19999999553,6331.19999999553,8211.19999999553,11707.60000000149,13571.19999999553,15659.19999999553,17611.10000000149,19059.19999999553,21283.19999999553,22083.19999999553,23171.29999999702,24195.89999999851,24947.29999999702]","0.6","0.4444444444444444","0","","","","","","","","","","","","","","","","","","","","","","","","","","","","","",""
"","","","preload","6","78996","0.0-5.0","2","3","2","2","2","2","2","2","2","2","2","2","2","3","2","2","2","2","3","2","4","4","4","4","3","3","4","4","3","1","0","1","1","0","0","1","1","0","1","1","0","1","0","1","3","4","4","4","5","1","3","4","4","3","1","718768648436580352","张","423","","true","","","","","","","","","","","false","[]","[]","[]","","","","","","","","","","","","","","","","","","","","","","","","","",""
"75537","","","instructions","7","154534","0.0-6.0","2","3","2","2","2","2","2","2","2","2","2","2","2","3","2","2","2","2","3","2","4","4","4","4","3","3","4","4","3","1","0","1","1","0","0","1","1","0","1","1","0","1","0","1","3","4","4","4","5","1","3","4","4","3","1","718768648436580352","张","423","","","","","","","","","","","","","","","","","[{""page_index"":0,""viewing_time"":75537}]","","","","","","","","","","","","","","","","","","","","","","","","",""
"19887","","","instructions","8","174421","0.0-7.0-1.0-0.0","2","3","2","2","2","2","2","2","2","2","2","2","2","3","2","2","2","2","3","2","4","4","4","4","3","3","4","4","3","1","0","1","1","0","0","1","1","0","1","1","0","1","0","1","3","4","4","4","5","1","3","4","4","3","1","718768648436580352","张","423","","","","","","","","","","","","","","","","","[{""page_index"":0,""viewing_time"":16503},{""page_index"":1,""viewing_time"":2416},{""page_index"":2,""viewing_time"":968}]","","","","","","","","","","","","","","","","","","","","","","","","",""
"1072","","f","psychophysics","9","176509","0.0-7.0-1.0-1.0-0.0-0.0","2","3","2","2","2","2","2","2","2","2","2","2","2","3","2","2","2","2","3","2","4","4","4","4","3","3","4","4","3","1","0","1","1","0","0","1","1","0","1","1","0","1","0","1","3","4","4","4","5","1","3","4","4","3","1","718768648436580352","张","423","","","","nonmatch","","","","","","","","","","","","","","key","f","16.684266129032157","960","536","j","false","match","img/circle.png","圆形","圆形","ALT1_2","prac_ALT1_2","","","","","","","","","","","",""
"null","<span style='color:red; font-size: 70px;'>错误! </span>","null","html-keyboard-response","10","177019","0.0-7.0-1.0-1.0-0.0-1.0","2","3","2","2","2","2","2","2","2","2","2","2","2","3","2","2","2","2","3","2","4","4","4","4","3","3","4","4","3","1","0","1","1","0","0","1","1","0","1","1","0","1","0","1","3","4","4","4","5","1","3","4","4","3","1","718768648436580352","张","423","","","","","","","","","","","","","","","","","","","","","","","","","","","","","","feedback_test","","","","","","","","","","","",""
"815","","j","psychophysics","11","178837","0.0-7.0-1.0-1.0-0.0-0.1","2","3","2","2","2","2","2","2","2","2","2","2","2","3","2","2","2","2","3","2","4","4","4","4","3","3","4","4","3","1","0","1","1","0","0","1","1","0","1","1","0","1","0","1","3","4","4","4","5","1","3","4","4","3","1","718768648436580352","张","423","","","","match","","","","","","","","","","","","","","key","j","16.684148148148207","960","536","j","true","match","img/circle.png","圆形","圆形","ALT1_2","prac_ALT1_2","","","","","","","","","","","",""
"null","<span style='color:GreenYellow; font-size: 70px;'>正确! </span>","null","html-keyboard-response","12","179339","0.0-7.0-1.0-1.0-0.0-1.1","2","3","2","2","2","2","2","2","2","2","2","2","2","3","2","2","2","2","3","2","4","4","4","4","3","3","4","4","3","1","0","1","1","0","0","1","1","0","1","1","0","1","0","1","3","4","4","4","5","1","3","4","4","3","1","718768648436580352","张","423","","","","","","","","","","","","","","","","","","","","","","","","","","","","","","feedback_test","","","","","","","","","","","",""
"808","","f","psychophysics","13","181149","0.0-7.0-1.0-1.0-0.0-0.2","2","3","2","2","2","2","2","2","2","2","2","2","2","3","2","2","2","2","3","2","4","4","4","4","3","3","4","4","3","1","0","1","1","0","0","1","1","0","1","1","0","1","0","1","3","4","4","4","5","1","3","4","4","3","1","718768648436580352","张","423","","","","nonmatch","","","","","","","","","","","","","","key","f","16.68378703703692","960","536","f","true","nonmatch","img/triangle.png","梯形","三角","ALT1_2","prac_ALT1_2","","","","","","","","","","","",""
"null","<span style='color:GreenYellow; font-size: 70px;'>正确! </span>","null","html-keyboard-response","14","181663","0.0-7.0-1.0-1.0-0.0-1.2","2","3","2","2","2","2","2","2","2","2","2","2","2","3","2","2","2","2","3","2","4","4","4","4","3","3","4","4","3","1","0","1","1","0","0","1","1","0","1","1","0","1","0","1","3","4","4","4","5","1","3","4","4","3","1","718768648436580352","张","423","","","","","","","","","","","","","","","","","","","","","","","","","","","","","","feedback_test","","","","","","","","","","","",""
"901","","f","psychophysics","15","183573","0.0-7.0-1.0-1.0-0.0-0.3","2","3","2","2","2","2","2","2","2","2","2","2","2","3","2","2","2","2","3","2","4","4","4","4","3","3","4","4","3","1","0","1","1","0","0","1","1","0","1","1","0","1","0","1","3","4","4","4","5","1","3","4","4","3","1","718768648436580352","张","423","","","","nonmatch","","","","","","","","","","","","","","key","f","16.68335398230099","960","536","f","true","nonmatch","img/pentagon.png","梯形","五边","ALT1_2","prac_ALT1_2","","","","","","","","","","","",""
"null","<span style='color:GreenYellow; font-size: 70px;'>正确! </span>","null","html-keyboard-response","16","184077","0.0-7.0-1.0-1.0-0.0-1.3","2","3","2","2","2","2","2","2","2","2","2","2","2","3","2","2","2","2","3","2","4","4","4","4","3","3","4","4","3","1","0","1","1","0","0","1","1","0","1","1","0","1","0","1","3","4","4","4","5","1","3","4","4","3","1","718768648436580352","张","423","","","","","","","","","","","","","","","","","","","","","","","","","","","","","","feedback_test","","","","","","","","","","","",""
"646","","j","psychophysics","17","185725","0.0-7.0-1.0-1.0-0.0-0.4","2","3","2","2","2","2","2","2","2","2","2","2","2","3","2","2","2","2","3","2","4","4","4","4","3","3","4","4","3","1","0","1","1","0","0","1","1","0","1","1","0","1","0","1","3","4","4","4","5","1","3","4","4","3","1","718768648436580352","张","423","","","","match","","","","","","","","","","","","","","key","j","16.683397959183655","960","536","j","true","match","img/trapezoid.png","梯形","梯形","ALT1_2","prac_ALT1_2","","","","","","","","","","","",""
"null","<span style='color:GreenYellow; font-size: 70px;'>正确! </span>","null","html-keyboard-response","18","186236","0.0-7.0-1.0-1.0-0.0-1.4","2","3","2","2","2","2","2","2","2","2","2","2","2","3","2","2","2","2","3","2","4","4","4","4","3","3","4","4","3","1","0","1","1","0","0","1","1","0","1","1","0","1","0","1","3","4","4","4","5","1","3","4","4","3","1","718768648436580352","张","423","","","","","","","","","","","","","","","","","","","","","","","","","","","","","","feedback_test","","","","","","","","","","","",""
"656","","j","psychophysics","19","187901","0.0-7.0-1.0-1.0-0.0-0.5","2","3","2","2","2","2","2","2","2","2","2","2","2","3","2","2","2","2","3","2","4","4","4","4","3","3","4","4","3","1","0","1","1","0","0","1","1","0","1","1","0","1","0","1","3","4","4","4","5","1","3","4","4","3","1","718768648436580352","张","423","","","","match","","","","","","","","","","","","","","key","j","16.68296969696971","960","536","j","true","match","img/triangle.png","三角","三角","ALT1_2","prac_ALT1_2","","","","","","","","","","","",""
"null","<span style='color:GreenYellow; font-size: 70px;'>正确! </span>","null","html-keyboard-response","20","188414","0.0-7.0-1.0-1.0-0.0-1.5","2","3","2","2","2","2","2","2","2","2","2","2","2","3","2","2","2","2","3","2","4","4","4","4","3","3","4","4","3","1","0","1","1","0","0","1","1","0","1","1","0","1","0","1","3","4","4","4","5","1","3","4","4","3","1","718768648436580352","张","423","","","","","","","","","","","","","","","","","","","","","","","","","","","","","","feedback_test","","","","","","","","","","","",""
"692","","j","psychophysics","21","190109","0.0-7.0-1.0-1.0-0.0-0.6","2","3","2","2","2","2","2","2","2","2","2","2","2","3","2","2","2","2","3","2","4","4","4","4","3","3","4","4","3","1","0","1","1","0","0","1","1","0","1","1","0","1","0","1","3","4","4","4","5","1","3","4","4","3","1","718768648436580352","张","423","","","","match","","","","","","","","","","","","","","key","j","16.68406930693084","960","536","j","true","match","img/pentagon.png","五边","五边","ALT1_2","prac_ALT1_2","","","","","","","","","","","",""
"null","<span style='color:GreenYellow; font-size: 70px;'>正确! </span>","null","html-keyboard-response","22","190616","0.0-7.0-1.0-1.0-0.0-1.6","2","3","2","2","2","2","2","2","2","2","2","2","2","3","2","2","2","2","3","2","4","4","4","4","3","3","4","4","3","1","0","1","1","0","0","1","1","0","1","1","0","1","0","1","3","4","4","4","5","1","3","4","4","3","1","718768648436580352","张","423","","","","","","","","","","","","","","","","","","","","","","","","","","","","","","feedback_test","","","","","","","","","","","",""
"722","","f","psychophysics","23","192341","0.0-7.0-1.0-1.0-0.0-0.7","2","3","2","2","2","2","2","2","2","2","2","2","2","3","2","2","2","2","3","2","4","4","4","4","3","3","4","4","3","1","0","1","1","0","0","1","1","0","1","1","0","1","0","1","3","4","4","4","5","1","3","4","4","3","1","718768648436580352","张","423","","","","nonmatch","","","","","","","","","","","","","","key","f","16.683456310679688","960","536","f","true","nonmatch","img/circle.png","梯形","圆形","ALT1_2","prac_ALT1_2","","","","","","","","","","","",""
"null","<span style='color:GreenYellow; font-size: 70px;'>正确! </span>","null","html-keyboard-response","24","192844","0.0-7.0-1.0-1.0-0.0-1.7","2","3","2","2","2","2","2","2","2","2","2","2","2","3","2","2","2","2","3","2","4","4","4","4","3","3","4","4","3","1","0","1","1","0","0","1","1","0","1","1","0","1","0","1","3","4","4","4","5","1","3","4","4","3","1","718768648436580352","张","423","","","","","","","","","","","","","","","","","","","","","","","","","","","","","","feedback_test","","","","","","","","","","","",""
"697","","f","psychophysics","25","194550","0.0-7.0-1.0-1.0-0.0-0.8","2","3","2","2","2","2","2","2","2","2","2","2","2","3","2","2","2","2","3","2","4","4","4","4","3","3","4","4","3","1","0","1","1","0","0","1","1","0","1","1","0","1","0","1","3","4","4","4","5","1","3","4","4","3","1","718768648436580352","张","423","","","","nonmatch","","","","","","","","","","","","","","key","f","16.68406930693084","960","536","f","true","nonmatch","img/circle.png","三角","圆形","ALT1_2","prac_ALT1_2","","","","","","","","","","","",""
"null","<span style='color:GreenYellow; font-size: 70px;'>正确! </span>","null","html-keyboard-response","26","195072","0.0-7.0-1.0-1.0-0.0-1.8","2","3","2","2","2","2","2","2","2","2","2","2","2","3","2","2","2","2","3","2","4","4","4","4","3","3","4","4","3","1","0","1","1","0","0","1","1","0","1","1","0","1","0","1","3","4","4","4","5","1","3","4","4","3","1","718768648436580352","张","423","","","","","","","","","","","","","","","","","","","","","","","","","","","","","","feedback_test","","","","","","","","","","","",""
"739","","j","psychophysics","27","196813","0.0-7.0-1.0-1.0-0.0-0.9","2","3","2","2","2","2","2","2","2","2","2","2","2","3","2","2","2","2","3","2","4","4","4","4","3","3","4","4","3","1","0","1","1","0","0","1","1","0","1","1","0","1","0","1","3","4","4","4","5","1","3","4","4","3","1","718768648436580352","张","423","","","","match","","","","","","","","","","","","","","key","j","16.560223300970677","960","536","j","true","match","img/trapezoid.png","梯形","梯形","ALT1_2","prac_ALT1_2","","","","","","","","","","","",""
"null","<span style='color:GreenYellow; font-size: 70px;'>正确! </span>","null","html-keyboard-response","28","197322","0.0-7.0-1.0-1.0-0.0-1.9","2","3","2","2","2","2","2","2","2","2","2","2","2","3","2","2","2","2","3","2","4","4","4","4","3","3","4","4","3","1","0","1","1","0","0","1","1","0","1","1","0","1","0","1","3","4","4","4","5","1","3","4","4","3","1","718768648436580352","张","423","","","","","","","","","","","","","","","","","","","","","","","","","","","","","","feedback_test","","","","","","","","","","","",""
"704","","j","psychophysics","29","199030","0.0-7.0-1.0-1.0-0.0-0.10","2","3","2","2","2","2","2","2","2","2","2","2","2","3","2","2","2","2","3","2","4","4","4","4","3","3","4","4","3","1","0","1","1","0","0","1","1","0","1","1","0","1","0","1","3","4","4","4","5","1","3","4","4","3","1","718768648436580352","张","423","","","","match","","","","","","","","","","","","","","key","j","16.68322549019592","960","536","j","true","match","img/circle.png","圆形","圆形","ALT1_2","prac_ALT1_2","","","","","","","","","","","",""
"null","<span style='color:GreenYellow; font-size: 70px;'>正确! </span>","null","html-keyboard-response","30","199547","0.0-7.0-1.0-1.0-0.0-1.10","2","3","2","2","2","2","2","2","2","2","2","2","2","3","2","2","2","2","3","2","4","4","4","4","3","3","4","4","3","1","0","1","1","0","0","1","1","0","1","1","0","1","0","1","3","4","4","4","5","1","3","4","4","3","1","718768648436580352","张","423","","","","","","","","","","","","","","","","","","","","","","","","","","","","","","feedback_test","","","","","","","","","","","",""
"588","","f","psychophysics","31","201149","0.0-7.0-1.0-1.0-0.0-0.11","2","3","2","2","2","2","2","2","2","2","2","2","2","3","2","2","2","2","3","2","4","4","4","4","3","3","4","4","3","1","0","1","1","0","0","1","1","0","1","1","0","1","0","1","3","4","4","4","5","1","3","4","4","3","1","718768648436580352","张","423","","","","nonmatch","","","","","","","","","","","","","","key","f","16.68398947368413","960","536","f","true","nonmatch","img/pentagon.png","圆形","五边","ALT1_2","prac_ALT1_2","","","","","","","","","","","",""
"null","<span style='color:GreenYellow; font-size: 70px;'>正确! </span>","null","html-keyboard-response","32","201662","0.0-7.0-1.0-1.0-0.0-1.11","2","3","2","2","2","2","2","2","2","2","2","2","2","3","2","2","2","2","3","2","4","4","4","4","3","3","4","4","3","1","0","1","1","0","0","1","1","0","1","1","0","1","0","1","3","4","4","4","5","1","3","4","4","3","1","718768648436580352","张","423","","","","","","","","","","","","","","","","","","","","","","","","","","","","","","feedback_test","","","","","","","","","","","",""
"741","","j","psychophysics","33","203405","0.0-7.0-1.0-1.0-0.0-0.12","2","3","2","2","2","2","2","2","2","2","2","2","2","3","2","2","2","2","3","2","4","4","4","4","3","3","4","4","3","1","0","1","1","0","0","1","1","0","1","1","0","1","0","1","3","4","4","4","5","1","3","4","4","3","1","718768648436580352","张","423","","","","match","","","","","","","","","","","","","","key","j","16.55591262135942","960","536","j","true","match","img/pentagon.png","五边","五边","ALT1_2","prac_ALT1_2","","","","","","","","","","","",""
"null","<span style='color:GreenYellow; font-size: 70px;'>正确! </span>","null","html-keyboard-response","34","203919","0.0-7.0-1.0-1.0-0.0-1.12","2","3","2","2","2","2","2","2","2","2","2","2","2","3","2","2","2","2","3","2","4","4","4","4","3","3","4","4","3","1","0","1","1","0","0","1","1","0","1","1","0","1","0","1","3","4","4","4","5","1","3","4","4","3","1","718768648436580352","张","423","","","","","","","","","","","","","","","","","","","","","","","","","","","","","","feedback_test","","","","","","","","","","","",""
"685","","j","psychophysics","35","205613","0.0-7.0-1.0-1.0-0.0-0.13","2","3","2","2","2","2","2","2","2","2","2","2","2","3","2","2","2","2","3","2","4","4","4","4","3","3","4","4","3","1","0","1","1","0","0","1","1","0","1","1","0","1","0","1","3","4","4","4","5","1","3","4","4","3","1","718768648436580352","张","423","","","","match","","","","","","","","","","","","","","key","j","16.683539999999923","960","536","j","true","match","img/triangle.png","三角","三角","ALT1_2","prac_ALT1_2","","","","","","","","","","","",""
"null","<span style='color:GreenYellow; font-size: 70px;'>正确! </span>","null","html-keyboard-response","36","206125","0.0-7.0-1.0-1.0-0.0-1.13","2","3","2","2","2","2","2","2","2","2","2","2","2","3","2","2","2","2","3","2","4","4","4","4","3","3","4","4","3","1","0","1","1","0","0","1","1","0","1","1","0","1","0","1","3","4","4","4","5","1","3","4","4","3","1","718768648436580352","张","423","","","","","","","","","","","","","","","","","","","","","","","","","","","","","","feedback_test","","","","","","","","","","","",""
"647","","f","psychophysics","37","207781","0.0-7.0-1.0-1.0-0.0-0.14","2","3","2","2","2","2","2","2","2","2","2","2","2","3","2","2","2","2","3","2","4","4","4","4","3","3","4","4","3","1","0","1","1","0","0","1","1","0","1","1","0","1","0","1","3","4","4","4","5","1","3","4","4","3","1","718768648436580352","张","423","","","","nonmatch","","","","","","","","","","","","","","key","f","16.68368367346928","960","536","f","true","nonmatch","img/trapezoid.png","五边","梯形","ALT1_2","prac_ALT1_2","","","","","","","","","","","",""
"null","<span style='color:GreenYellow; font-size: 70px;'>正确! </span>","null","html-keyboard-response","38","208295","0.0-7.0-1.0-1.0-0.0-1.14","2","3","2","2","2","2","2","2","2","2","2","2","2","3","2","2","2","2","3","2","4","4","4","4","3","3","4","4","3","1","0","1","1","0","0","1","1","0","1","1","0","1","0","1","3","4","4","4","5","1","3","4","4","3","1","718768648436580352","张","423","","","","","","","","","","","","","","","","","","","","","","","","","","","","","","feedback_test","","","","","","","","","","","",""
"671","","f","psychophysics","39","209975","0.0-7.0-1.0-1.0-0.0-0.15","2","3","2","2","2","2","2","2","2","2","2","2","2","3","2","2","2","2","3","2","4","4","4","4","3","3","4","4","3","1","0","1","1","0","0","1","1","0","1","1","0","1","0","1","3","4","4","4","5","1","3","4","4","3","1","718768648436580352","张","423","","","","nonmatch","","","","","","","","","","","","","","key","f","16.68421000000002","960","536","f","true","nonmatch","img/circle.png","五边","圆形","ALT1_2","prac_ALT1_2","","","","","","","","","","","",""
"null","<span style='color:GreenYellow; font-size: 70px;'>正确! </span>","null","html-keyboard-response","40","210493","0.0-7.0-1.0-1.0-0.0-1.15","2","3","2","2","2","2","2","2","2","2","2","2","2","3","2","2","2","2","3","2","4","4","4","4","3","3","4","4","3","1","0","1","1","0","0","1","1","0","1","1","0","1","0","1","3","4","4","4","5","1","3","4","4","3","1","718768648436580352","张","423","","","","","","","","","","","","","","","","","","","","","","","","","","","","","","feedback_test","","","","","","","","","","","",""
"691","","j","psychophysics","41","212197","0.0-7.0-1.0-1.0-0.0-0.16","2","3","2","2","2","2","2","2","2","2","2","2","2","3","2","2","2","2","3","2","4","4","4","4","3","3","4","4","3","1","0","1","1","0","0","1","1","0","1","1","0","1","0","1","3","4","4","4","5","1","3","4","4","3","1","718768648436580352","张","423","","","","match","","","","","","","","","","","","","","key","j","16.683099009901156","960","536","j","true","match","img/trapezoid.png","梯形","梯形","ALT1_2","prac_ALT1_2","","","","","","","","","","","",""
"null","<span style='color:GreenYellow; font-size: 70px;'>正确! </span>","null","html-keyboard-response","42","212708","0.0-7.0-1.0-1.0-0.0-1.16","2","3","2","2","2","2","2","2","2","2","2","2","2","3","2","2","2","2","3","2","4","4","4","4","3","3","4","4","3","1","0","1","1","0","0","1","1","0","1","1","0","1","0","1","3","4","4","4","5","1","3","4","4","3","1","718768648436580352","张","423","","","","","","","","","","","","","","","","","","","","","","","","","","","","","","feedback_test","","","","","","","","","","","",""
"664","","f","psychophysics","43","214372","0.0-7.0-1.0-1.0-0.0-0.17","2","3","2","2","2","2","2","2","2","2","2","2","2","3","2","2","2","2","3","2","4","4","4","4","3","3","4","4","3","1","0","1","1","0","0","1","1","0","1","1","0","1","0","1","3","4","4","4","5","1","3","4","4","3","1","718768648436580352","张","423","","","","nonmatch","","","","","","","","","","","","","","key","f","16.684153061224404","960","536","f","true","nonmatch","img/triangle.png","圆形","三角","ALT1_2","prac_ALT1_2","","","","","","","","","","","",""
"null","<span style='color:GreenYellow; font-size: 70px;'>正确! </span>","null","html-keyboard-response","44","214878","0.0-7.0-1.0-1.0-0.0-1.17","2","3","2","2","2","2","2","2","2","2","2","2","2","3","2","2","2","2","3","2","4","4","4","4","3","3","4","4","3","1","0","1","1","0","0","1","1","0","1","1","0","1","0","1","3","4","4","4","5","1","3","4","4","3","1","718768648436580352","张","423","","","","","","","","","","","","","","","","","","","","","","","","","","","","","","feedback_test","","","","","","","","","","","",""
"705","","f","psychophysics","45","216597","0.0-7.0-1.0-1.0-0.0-0.18","2","3","2","2","2","2","2","2","2","2","2","2","2","3","2","2","2","2","3","2","4","4","4","4","3","3","4","4","3","1","0","1","1","0","0","1","1","0","1","1","0","1","0","1","3","4","4","4","5","1","3","4","4","3","1","718768648436580352","张","423","","","","nonmatch","","","","","","","","","","","","","","key","f","16.683715686274525","960","536","f","true","nonmatch","img/trapezoid.png","圆形","梯形","ALT1_2","prac_ALT1_2","","","","","","","","","","","",""
"null","<span style='color:GreenYellow; font-size: 70px;'>正确! </span>","null","html-keyboard-response","46","217110","0.0-7.0-1.0-1.0-0.0-1.18","2","3","2","2","2","2","2","2","2","2","2","2","2","3","2","2","2","2","3","2","4","4","4","4","3","3","4","4","3","1","0","1","1","0","0","1","1","0","1","1","0","1","0","1","3","4","4","4","5","1","3","4","4","3","1","718768648436580352","张","423","","","","","","","","","","","","","","","","","","","","","","","","","","","","","","feedback_test","","","","","","","","","","","",""
"654","","f","psychophysics","47","218766","0.0-7.0-1.0-1.0-0.0-0.19","2","3","2","2","2","2","2","2","2","2","2","2","2","3","2","2","2","2","3","2","4","4","4","4","3","3","4","4","3","1","0","1","1","0","0","1","1","0","1","1","0","1","0","1","3","4","4","4","5","1","3","4","4","3","1","718768648436580352","张","423","","","","nonmatch","","","","","","","","","","","","","","key","f","16.542836734693918","960","536","f","true","nonmatch","img/pentagon.png","三角","五边","ALT1_2","prac_ALT1_2","","","","","","","","","","","",""
"null","<span style='color:GreenYellow; font-size: 70px;'>正确! </span>","null","html-keyboard-response","48","219278","0.0-7.0-1.0-1.0-0.0-1.19","2","3","2","2","2","2","2","2","2","2","2","2","2","3","2","2","2","2","3","2","4","4","4","4","3","3","4","4","3","1","0","1","1","0","0","1","1","0","1","1","0","1","0","1","3","4","4","4","5","1","3","4","4","3","1","718768648436580352","张","423","","","","","","","","","","","","","","","","","","","","","","","","","","","","","","feedback_test","","","","","","","","","","","",""
"676","","f","psychophysics","49","220956","0.0-7.0-1.0-1.0-0.0-0.20","2","3","2","2","2","2","2","2","2","2","2","2","2","3","2","2","2","2","3","2","4","4","4","4","3","3","4","4","3","1","0","1","1","0","0","1","1","0","1","1","0","1","0","1","3","4","4","4","5","1","3","4","4","3","1","718768648436580352","张","423","","","","nonmatch","","","","","","","","","","","","","","key","f","16.683679999999878","960","536","f","true","nonmatch","img/triangle.png","五边","三角","ALT1_2","prac_ALT1_2","","","","","","","","","","","",""
"null","<span style='color:GreenYellow; font-size: 70px;'>正确! </span>","null","html-keyboard-response","50","221470","0.0-7.0-1.0-1.0-0.0-1.20","2","3","2","2","2","2","2","2","2","2","2","2","2","3","2","2","2","2","3","2","4","4","4","4","3","3","4","4","3","1","0","1","1","0","0","1","1","0","1","1","0","1","0","1","3","4","4","4","5","1","3","4","4","3","1","718768648436580352","张","423","","","","","","","","","","","","","","","","","","","","","","","","","","","","","","feedback_test","","","","","","","","","","","",""
"721","","j","psychophysics","51","223204","0.0-7.0-1.0-1.0-0.0-0.21","2","3","2","2","2","2","2","2","2","2","2","2","2","3","2","2","2","2","3","2","4","4","4","4","3","3","4","4","3","1","0","1","1","0","0","1","1","0","1","1","0","1","0","1","3","4","4","4","5","1","3","4","4","3","1","718768648436580352","张","423","","","","match","","","","","","","","","","","","","","key","j","16.68347572815521","960","536","j","true","match","img/triangle.png","三角","三角","ALT1_2","prac_ALT1_2","","","","","","","","","","","",""
"null","<span style='color:GreenYellow; font-size: 70px;'>正确! </span>","null","html-keyboard-response","52","223713","0.0-7.0-1.0-1.0-0.0-1.21","2","3","2","2","2","2","2","2","2","2","2","2","2","3","2","2","2","2","3","2","4","4","4","4","3","3","4","4","3","1","0","1","1","0","0","1","1","0","1","1","0","1","0","1","3","4","4","4","5","1","3","4","4","3","1","718768648436580352","张","423","","","","","","","","","","","","","","","","","","","","","","","","","","","","","","feedback_test","","","","","","","","","","","",""
"542","","f","psychophysics","53","225260","0.0-7.0-1.0-1.0-0.0-0.22","2","3","2","2","2","2","2","2","2","2","2","2","2","3","2","2","2","2","3","2","4","4","4","4","3","3","4","4","3","1","0","1","1","0","0","1","1","0","1","1","0","1","0","1","3","4","4","4","5","1","3","4","4","3","1","718768648436580352","张","423","","","","nonmatch","","","","","","","","","","","","","","key","f","16.682293478260956","960","536","f","true","nonmatch","img/trapezoid.png","三角","梯形","ALT1_2","prac_ALT1_2","","","","","","","","","","","",""
"null","<span style='color:GreenYellow; font-size: 70px;'>正确! </span>","null","html-keyboard-response","54","225773","0.0-7.0-1.0-1.0-0.0-1.22","2","3","2","2","2","2","2","2","2","2","2","2","2","3","2","2","2","2","3","2","4","4","4","4","3","3","4","4","3","1","0","1","1","0","0","1","1","0","1","1","0","1","0","1","3","4","4","4","5","1","3","4","4","3","1","718768648436580352","张","423","","","","","","","","","","","","","","","","","","","","","","","","","","","","","","feedback_test","","","","","","","","","","","",""
"626","","j","psychophysics","55","227412","0.0-7.0-1.0-1.0-0.0-0.23","2","3","2","2","2","2","2","2","2","2","2","2","2","3","2","2","2","2","3","2","4","4","4","4","3","3","4","4","3","1","0","1","1","0","0","1","1","0","1","1","0","1","0","1","3","4","4","4","5","1","3","4","4","3","1","718768648436580352","张","423","","","","match","","","","","","","","","","","","","","key","j","16.683360824742195","960","536","j","true","match","img/pentagon.png","五边","五边","ALT1_2","prac_ALT1_2","","","","","","","","","","","",""
"null","<span style='color:GreenYellow; font-size: 70px;'>正确! </span>","null","html-keyboard-response","56","227921","0.0-7.0-1.0-1.0-0.0-1.23","2","3","2","2","2","2","2","2","2","2","2","2","2","3","2","2","2","2","3","2","4","4","4","4","3","3","4","4","3","1","0","1","1","0","0","1","1","0","1","1","0","1","0","1","3","4","4","4","5","1","3","4","4","3","1","718768648436580352","张","423","","","","","","","","","","","","","","","","","","","","","","","","","","","","","","feedback_test","","","","","","","","","","","",""
"522","","f","psychophysics","57","229444","0.0-7.0-1.0-1.0-0.0-0.24","2","3","2","2","2","2","2","2","2","2","2","2","2","3","2","2","2","2","3","2","4","4","4","4","3","3","4","4","3","1","0","1","1","0","0","1","1","0","1","1","0","1","0","1","3","4","4","4","5","1","3","4","4","3","1","718768648436580352","张","423","","","","nonmatch","","","","","","","","","","","","","","key","f","16.68342222222224","960","536","j","false","match","img/triangle.png","三角","三角","ALT1_2","prac_ALT1_2","","","","","","","","","","","",""
"null","<span style='color:red; font-size: 70px;'>错误! </span>","null","html-keyboard-response","58","229962","0.0-7.0-1.0-1.0-0.0-1.24","2","3","2","2","2","2","2","2","2","2","2","2","2","3","2","2","2","2","3","2","4","4","4","4","3","3","4","4","3","1","0","1","1","0","0","1","1","0","1","1","0","1","0","1","3","4","4","4","5","1","3","4","4","3","1","718768648436580352","张","423","","","","","","","","","","","","","","","","","","","","","","","","","","","","","","feedback_test","","","","","","","","","","","",""
"662","","j","psychophysics","59","231636","0.0-7.0-1.0-1.0-0.0-0.25","2","3","2","2","2","2","2","2","2","2","2","2","2","3","2","2","2","2","3","2","4","4","4","4","3","3","4","4","3","1","0","1","1","0","0","1","1","0","1","1","0","1","0","1","3","4","4","4","5","1","3","4","4","3","1","718768648436580352","张","423","","","","match","","","","","","","","","","","","","","key","j","16.683202020201897","960","536","j","true","match","img/trapezoid.png","梯形","梯形","ALT1_2","prac_ALT1_2","","","","","","","","","","","",""
"null","<span style='color:GreenYellow; font-size: 70px;'>正确! </span>","null","html-keyboard-response","60","232149","0.0-7.0-1.0-1.0-0.0-1.25","2","3","2","2","2","2","2","2","2","2","2","2","2","3","2","2","2","2","3","2","4","4","4","4","3","3","4","4","3","1","0","1","1","0","0","1","1","0","1","1","0","1","0","1","3","4","4","4","5","1","3","4","4","3","1","718768648436580352","张","423","","","","","","","","","","","","","","","","","","","","","","","","","","","","","","feedback_test","","","","","","","","","","","",""
"653","","f","psychophysics","61","233812","0.0-7.0-1.0-1.0-0.0-0.26","2","3","2","2","2","2","2","2","2","2","2","2","2","3","2","2","2","2","3","2","4","4","4","4","3","3","4","4","3","1","0","1","1","0","0","1","1","0","1","1","0","1","0","1","3","4","4","4","5","1","3","4","4","3","1","718768648436580352","张","423","","","","nonmatch","","","","","","","","","","","","","","key","f","16.68301010101027","960","536","f","true","nonmatch","img/pentagon.png","梯形","五边","ALT1_2","prac_ALT1_2","","","","","","","","","","","",""
"null","<span style='color:GreenYellow; font-size: 70px;'>正确! </span>","null","html-keyboard-response","62","234317","0.0-7.0-1.0-1.0-0.0-1.26","2","3","2","2","2","2","2","2","2","2","2","2","2","3","2","2","2","2","3","2","4","4","4","4","3","3","4","4","3","1","0","1","1","0","0","1","1","0","1","1","0","1","0","1","3","4","4","4","5","1","3","4","4","3","1","718768648436580352","张","423","","","","","","","","","","","","","","","","","","","","","","","","","","","","","","feedback_test","","","","","","","","","","","",""
"580","","f","psychophysics","63","235909","0.0-7.0-1.0-1.0-0.0-0.27","2","3","2","2","2","2","2","2","2","2","2","2","2","3","2","2","2","2","3","2","4","4","4","4","3","3","4","4","3","1","0","1","1","0","0","1","1","0","1","1","0","1","0","1","3","4","4","4","5","1","3","4","4","3","1","718768648436580352","张","423","","","","nonmatch","","","","","","","","","","","","","","key","f","16.683127659574545","960","536","f","true","nonmatch","img/triangle.png","圆形","三角","ALT1_2","prac_ALT1_2","","","","","","","","","","","",""
"null","<span style='color:GreenYellow; font-size: 70px;'>正确! </span>","null","html-keyboard-response","64","236415","0.0-7.0-1.0-1.0-0.0-1.27","2","3","2","2","2","2","2","2","2","2","2","2","2","3","2","2","2","2","3","2","4","4","4","4","3","3","4","4","3","1","0","1","1","0","0","1","1","0","1","1","0","1","0","1","3","4","4","4","5","1","3","4","4","3","1","718768648436580352","张","423","","","","","","","","","","","","","","","","","","","","","","","","","","","","","","feedback_test","","","","","","","","","","","",""
"594","","j","psychophysics","65","238020","0.0-7.0-1.0-1.0-0.0-0.28","2","3","2","2","2","2","2","2","2","2","2","2","2","3","2","2","2","2","3","2","4","4","4","4","3","3","4","4","3","1","0","1","1","0","0","1","1","0","1","1","0","1","0","1","3","4","4","4","5","1","3","4","4","3","1","718768648436580352","张","423","","","","match","","","","","","","","","","","","","","key","j","16.682894736842105","960","536","j","true","match","img/trapezoid.png","梯形","梯形","ALT1_2","prac_ALT1_2","","","","","","","","","","","",""
"null","<span style='color:GreenYellow; font-size: 70px;'>正确! </span>","null","html-keyboard-response","66","238535","0.0-7.0-1.0-1.0-0.0-1.28","2","3","2","2","2","2","2","2","2","2","2","2","2","3","2","2","2","2","3","2","4","4","4","4","3","3","4","4","3","1","0","1","1","0","0","1","1","0","1","1","0","1","0","1","3","4","4","4","5","1","3","4","4","3","1","718768648436580352","张","423","","","","","","","","","","","","","","","","","","","","","","","","","","","","","","feedback_test","","","","","","","","","","","",""
"622","","j","psychophysics","67","240172","0.0-7.0-1.0-1.0-0.0-0.29","2","3","2","2","2","2","2","2","2","2","2","2","2","3","2","2","2","2","3","2","4","4","4","4","3","3","4","4","3","1","0","1","1","0","0","1","1","0","1","1","0","1","0","1","3","4","4","4","5","1","3","4","4","3","1","718768648436580352","张","423","","","","match","","","","","","","","","","","","","","key","j","16.683195876288853","960","536","j","true","match","img/pentagon.png","五边","五边","ALT1_2","prac_ALT1_2","","","","","","","","","","","",""
"null","<span style='color:GreenYellow; font-size: 70px;'>正确! </span>","null","html-keyboard-response","68","240674","0.0-7.0-1.0-1.0-0.0-1.29","2","3","2","2","2","2","2","2","2","2","2","2","2","3","2","2","2","2","3","2","4","4","4","4","3","3","4","4","3","1","0","1","1","0","0","1","1","0","1","1","0","1","0","1","3","4","4","4","5","1","3","4","4","3","1","718768648436580352","张","423","","","","","","","","","","","","","","","","","","","","","","","","","","","","","","feedback_test","","","","","","","","","","","",""
"527","","f","psychophysics","69","242213","0.0-7.0-1.0-1.0-0.0-0.30","2","3","2","2","2","2","2","2","2","2","2","2","2","3","2","2","2","2","3","2","4","4","4","4","3","3","4","4","3","1","0","1","1","0","0","1","1","0","1","1","0","1","0","1","3","4","4","4","5","1","3","4","4","3","1","718768648436580352","张","423","","","","nonmatch","","","","","","","","","","","","","","key","f","16.683846153846268","960","536","f","true","nonmatch","img/pentagon.png","三角","五边","ALT1_2","prac_ALT1_2","","","","","","","","","","","",""
"null","<span style='color:GreenYellow; font-size: 70px;'>正确! </span>","null","html-keyboard-response","70","242717","0.0-7.0-1.0-1.0-0.0-1.30","2","3","2","2","2","2","2","2","2","2","2","2","2","3","2","2","2","2","3","2","4","4","4","4","3","3","4","4","3","1","0","1","1","0","0","1","1","0","1","1","0","1","0","1","3","4","4","4","5","1","3","4","4","3","1","718768648436580352","张","423","","","","","","","","","","","","","","","","","","","","","","","","","","","","","","feedback_test","","","","","","","","","","","",""
"620","","f","psychophysics","71","244340","0.0-7.0-1.0-1.0-0.0-0.31","2","3","2","2","2","2","2","2","2","2","2","2","2","3","2","2","2","2","3","2","4","4","4","4","3","3","4","4","3","1","0","1","1","0","0","1","1","0","1","1","0","1","0","1","3","4","4","4","5","1","3","4","4","3","1","718768648436580352","张","423","","","","nonmatch","","","","","","","","","","","","","","key","f","16.683608247422658","960","536","f","true","nonmatch","img/circle.png","三角","圆形","ALT1_2","prac_ALT1_2","","","","","","","","","","","",""
"null","<span style='color:GreenYellow; font-size: 70px;'>正确! </span>","null","html-keyboard-response","72","244845","0.0-7.0-1.0-1.0-0.0-1.31","2","3","2","2","2","2","2","2","2","2","2","2","2","3","2","2","2","2","3","2","4","4","4","4","3","3","4","4","3","1","0","1","1","0","0","1","1","0","1","1","0","1","0","1","3","4","4","4","5","1","3","4","4","3","1","718768648436580352","张","423","","","","","","","","","","","","","","","","","","","","","","","","","","","","","","feedback_test","","","","","","","","","","","",""
"657","","j","psychophysics","73","246509","0.0-7.0-1.0-1.0-0.0-0.32","2","3","2","2","2","2","2","2","2","2","2","2","2","3","2","2","2","2","3","2","4","4","4","4","3","3","4","4","3","1","0","1","1","0","0","1","1","0","1","1","0","1","0","1","3","4","4","4","5","1","3","4","4","3","1","718768648436580352","张","423","","","","match","","","","","","","","","","","","","","key","j","16.682909090909167","960","536","j","true","match","img/circle.png","圆形","圆形","ALT1_2","prac_ALT1_2","","","","","","","","","","","",""
"null","<span style='color:GreenYellow; font-size: 70px;'>正确! </span>","null","html-keyboard-response","74","247010","0.0-7.0-1.0-1.0-0.0-1.32","2","3","2","2","2","2","2","2","2","2","2","2","2","3","2","2","2","2","3","2","4","4","4","4","3","3","4","4","3","1","0","1","1","0","0","1","1","0","1","1","0","1","0","1","3","4","4","4","5","1","3","4","4","3","1","718768648436580352","张","423","","","","","","","","","","","","","","","","","","","","","","","","","","","","","","feedback_test","","","","","","","","","","","",""
"607","","j","psychophysics","75","248628","0.0-7.0-1.0-1.0-0.0-0.33","2","3","2","2","2","2","2","2","2","2","2","2","2","3","2","2","2","2","3","2","4","4","4","4","3","3","4","4","3","1","0","1","1","0","0","1","1","0","1","1","0","1","0","1","3","4","4","4","5","1","3","4","4","3","1","718768648436580352","张","423","","","","match","","","","","","","","","","","","","","key","j","16.68324999999974","960","536","j","true","match","img/circle.png","圆形","圆形","ALT1_2","prac_ALT1_2","","","","","","","","","","","",""
"null","<span style='color:GreenYellow; font-size: 70px;'>正确! </span>","null","html-keyboard-response","76","249134","0.0-7.0-1.0-1.0-0.0-1.33","2","3","2","2","2","2","2","2","2","2","2","2","2","3","2","2","2","2","3","2","4","4","4","4","3","3","4","4","3","1","0","1","1","0","0","1","1","0","1","1","0","1","0","1","3","4","4","4","5","1","3","4","4","3","1","718768648436580352","张","423","","","","","","","","","","","","","","","","","","","","","","","","","","","","","","feedback_test","","","","","","","","","","","",""
"607","","f","psychophysics","77","250750","0.0-7.0-1.0-1.0-0.0-0.34","2","3","2","2","2","2","2","2","2","2","2","2","2","3","2","2","2","2","3","2","4","4","4","4","3","3","4","4","3","1","0","1","1","0","0","1","1","0","1","1","0","1","0","1","3","4","4","4","5","1","3","4","4","3","1","718768648436580352","张","423","","","","nonmatch","","","","","","","","","","","","","","key","f","16.68398958333334","960","536","f","true","nonmatch","img/pentagon.png","圆形","五边","ALT1_2","prac_ALT1_2","","","","","","","","","","","",""
"null","<span style='color:GreenYellow; font-size: 70px;'>正确! </span>","null","html-keyboard-response","78","251267","0.0-7.0-1.0-1.0-0.0-1.34","2","3","2","2","2","2","2","2","2","2","2","2","2","3","2","2","2","2","3","2","4","4","4","4","3","3","4","4","3","1","0","1","1","0","0","1","1","0","1","1","0","1","0","1","3","4","4","4","5","1","3","4","4","3","1","718768648436580352","张","423","","","","","","","","","","","","","","","","","","","","","","","","","","","","","","feedback_test","","","","","","","","","","","",""
"649","","j","psychophysics","79","252925","0.0-7.0-1.0-1.0-0.0-0.35","2","3","2","2","2","2","2","2","2","2","2","2","2","3","2","2","2","2","3","2","4","4","4","4","3","3","4","4","3","1","0","1","1","0","0","1","1","0","1","1","0","1","0","1","3","4","4","4","5","1","3","4","4","3","1","718768648436580352","张","423","","","","match","","","","","","","","","","","","","","key","j","16.683948979591857","960","536","j","true","match","img/pentagon.png","五边","五边","ALT1_2","prac_ALT1_2","","","","","","","","","","","",""
"null","<span style='color:GreenYellow; font-size: 70px;'>正确! </span>","null","html-keyboard-response","80","253432","0.0-7.0-1.0-1.0-0.0-1.35","2","3","2","2","2","2","2","2","2","2","2","2","2","3","2","2","2","2","3","2","4","4","4","4","3","3","4","4","3","1","0","1","1","0","0","1","1","0","1","1","0","1","0","1","3","4","4","4","5","1","3","4","4","3","1","718768648436580352","张","423","","","","","","","","","","","","","","","","","","","","","","","","","","","","","","feedback_test","","","","","","","","","","","",""
"640","","f","psychophysics","81","255085","0.0-7.0-1.0-1.0-0.0-0.36","2","3","2","2","2","2","2","2","2","2","2","2","2","3","2","2","2","2","3","2","4","4","4","4","3","3","4","4","3","1","0","1","1","0","0","1","1","0","1","1","0","1","0","1","3","4","4","4","5","1","3","4","4","3","1","718768648436580352","张","423","","","","nonmatch","","","","","","","","","","","","","","key","f","16.68292857142853","960","536","f","true","nonmatch","img/circle.png","五边","圆形","ALT1_2","prac_ALT1_2","","","","","","","","","","","",""
"null","<span style='color:GreenYellow; font-size: 70px;'>正确! </span>","null","html-keyboard-response","82","255591","0.0-7.0-1.0-1.0-0.0-1.36","2","3","2","2","2","2","2","2","2","2","2","2","2","3","2","2","2","2","3","2","4","4","4","4","3","3","4","4","3","1","0","1","1","0","0","1","1","0","1","1","0","1","0","1","3","4","4","4","5","1","3","4","4","3","1","718768648436580352","张","423","","","","","","","","","","","","","","","","","","","","","","","","","","","","","","feedback_test","","","","","","","","","","","",""
"637","","j","psychophysics","83","257237","0.0-7.0-1.0-1.0-0.0-0.37","2","3","2","2","2","2","2","2","2","2","2","2","2","3","2","2","2","2","3","2","4","4","4","4","3","3","4","4","3","1","0","1","1","0","0","1","1","0","1","1","0","1","0","1","3","4","4","4","5","1","3","4","4","3","1","718768648436580352","张","423","","","","match","","","","","","","","","","","","","","key","j","16.683051020407998","960","536","j","true","match","img/triangle.png","三角","三角","ALT1_2","prac_ALT1_2","","","","","","","","","","","",""
"null","<span style='color:GreenYellow; font-size: 70px;'>正确! </span>","null","html-keyboard-response","84","257759","0.0-7.0-1.0-1.0-0.0-1.37","2","3","2","2","2","2","2","2","2","2","2","2","2","3","2","2","2","2","3","2","4","4","4","4","3","3","4","4","3","1","0","1","1","0","0","1","1","0","1","1","0","1","0","1","3","4","4","4","5","1","3","4","4","3","1","718768648436580352","张","423","","","","","","","","","","","","","","","","","","","","","","","","","","","","","","feedback_test","","","","","","","","","","","",""
"619","","f","psychophysics","85","259388","0.0-7.0-1.0-1.0-0.0-0.38","2","3","2","2","2","2","2","2","2","2","2","2","2","3","2","2","2","2","3","2","4","4","4","4","3","3","4","4","3","1","0","1","1","0","0","1","1","0","1","1","0","1","0","1","3","4","4","4","5","1","3","4","4","3","1","718768648436580352","张","423","","","","nonmatch","","","","","","","","","","","","","","key","f","16.683494845360816","960","536","f","true","nonmatch","img/trapezoid.png","三角","梯形","ALT1_2","prac_ALT1_2","","","","","","","","","","","",""
"null","<span style='color:GreenYellow; font-size: 70px;'>正确! </span>","null","html-keyboard-response","86","259889","0.0-7.0-1.0-1.0-0.0-1.38","2","3","2","2","2","2","2","2","2","2","2","2","2","3","2","2","2","2","3","2","4","4","4","4","3","3","4","4","3","1","0","1","1","0","0","1","1","0","1","1","0","1","0","1","3","4","4","4","5","1","3","4","4","3","1","718768648436580352","张","423","","","","","","","","","","","","","","","","","","","","","","","","","","","","","","feedback_test","","","","","","","","","","","",""
"567","","f","psychophysics","87","261468","0.0-7.0-1.0-1.0-0.0-0.39","2","3","2","2","2","2","2","2","2","2","2","2","2","3","2","2","2","2","3","2","4","4","4","4","3","3","4","4","3","1","0","1","1","0","0","1","1","0","1","1","0","1","0","1","3","4","4","4","5","1","3","4","4","3","1","718768648436580352","张","423","","","","nonmatch","","","","","","","","","","","","","","key","f","16.682795698924732","960","536","f","true","nonmatch","img/circle.png","梯形","圆形","ALT1_2","prac_ALT1_2","","","","","","","","","","","",""
"null","<span style='color:GreenYellow; font-size: 70px;'>正确! </span>","null","html-keyboard-response","88","261976","0.0-7.0-1.0-1.0-0.0-1.39","2","3","2","2","2","2","2","2","2","2","2","2","2","3","2","2","2","2","3","2","4","4","4","4","3","3","4","4","3","1","0","1","1","0","0","1","1","0","1","1","0","1","0","1","3","4","4","4","5","1","3","4","4","3","1","718768648436580352","张","423","","","","","","","","","","","","","","","","","","","","","","","","","","","","","","feedback_test","","","","","","","","","","","",""
"646","","j","psychophysics","89","263636","0.0-7.0-1.0-1.0-0.0-0.40","2","3","2","2","2","2","2","2","2","2","2","2","2","3","2","2","2","2","3","2","4","4","4","4","3","3","4","4","3","1","0","1","1","0","0","1","1","0","1","1","0","1","0","1","3","4","4","4","5","1","3","4","4","3","1","718768648436580352","张","423","","","","match","","","","","","","","","","","","","","key","j","16.68315306122472","960","536","j","true","match","img/triangle.png","三角","三角","ALT1_2","prac_ALT1_2","","","","","","","","","","","",""
"null","<span style='color:GreenYellow; font-size: 70px;'>正确! </span>","null","html-keyboard-response","90","264144","0.0-7.0-1.0-1.0-0.0-1.40","2","3","2","2","2","2","2","2","2","2","2","2","2","3","2","2","2","2","3","2","4","4","4","4","3","3","4","4","3","1","0","1","1","0","0","1","1","0","1","1","0","1","0","1","3","4","4","4","5","1","3","4","4","3","1","718768648436580352","张","423","","","","","","","","","","","","","","","","","","","","","","","","","","","","","","feedback_test","","","","","","","","","","","",""
"654","","j","psychophysics","91","265812","0.0-7.0-1.0-1.0-0.0-0.41","2","3","2","2","2","2","2","2","2","2","2","2","2","3","2","2","2","2","3","2","4","4","4","4","3","3","4","4","3","1","0","1","1","0","0","1","1","0","1","1","0","1","0","1","3","4","4","4","5","1","3","4","4","3","1","718768648436580352","张","423","","","","match","","","","","","","","","","","","","","key","j","16.682656565656405","960","536","j","true","match","img/pentagon.png","五边","五边","ALT1_2","prac_ALT1_2","","","","","","","","","","","",""
"null","<span style='color:GreenYellow; font-size: 70px;'>正确! </span>","null","html-keyboard-response","92","266319","0.0-7.0-1.0-1.0-0.0-1.41","2","3","2","2","2","2","2","2","2","2","2","2","2","3","2","2","2","2","3","2","4","4","4","4","3","3","4","4","3","1","0","1","1","0","0","1","1","0","1","1","0","1","0","1","3","4","4","4","5","1","3","4","4","3","1","718768648436580352","张","423","","","","","","","","","","","","","","","","","","","","","","","","","","","","","","feedback_test","","","","","","","","","","","",""
"632","","f","psychophysics","93","267956","0.0-7.0-1.0-1.0-0.0-0.42","2","3","2","2","2","2","2","2","2","2","2","2","2","3","2","2","2","2","3","2","4","4","4","4","3","3","4","4","3","1","0","1","1","0","0","1","1","0","1","1","0","1","0","1","3","4","4","4","5","1","3","4","4","3","1","718768648436580352","张","423","","","","nonmatch","","","","","","","","","","","","","","key","f","16.68297938144281","960","536","f","true","nonmatch","img/triangle.png","梯形","三角","ALT1_2","prac_ALT1_2","","","","","","","","","","","",""
"null","<span style='color:GreenYellow; font-size: 70px;'>正确! </span>","null","html-keyboard-response","94","268468","0.0-7.0-1.0-1.0-0.0-1.42","2","3","2","2","2","2","2","2","2","2","2","2","2","3","2","2","2","2","3","2","4","4","4","4","3","3","4","4","3","1","0","1","1","0","0","1","1","0","1","1","0","1","0","1","3","4","4","4","5","1","3","4","4","3","1","718768648436580352","张","423","","","","","","","","","","","","","","","","","","","","","","","","","","","","","","feedback_test","","","","","","","","","","","",""
"639","","j","psychophysics","95","270116","0.0-7.0-1.0-1.0-0.0-0.43","2","3","2","2","2","2","2","2","2","2","2","2","2","3","2","2","2","2","3","2","4","4","4","4","3","3","4","4","3","1","0","1","1","0","0","1","1","0","1","1","0","1","0","1","3","4","4","4","5","1","3","4","4","3","1","718768648436580352","张","423","","","","match","","","","","","","","","","","","","","key","j","16.683377551020016","960","536","j","true","match","img/circle.png","圆形","圆形","ALT1_2","prac_ALT1_2","","","","","","","","","","","",""
"null","<span style='color:GreenYellow; font-size: 70px;'>正确! </span>","null","html-keyboard-response","96","270622","0.0-7.0-1.0-1.0-0.0-1.43","2","3","2","2","2","2","2","2","2","2","2","2","2","3","2","2","2","2","3","2","4","4","4","4","3","3","4","4","3","1","0","1","1","0","0","1","1","0","1","1","0","1","0","1","3","4","4","4","5","1","3","4","4","3","1","718768648436580352","张","423","","","","","","","","","","","","","","","","","","","","","","","","","","","","","","feedback_test","","","","","","","","","","","",""
"654","","f","psychophysics","97","272285","0.0-7.0-1.0-1.0-0.0-0.44","2","3","2","2","2","2","2","2","2","2","2","2","2","3","2","2","2","2","3","2","4","4","4","4","3","3","4","4","3","1","0","1","1","0","0","1","1","0","1","1","0","1","0","1","3","4","4","4","5","1","3","4","4","3","1","718768648436580352","张","423","","","","nonmatch","","","","","","","","","","","","","","key","f","16.683333333333568","960","536","f","true","nonmatch","img/triangle.png","五边","三角","ALT1_2","prac_ALT1_2","","","","","","","","","","","",""
"null","<span style='color:GreenYellow; font-size: 70px;'>正确! </span>","null","html-keyboard-response","98","272808","0.0-7.0-1.0-1.0-0.0-1.44","2","3","2","2","2","2","2","2","2","2","2","2","2","3","2","2","2","2","3","2","4","4","4","4","3","3","4","4","3","1","0","1","1","0","0","1","1","0","1","1","0","1","0","1","3","4","4","4","5","1","3","4","4","3","1","718768648436580352","张","423","","","","","","","","","","","","","","","","","","","","","","","","","","","","","","feedback_test","","","","","","","","","","","",""
"643","","f","psychophysics","99","274460","0.0-7.0-1.0-1.0-0.0-0.45","2","3","2","2","2","2","2","2","2","2","2","2","2","3","2","2","2","2","3","2","4","4","4","4","3","3","4","4","3","1","0","1","1","0","0","1","1","0","1","1","0","1","0","1","3","4","4","4","5","1","3","4","4","3","1","718768648436580352","张","423","","","","nonmatch","","","","","","","","","","","","","","key","f","16.68345918367339","960","536","f","true","nonmatch","img/trapezoid.png","圆形","梯形","ALT1_2","prac_ALT1_2","","","","","","","","","","","",""
"null","<span style='color:GreenYellow; font-size: 70px;'>正确! </span>","null","html-keyboard-response","100","274973","0.0-7.0-1.0-1.0-0.0-1.45","2","3","2","2","2","2","2","2","2","2","2","2","2","3","2","2","2","2","3","2","4","4","4","4","3","3","4","4","3","1","0","1","1","0","0","1","1","0","1","1","0","1","0","1","3","4","4","4","5","1","3","4","4","3","1","718768648436580352","张","423","","","","","","","","","","","","","","","","","","","","","","","","","","","","","","feedback_test","","","","","","","","","","","",""
"1028","","f","psychophysics","101","277012","0.0-7.0-1.0-1.0-0.0-0.46","2","3","2","2","2","2","2","2","2","2","2","2","2","3","2","2","2","2","3","2","4","4","4","4","3","3","4","4","3","1","0","1","1","0","0","1","1","0","1","1","0","1","0","1","3","4","4","4","5","1","3","4","4","3","1","718768648436580352","张","423","","","","nonmatch","","","","","","","","","","","","","","key","f","16.683239669421656","960","536","f","true","nonmatch","img/trapezoid.png","五边","梯形","ALT1_2","prac_ALT1_2","","","","","","","","","","","",""
"null","<span style='color:GreenYellow; font-size: 70px;'>正确! </span>","null","html-keyboard-response","102","277525","0.0-7.0-1.0-1.0-0.0-1.46","2","3","2","2","2","2","2","2","2","2","2","2","2","3","2","2","2","2","3","2","4","4","4","4","3","3","4","4","3","1","0","1","1","0","0","1","1","0","1","1","0","1","0","1","3","4","4","4","5","1","3","4","4","3","1","718768648436580352","张","423","","","","","","","","","","","","","","","","","","","","","","","","","","","","","","feedback_test","","","","","","","","","","","",""
"586","","j","psychophysics","103","279125","0.0-7.0-1.0-1.0-0.0-0.47","2","3","2","2","2","2","2","2","2","2","2","2","2","3","2","2","2","2","3","2","4","4","4","4","3","3","4","4","3","1","0","1","1","0","0","1","1","0","1","1","0","1","0","1","3","4","4","4","5","1","3","4","4","3","1","718768648436580352","张","423","","","","match","","","","","","","","","","","","","","key","j","16.68347368421045","960","536","j","true","match","img/trapezoid.png","梯形","梯形","ALT1_2","prac_ALT1_2","","","","","","","","","","","",""
"null","<span style='color:GreenYellow; font-size: 70px;'>正确! </span>","null","html-keyboard-response","104","279639","0.0-7.0-1.0-1.0-0.0-1.47","2","3","2","2","2","2","2","2","2","2","2","2","2","3","2","2","2","2","3","2","4","4","4","4","3","3","4","4","3","1","0","1","1","0","0","1","1","0","1","1","0","1","0","1","3","4","4","4","5","1","3","4","4","3","1","718768648436580352","张","423","","","","","","","","","","","","","","","","","","","","","","","","","","","","","","feedback_test","","","","","","","","","","","",""
"45835","<style>.context{color:white; font-size: 35px; line-height:40px}</style>                          <div><p class='context'>您正确回答了96% 的试次。</p><p class='context'>您的平均反应时为668毫秒。</p><p class='context'>恭喜您完成练习。按空格键进入正式实验。</p><p class='footer' style='font-size: 35px; line-height:40px;'>请在进入正式实验实验之前将您的<span style='color: lightgreen;'>食指</span>放在电脑键盘的相应键位上进行按键。</p>"," ","html-keyboard-response","105","325476","0.0-7.0-1.0-2.0","2","3","2","2","2","2","2","2","2","2","2","2","2","3","2","2","2","2","3","2","4","4","4","4","3","3","4","4","3","1","0","1","1","0","0","1","1","0","1","1","0","1","0","1","3","4","4","4","5","1","3","4","4","3","1","718768648436580352","张","423","","","","","","","","","","","","","","","","","","","","","","","","","","","","","","","","","","","","","","","","","",""
"757","
  <p style='color: white; font-size: 22px'>请您将手指放在按键上，准备进入正式的匹配任务。</p>
  <p> <div style = ""color: green""><按空格键进入下一阶段的匹配任务></div></p>
  "," ","html-keyboard-response","106","326235","0.0-7.0-1.0-3.0","2","3","2","2","2","2","2","2","2","2","2","2","2","3","2","2","2","2","3","2","4","4","4","4","3","3","4","4","3","1","0","1","1","0","0","1","1","0","1","1","0","1","0","1","3","4","4","4","5","1","3","4","4","3","1","718768648436580352","张","423","","","","","","","","","","","","","","","","","","","","","","","","","","","","","","","","","","","","","","","","","",""
"583","","j","psychophysics","107","327820","0.0-7.0-1.0-4.0-0.0-0.0","2","3","2","2","2","2","2","2","2","2","2","2","2","3","2","2","2","2","3","2","4","4","4","4","3","3","4","4","3","1","0","1","1","0","0","1","1","0","1","1","0","1","0","1","3","4","4","4","5","1","3","4","4","3","1","718768648436580352","张","423","","","","match","","","","","","","","","","","","","","key","j","16.683279569892925","960","536","j","true","match","img/circle.png","圆形","圆形","ALT1","formal_ALT1_2","","","","","","","","","","","",""
"null","<span style='color:GreenYellow; font-size: 70px;'>正确! </span>","null","html-keyboard-response","108","328322","0.0-7.0-1.0-4.0-0.0-1.0","2","3","2","2","2","2","2","2","2","2","2","2","2","3","2","2","2","2","3","2","4","4","4","4","3","3","4","4","3","1","0","1","1","0","0","1","1","0","1","1","0","1","0","1","3","4","4","4","5","1","3","4","4","3","1","718768648436580352","张","423","","","","","","","","","","","","","","","","","","","","","","","","","","","","","","feedback_test","","","","","","","","","","","",""
"520","","j","psychophysics","109","329844","0.0-7.0-1.0-4.0-0.0-0.1","2","3","2","2","2","2","2","2","2","2","2","2","2","3","2","2","2","2","3","2","4","4","4","4","3","3","4","4","3","1","0","1","1","0","0","1","1","0","1","1","0","1","0","1","3","4","4","4","5","1","3","4","4","3","1","718768648436580352","张","423","","","","match","","","","","","","","","","","","","","key","j","16.683388888888942","960","536","j","true","match","img/circle.png","圆形","圆形","ALT1","formal_ALT1_2","","","","","","","","","","","",""
"null","<span style='color:GreenYellow; font-size: 70px;'>正确! </span>","null","html-keyboard-response","110","330348","0.0-7.0-1.0-4.0-0.0-1.1","2","3","2","2","2","2","2","2","2","2","2","2","2","3","2","2","2","2","3","2","4","4","4","4","3","3","4","4","3","1","0","1","1","0","0","1","1","0","1","1","0","1","0","1","3","4","4","4","5","1","3","4","4","3","1","718768648436580352","张","423","","","","","","","","","","","","","","","","","","","","","","","","","","","","","","feedback_test","","","","","","","","","","","",""
"614","","f","psychophysics","111","331972","0.0-7.0-1.0-4.0-0.0-0.2","2","3","2","2","2","2","2","2","2","2","2","2","2","3","2","2","2","2","3","2","4","4","4","4","3","3","4","4","3","1","0","1","1","0","0","1","1","0","1","1","0","1","0","1","3","4","4","4","5","1","3","4","4","3","1","718768648436580352","张","423","","","","nonmatch","","","","","","","","","","","","","","key","f","16.683749999999538","960","536","f","true","nonmatch","img/triangle.png","梯形","三角","ALT1","formal_ALT1_2","","","","","","","","","","","",""
"null","<span style='color:GreenYellow; font-size: 70px;'>正确! </span>","null","html-keyboard-response","112","332487","0.0-7.0-1.0-4.0-0.0-1.2","2","3","2","2","2","2","2","2","2","2","2","2","2","3","2","2","2","2","3","2","4","4","4","4","3","3","4","4","3","1","0","1","1","0","0","1","1","0","1","1","0","1","0","1","3","4","4","4","5","1","3","4","4","3","1","718768648436580352","张","423","","","","","","","","","","","","","","","","","","","","","","","","","","","","","","feedback_test","","","","","","","","","","","",""
"679","","j","psychophysics","113","334172","0.0-7.0-1.0-4.0-0.0-0.3","2","3","2","2","2","2","2","2","2","2","2","2","2","3","2","2","2","2","3","2","4","4","4","4","3","3","4","4","3","1","0","1","1","0","0","1","1","0","1","1","0","1","0","1","3","4","4","4","5","1","3","4","4","3","1","718768648436580352","张","423","","","","match","","","","","","","","","","","","","","key","j","16.684139999999896","960","536","j","true","match","img/triangle.png","三角","三角","ALT1","formal_ALT1_2","","","","","","","","","","","",""
"null","<span style='color:GreenYellow; font-size: 70px;'>正确! </span>","null","html-keyboard-response","114","334681","0.0-7.0-1.0-4.0-0.0-1.3","2","3","2","2","2","2","2","2","2","2","2","2","2","3","2","2","2","2","3","2","4","4","4","4","3","3","4","4","3","1","0","1","1","0","0","1","1","0","1","1","0","1","0","1","3","4","4","4","5","1","3","4","4","3","1","718768648436580352","张","423","","","","","","","","","","","","","","","","","","","","","","","","","","","","","","feedback_test","","","","","","","","","","","",""
"477","","j","psychophysics","115","336171","0.0-7.0-1.0-4.0-0.0-0.4","2","3","2","2","2","2","2","2","2","2","2","2","2","3","2","2","2","2","3","2","4","4","4","4","3","3","4","4","3","1","0","1","1","0","0","1","1","0","1","1","0","1","0","1","3","4","4","4","5","1","3","4","4","3","1","718768648436580352","张","423","","","","match","","","","","","","","","","","","","","key","j","16.683795454545443","960","536","j","true","match","img/circle.png","圆形","圆形","ALT1","formal_ALT1_2","","","","","","","","","","","",""
"null","<span style='color:GreenYellow; font-size: 70px;'>正确! </span>","null","html-keyboard-response","116","336684","0.0-7.0-1.0-4.0-0.0-1.4","2","3","2","2","2","2","2","2","2","2","2","2","2","3","2","2","2","2","3","2","4","4","4","4","3","3","4","4","3","1","0","1","1","0","0","1","1","0","1","1","0","1","0","1","3","4","4","4","5","1","3","4","4","3","1","718768648436580352","张","423","","","","","","","","","","","","","","","","","","","","","","","","","","","","","","feedback_test","","","","","","","","","","","",""
"546","","f","psychophysics","117","338243","0.0-7.0-1.0-4.0-0.0-0.5","2","3","2","2","2","2","2","2","2","2","2","2","2","3","2","2","2","2","3","2","4","4","4","4","3","3","4","4","3","1","0","1","1","0","0","1","1","0","1","1","0","1","0","1","3","4","4","4","5","1","3","4","4","3","1","718768648436580352","张","423","","","","nonmatch","","","","","","","","","","","","","","key","f","16.683249999999965","960","536","f","true","nonmatch","img/triangle.png","五边","三角","ALT1","formal_ALT1_2","","","","","","","","","","","",""
"null","<span style='color:GreenYellow; font-size: 70px;'>正确! </span>","null","html-keyboard-response","118","338754","0.0-7.0-1.0-4.0-0.0-1.5","2","3","2","2","2","2","2","2","2","2","2","2","2","3","2","2","2","2","3","2","4","4","4","4","3","3","4","4","3","1","0","1","1","0","0","1","1","0","1","1","0","1","0","1","3","4","4","4","5","1","3","4","4","3","1","718768648436580352","张","423","","","","","","","","","","","","","","","","","","","","","","","","","","","","","","feedback_test","","","","","","","","","","","",""
"598","","j","psychophysics","119","340363","0.0-7.0-1.0-4.0-0.0-0.6","2","3","2","2","2","2","2","2","2","2","2","2","2","3","2","2","2","2","3","2","4","4","4","4","3","3","4","4","3","1","0","1","1","0","0","1","1","0","1","1","0","1","0","1","3","4","4","4","5","1","3","4","4","3","1","718768648436580352","张","423","","","","match","","","","","","","","","","","","","","key","j","16.68370526315779","960","536","j","true","match","img/pentagon.png","五边","五边","ALT1","formal_ALT1_2","","","","","","","","","","","",""
"null","<span style='color:GreenYellow; font-size: 70px;'>正确! </span>","null","html-keyboard-response","120","340875","0.0-7.0-1.0-4.0-0.0-1.6","2","3","2","2","2","2","2","2","2","2","2","2","2","3","2","2","2","2","3","2","4","4","4","4","3","3","4","4","3","1","0","1","1","0","0","1","1","0","1","1","0","1","0","1","3","4","4","4","5","1","3","4","4","3","1","718768648436580352","张","423","","","","","","","","","","","","","","","","","","","","","","","","","","","","","","feedback_test","","","","","","","","","","","",""
"527","","f","psychophysics","121","342411","0.0-7.0-1.0-4.0-0.0-0.7","2","3","2","2","2","2","2","2","2","2","2","2","2","3","2","2","2","2","3","2","4","4","4","4","3","3","4","4","3","1","0","1","1","0","0","1","1","0","1","1","0","1","0","1","3","4","4","4","5","1","3","4","4","3","1","718768648436580352","张","423","","","","nonmatch","","","","","","","","","","","","","","key","f","16.6841868131868","960","536","f","true","nonmatch","img/triangle.png","圆形","三角","ALT1","formal_ALT1_2","","","","","","","","","","","",""
"null","<span style='color:GreenYellow; font-size: 70px;'>正确! </span>","null","html-keyboard-response","122","342917","0.0-7.0-1.0-4.0-0.0-1.7","2","3","2","2","2","2","2","2","2","2","2","2","2","3","2","2","2","2","3","2","4","4","4","4","3","3","4","4","3","1","0","1","1","0","0","1","1","0","1","1","0","1","0","1","3","4","4","4","5","1","3","4","4","3","1","718768648436580352","张","423","","","","","","","","","","","","","","","","","","","","","","","","","","","","","","feedback_test","","","","","","","","","","","",""
"596","","j","psychophysics","123","344515","0.0-7.0-1.0-4.0-0.0-0.8","2","3","2","2","2","2","2","2","2","2","2","2","2","3","2","2","2","2","3","2","4","4","4","4","3","3","4","4","3","1","0","1","1","0","0","1","1","0","1","1","0","1","0","1","3","4","4","4","5","1","3","4","4","3","1","718768648436580352","张","423","","","","match","","","","","","","","","","","","","","key","j","16.683094736841802","960","536","j","true","match","img/trapezoid.png","梯形","梯形","ALT1","formal_ALT1_2","","","","","","","","","","","",""
"null","<span style='color:GreenYellow; font-size: 70px;'>正确! </span>","null","html-keyboard-response","124","345023","0.0-7.0-1.0-4.0-0.0-1.8","2","3","2","2","2","2","2","2","2","2","2","2","2","3","2","2","2","2","3","2","4","4","4","4","3","3","4","4","3","1","0","1","1","0","0","1","1","0","1","1","0","1","0","1","3","4","4","4","5","1","3","4","4","3","1","718768648436580352","张","423","","","","","","","","","","","","","","","","","","","","","","","","","","","","","","feedback_test","","","","","","","","","","","",""
"560","","j","psychophysics","125","346587","0.0-7.0-1.0-4.0-0.0-0.9","2","3","2","2","2","2","2","2","2","2","2","2","2","3","2","2","2","2","3","2","4","4","4","4","3","3","4","4","3","1","0","1","1","0","0","1","1","0","1","1","0","1","0","1","3","4","4","4","5","1","3","4","4","3","1","718768648436580352","张","423","","","","match","","","","","","","","","","","","","","key","j","16.68211956521744","960","536","f","false","nonmatch","img/circle.png","五边","圆形","ALT1","formal_ALT1_2","","","","","","","","","","","",""
"null","<span style='color:red; font-size: 70px;'>错误! </span>","null","html-keyboard-response","126","347088","0.0-7.0-1.0-4.0-0.0-1.9","2","3","2","2","2","2","2","2","2","2","2","2","2","3","2","2","2","2","3","2","4","4","4","4","3","3","4","4","3","1","0","1","1","0","0","1","1","0","1","1","0","1","0","1","3","4","4","4","5","1","3","4","4","3","1","718768648436580352","张","423","","","","","","","","","","","","","","","","","","","","","","","","","","","","","","feedback_test","","","","","","","","","","","",""
"601","","j","psychophysics","127","348692","0.0-7.0-1.0-4.0-0.0-0.10","2","3","2","2","2","2","2","2","2","2","2","2","2","3","2","2","2","2","3","2","4","4","4","4","3","3","4","4","3","1","0","1","1","0","0","1","1","0","1","1","0","1","0","1","3","4","4","4","5","1","3","4","4","3","1","718768648436580352","张","423","","","","match","","","","","","","","","","","","","","key","j","16.683656249999938","960","536","j","true","match","img/pentagon.png","五边","五边","ALT1","formal_ALT1_2","","","","","","","","","","","",""
"null","<span style='color:GreenYellow; font-size: 70px;'>正确! </span>","null","html-keyboard-response","128","349209","0.0-7.0-1.0-4.0-0.0-1.10","2","3","2","2","2","2","2","2","2","2","2","2","2","3","2","2","2","2","3","2","4","4","4","4","3","3","4","4","3","1","0","1","1","0","0","1","1","0","1","1","0","1","0","1","3","4","4","4","5","1","3","4","4","3","1","718768648436580352","张","423","","","","","","","","","","","","","","","","","","","","","","","","","","","","","","feedback_test","","","","","","","","","","","",""
"568","","f","psychophysics","129","350787","0.0-7.0-1.0-4.0-0.0-0.11","2","3","2","2","2","2","2","2","2","2","2","2","2","3","2","2","2","2","3","2","4","4","4","4","3","3","4","4","3","1","0","1","1","0","0","1","1","0","1","1","0","1","0","1","3","4","4","4","5","1","3","4","4","3","1","718768648436580352","张","423","","","","nonmatch","","","","","","","","","","","","","","key","f","16.683569892472963","960","536","f","true","nonmatch","img/trapezoid.png","三角","梯形","ALT1","formal_ALT1_2","","","","","","","","","","","",""
"null","<span style='color:GreenYellow; font-size: 70px;'>正确! </span>","null","html-keyboard-response","130","351296","0.0-7.0-1.0-4.0-0.0-1.11","2","3","2","2","2","2","2","2","2","2","2","2","2","3","2","2","2","2","3","2","4","4","4","4","3","3","4","4","3","1","0","1","1","0","0","1","1","0","1","1","0","1","0","1","3","4","4","4","5","1","3","4","4","3","1","718768648436580352","张","423","","","","","","","","","","","","","","","","","","","","","","","","","","","","","","feedback_test","","","","","","","","","","","",""
"612","","f","psychophysics","131","352924","0.0-7.0-1.0-4.0-0.0-0.12","2","3","2","2","2","2","2","2","2","2","2","2","2","3","2","2","2","2","3","2","4","4","4","4","3","3","4","4","3","1","0","1","1","0","0","1","1","0","1","1","0","1","0","1","3","4","4","4","5","1","3","4","4","3","1","718768648436580352","张","423","","","","nonmatch","","","","","","","","","","","","","","key","f","16.68264583333318","960","536","f","true","nonmatch","img/trapezoid.png","圆形","梯形","ALT1","formal_ALT1_2","","","","","","","","","","","",""
"null","<span style='color:GreenYellow; font-size: 70px;'>正确! </span>","null","html-keyboard-response","132","353430","0.0-7.0-1.0-4.0-0.0-1.12","2","3","2","2","2","2","2","2","2","2","2","2","2","3","2","2","2","2","3","2","4","4","4","4","3","3","4","4","3","1","0","1","1","0","0","1","1","0","1","1","0","1","0","1","3","4","4","4","5","1","3","4","4","3","1","718768648436580352","张","423","","","","","","","","","","","","","","","","","","","","","","","","","","","","","","feedback_test","","","","","","","","","","","",""
"717","","f","psychophysics","133","355148","0.0-7.0-1.0-4.0-0.0-0.13","2","3","2","2","2","2","2","2","2","2","2","2","2","3","2","2","2","2","3","2","4","4","4","4","3","3","4","4","3","1","0","1","1","0","0","1","1","0","1","1","0","1","0","1","3","4","4","4","5","1","3","4","4","3","1","718768648436580352","张","423","","","","nonmatch","","","","","","","","","","","","","","key","f","16.68310891089115","960","536","f","true","nonmatch","img/pentagon.png","梯形","五边","ALT1","formal_ALT1_2","","","","","","","","","","","",""
"null","<span style='color:GreenYellow; font-size: 70px;'>正确! </span>","null","html-keyboard-response","134","355661","0.0-7.0-1.0-4.0-0.0-1.13","2","3","2","2","2","2","2","2","2","2","2","2","2","3","2","2","2","2","3","2","4","4","4","4","3","3","4","4","3","1","0","1","1","0","0","1","1","0","1","1","0","1","0","1","3","4","4","4","5","1","3","4","4","3","1","718768648436580352","张","423","","","","","","","","","","","","","","","","","","","","","","","","","","","","","","feedback_test","","","","","","","","","","","",""
"618","","j","psychophysics","135","357283","0.0-7.0-1.0-4.0-0.0-0.14","2","3","2","2","2","2","2","2","2","2","2","2","2","3","2","2","2","2","3","2","4","4","4","4","3","3","4","4","3","1","0","1","1","0","0","1","1","0","1","1","0","1","0","1","3","4","4","4","5","1","3","4","4","3","1","718768648436580352","张","423","","","","match","","","","","","","","","","","","","","key","j","16.68383505154634","960","536","j","true","match","img/triangle.png","三角","三角","ALT1","formal_ALT1_2","","","","","","","","","","","",""
"null","<span style='color:GreenYellow; font-size: 70px;'>正确! </span>","null","html-keyboard-response","136","357799","0.0-7.0-1.0-4.0-0.0-1.14","2","3","2","2","2","2","2","2","2","2","2","2","2","3","2","2","2","2","3","2","4","4","4","4","3","3","4","4","3","1","0","1","1","0","0","1","1","0","1","1","0","1","0","1","3","4","4","4","5","1","3","4","4","3","1","718768648436580352","张","423","","","","","","","","","","","","","","","","","","","","","","","","","","","","","","feedback_test","","","","","","","","","","","",""
"570","","f","psychophysics","137","359371","0.0-7.0-1.0-4.0-0.0-0.15","2","3","2","2","2","2","2","2","2","2","2","2","2","3","2","2","2","2","3","2","4","4","4","4","3","3","4","4","3","1","0","1","1","0","0","1","1","0","1","1","0","1","0","1","3","4","4","4","5","1","3","4","4","3","1","718768648436580352","张","423","","","","nonmatch","","","","","","","","","","","","","","key","f","16.683925531914785","960","536","f","true","nonmatch","img/pentagon.png","三角","五边","ALT1","formal_ALT1_2","","","","","","","","","","","",""
"null","<span style='color:GreenYellow; font-size: 70px;'>正确! </span>","null","html-keyboard-response","138","359873","0.0-7.0-1.0-4.0-0.0-1.15","2","3","2","2","2","2","2","2","2","2","2","2","2","3","2","2","2","2","3","2","4","4","4","4","3","3","4","4","3","1","0","1","1","0","0","1","1","0","1","1","0","1","0","1","3","4","4","4","5","1","3","4","4","3","1","718768648436580352","张","423","","","","","","","","","","","","","","","","","","","","","","","","","","","","","","feedback_test","","","","","","","","","","","",""
"690","","f","psychophysics","139","361572","0.0-7.0-1.0-4.0-0.0-0.16","2","3","2","2","2","2","2","2","2","2","2","2","2","3","2","2","2","2","3","2","4","4","4","4","3","3","4","4","3","1","0","1","1","0","0","1","1","0","1","1","0","1","0","1","3","4","4","4","5","1","3","4","4","3","1","718768648436580352","张","423","","","","nonmatch","","","","","","","","","","","","","","key","f","16.68337623762384","960","536","f","true","nonmatch","img/trapezoid.png","五边","梯形","ALT1","formal_ALT1_2","","","","","","","","","","","",""
"null","<span style='color:GreenYellow; font-size: 70px;'>正确! </span>","null","html-keyboard-response","140","362087","0.0-7.0-1.0-4.0-0.0-1.16","2","3","2","2","2","2","2","2","2","2","2","2","2","3","2","2","2","2","3","2","4","4","4","4","3","3","4","4","3","1","0","1","1","0","0","1","1","0","1","1","0","1","0","1","3","4","4","4","5","1","3","4","4","3","1","718768648436580352","张","423","","","","","","","","","","","","","","","","","","","","","","","","","","","","","","feedback_test","","","","","","","","","","","",""
"658","","f","psychophysics","141","363747","0.0-7.0-1.0-4.0-0.0-0.17","2","3","2","2","2","2","2","2","2","2","2","2","2","3","2","2","2","2","3","2","4","4","4","4","3","3","4","4","3","1","0","1","1","0","0","1","1","0","1","1","0","1","0","1","3","4","4","4","5","1","3","4","4","3","1","718768648436580352","张","423","","","","nonmatch","","","","","","","","","","","","","","key","f","16.55210204081662","960","536","f","true","nonmatch","img/pentagon.png","圆形","五边","ALT1","formal_ALT1_2","","","","","","","","","","","",""
"null","<span style='color:GreenYellow; font-size: 70px;'>正确! </span>","null","html-keyboard-response","142","364251","0.0-7.0-1.0-4.0-0.0-1.17","2","3","2","2","2","2","2","2","2","2","2","2","2","3","2","2","2","2","3","2","4","4","4","4","3","3","4","4","3","1","0","1","1","0","0","1","1","0","1","1","0","1","0","1","3","4","4","4","5","1","3","4","4","3","1","718768648436580352","张","423","","","","","","","","","","","","","","","","","","","","","","","","","","","","","","feedback_test","","","","","","","","","","","",""
"626","","f","psychophysics","143","365883","0.0-7.0-1.0-4.0-0.0-0.18","2","3","2","2","2","2","2","2","2","2","2","2","2","3","2","2","2","2","3","2","4","4","4","4","3","3","4","4","3","1","0","1","1","0","0","1","1","0","1","1","0","1","0","1","3","4","4","4","5","1","3","4","4","3","1","718768648436580352","张","423","","","","nonmatch","","","","","","","","","","","","","","key","f","16.683412371134295","960","536","f","true","nonmatch","img/circle.png","梯形","圆形","ALT1","formal_ALT1_2","","","","","","","","","","","",""
"null","<span style='color:GreenYellow; font-size: 70px;'>正确! </span>","null","html-keyboard-response","144","366387","0.0-7.0-1.0-4.0-0.0-1.18","2","3","2","2","2","2","2","2","2","2","2","2","2","3","2","2","2","2","3","2","4","4","4","4","3","3","4","4","3","1","0","1","1","0","0","1","1","0","1","1","0","1","0","1","3","4","4","4","5","1","3","4","4","3","1","718768648436580352","张","423","","","","","","","","","","","","","","","","","","","","","","","","","","","","","","feedback_test","","","","","","","","","","","",""
"586","","f","psychophysics","145","367979","0.0-7.0-1.0-4.0-0.0-0.19","2","3","2","2","2","2","2","2","2","2","2","2","2","3","2","2","2","2","3","2","4","4","4","4","3","3","4","4","3","1","0","1","1","0","0","1","1","0","1","1","0","1","0","1","3","4","4","4","5","1","3","4","4","3","1","718768648436580352","张","423","","","","nonmatch","","","","","","","","","","","","","","key","f","16.683610526315476","960","536","f","true","nonmatch","img/circle.png","三角","圆形","ALT1","formal_ALT1_2","","","","","","","","","","","",""
"null","<span style='color:GreenYellow; font-size: 70px;'>正确! </span>","null","html-keyboard-response","146","368493","0.0-7.0-1.0-4.0-0.0-1.19","2","3","2","2","2","2","2","2","2","2","2","2","2","3","2","2","2","2","3","2","4","4","4","4","3","3","4","4","3","1","0","1","1","0","0","1","1","0","1","1","0","1","0","1","3","4","4","4","5","1","3","4","4","3","1","718768648436580352","张","423","","","","","","","","","","","","","","","","","","","","","","","","","","","","","","feedback_test","","","","","","","","","","","",""
"772","","j","psychophysics","147","370268","0.0-7.0-1.0-4.0-0.0-0.20","2","3","2","2","2","2","2","2","2","2","2","2","2","3","2","2","2","2","3","2","4","4","4","4","3","3","4","4","3","1","0","1","1","0","0","1","1","0","1","1","0","1","0","1","3","4","4","4","5","1","3","4","4","3","1","718768648436580352","张","423","","","","match","","","","","","","","","","","","","","key","j","16.684490566037567","960","536","j","true","match","img/trapezoid.png","梯形","梯形","ALT1","formal_ALT1_2","","","","","","","","","","","",""
"null","<span style='color:GreenYellow; font-size: 70px;'>正确! </span>","null","html-keyboard-response","148","370783","0.0-7.0-1.0-4.0-0.0-1.20","2","3","2","2","2","2","2","2","2","2","2","2","2","3","2","2","2","2","3","2","4","4","4","4","3","3","4","4","3","1","0","1","1","0","0","1","1","0","1","1","0","1","0","1","3","4","4","4","5","1","3","4","4","3","1","718768648436580352","张","423","","","","","","","","","","","","","","","","","","","","","","","","","","","","","","feedback_test","","","","","","","","","","","",""
"679","","j","psychophysics","149","372476","0.0-7.0-1.0-4.0-0.0-0.21","2","3","2","2","2","2","2","2","2","2","2","2","2","3","2","2","2","2","3","2","4","4","4","4","3","3","4","4","3","1","0","1","1","0","0","1","1","0","1","1","0","1","0","1","3","4","4","4","5","1","3","4","4","3","1","718768648436580352","张","423","","","","match","","","","","","","","","","","","","","key","j","16.683549999999812","960","536","j","true","match","img/pentagon.png","五边","五边","ALT1","formal_ALT1_2","","","","","","","","","","","",""
"null","<span style='color:GreenYellow; font-size: 70px;'>正确! </span>","null","html-keyboard-response","150","372986","0.0-7.0-1.0-4.0-0.0-1.21","2","3","2","2","2","2","2","2","2","2","2","2","2","3","2","2","2","2","3","2","4","4","4","4","3","3","4","4","3","1","0","1","1","0","0","1","1","0","1","1","0","1","0","1","3","4","4","4","5","1","3","4","4","3","1","718768648436580352","张","423","","","","","","","","","","","","","","","","","","","","","","","","","","","","","","feedback_test","","","","","","","","","","","",""
"682","","j","psychophysics","151","374676","0.0-7.0-1.0-4.0-0.0-0.22","2","3","2","2","2","2","2","2","2","2","2","2","2","3","2","2","2","2","3","2","4","4","4","4","3","3","4","4","3","1","0","1","1","0","0","1","1","0","1","1","0","1","0","1","3","4","4","4","5","1","3","4","4","3","1","718768648436580352","张","423","","","","match","","","","","","","","","","","","","","key","j","16.68340999999957","960","536","j","true","match","img/trapezoid.png","梯形","梯形","ALT1","formal_ALT1_2","","","","","","","","","","","",""
"null","<span style='color:GreenYellow; font-size: 70px;'>正确! </span>","null","html-keyboard-response","152","375184","0.0-7.0-1.0-4.0-0.0-1.22","2","3","2","2","2","2","2","2","2","2","2","2","2","3","2","2","2","2","3","2","4","4","4","4","3","3","4","4","3","1","0","1","1","0","0","1","1","0","1","1","0","1","0","1","3","4","4","4","5","1","3","4","4","3","1","718768648436580352","张","423","","","","","","","","","","","","","","","","","","","","","","","","","","","","","","feedback_test","","","","","","","","","","","",""
"690","","j","psychophysics","153","376875","0.0-7.0-1.0-4.0-0.0-0.23","2","3","2","2","2","2","2","2","2","2","2","2","2","3","2","2","2","2","3","2","4","4","4","4","3","3","4","4","3","1","0","1","1","0","0","1","1","0","1","1","0","1","0","1","3","4","4","4","5","1","3","4","4","3","1","718768648436580352","张","423","","","","match","","","","","","","","","","","","","","key","j","16.683009999999776","960","536","j","true","match","img/triangle.png","三角","三角","ALT1","formal_ALT1_2","","","","","","","","","","","",""
"null","<span style='color:GreenYellow; font-size: 70px;'>正确! </span>","null","html-keyboard-response","154","377384","0.0-7.0-1.0-4.0-0.0-1.23","2","3","2","2","2","2","2","2","2","2","2","2","2","3","2","2","2","2","3","2","4","4","4","4","3","3","4","4","3","1","0","1","1","0","0","1","1","0","1","1","0","1","0","1","3","4","4","4","5","1","3","4","4","3","1","718768648436580352","张","423","","","","","","","","","","","","","","","","","","","","","","","","","","","","","","feedback_test","","","","","","","","","","","",""
"632","","f","psychophysics","155","379019","0.0-7.0-1.0-4.0-0.0-0.24","2","3","2","2","2","2","2","2","2","2","2","2","2","3","2","2","2","2","3","2","4","4","4","4","3","3","4","4","3","1","0","1","1","0","0","1","1","0","1","1","0","1","0","1","3","4","4","4","5","1","3","4","4","3","1","718768648436580352","张","423","","","","nonmatch","","","","","","","","","","","","","","key","f","16.684206185566584","960","536","f","true","nonmatch","img/triangle.png","梯形","三角","ALT1","formal_ALT1_2","","","","","","","","","","","",""
"null","<span style='color:GreenYellow; font-size: 70px;'>正确! </span>","null","html-keyboard-response","156","379524","0.0-7.0-1.0-4.0-0.0-1.24","2","3","2","2","2","2","2","2","2","2","2","2","2","3","2","2","2","2","3","2","4","4","4","4","3","3","4","4","3","1","0","1","1","0","0","1","1","0","1","1","0","1","0","1","3","4","4","4","5","1","3","4","4","3","1","718768648436580352","张","423","","","","","","","","","","","","","","","","","","","","","","","","","","","","","","feedback_test","","","","","","","","","","","",""
"624","","j","psychophysics","157","381163","0.0-7.0-1.0-4.0-0.0-0.25","2","3","2","2","2","2","2","2","2","2","2","2","2","3","2","2","2","2","3","2","4","4","4","4","3","3","4","4","3","1","0","1","1","0","0","1","1","0","1","1","0","1","0","1","3","4","4","4","5","1","3","4","4","3","1","718768648436580352","张","423","","","","match","","","","","","","","","","","","","","key","j","16.683278350515373","960","536","j","true","match","img/circle.png","圆形","圆形","ALT1","formal_ALT1_2","","","","","","","","","","","",""
"null","<span style='color:GreenYellow; font-size: 70px;'>正确! </span>","null","html-keyboard-response","158","381666","0.0-7.0-1.0-4.0-0.0-1.25","2","3","2","2","2","2","2","2","2","2","2","2","2","3","2","2","2","2","3","2","4","4","4","4","3","3","4","4","3","1","0","1","1","0","0","1","1","0","1","1","0","1","0","1","3","4","4","4","5","1","3","4","4","3","1","718768648436580352","张","423","","","","","","","","","","","","","","","","","","","","","","","","","","","","","","feedback_test","","","","","","","","","","","",""
"552","","j","psychophysics","159","383227","0.0-7.0-1.0-4.0-0.0-0.26","2","3","2","2","2","2","2","2","2","2","2","2","2","3","2","2","2","2","3","2","4","4","4","4","3","3","4","4","3","1","0","1","1","0","0","1","1","0","1","1","0","1","0","1","3","4","4","4","5","1","3","4","4","3","1","718768648436580352","张","423","","","","match","","","","","","","","","","","","","","key","j","16.68337634408606","960","536","j","true","match","img/trapezoid.png","梯形","梯形","ALT1","formal_ALT1_2","","","","","","","","","","","",""
"null","<span style='color:GreenYellow; font-size: 70px;'>正确! </span>","null","html-keyboard-response","160","383729","0.0-7.0-1.0-4.0-0.0-1.26","2","3","2","2","2","2","2","2","2","2","2","2","2","3","2","2","2","2","3","2","4","4","4","4","3","3","4","4","3","1","0","1","1","0","0","1","1","0","1","1","0","1","0","1","3","4","4","4","5","1","3","4","4","3","1","718768648436580352","张","423","","","","","","","","","","","","","","","","","","","","","","","","","","","","","","feedback_test","","","","","","","","","","","",""
"1031","","f","psychophysics","161","385771","0.0-7.0-1.0-4.0-0.0-0.27","2","3","2","2","2","2","2","2","2","2","2","2","2","3","2","2","2","2","3","2","4","4","4","4","3","3","4","4","3","1","0","1","1","0","0","1","1","0","1","1","0","1","0","1","3","4","4","4","5","1","3","4","4","3","1","718768648436580352","张","423","","","","nonmatch","","","","","","","","","","","","","","key","f","16.683074380165305","960","536","f","true","nonmatch","img/trapezoid.png","圆形","梯形","ALT1","formal_ALT1_2","","","","","","","","","","","",""
"null","<span style='color:GreenYellow; font-size: 70px;'>正确! </span>","null","html-keyboard-response","162","386274","0.0-7.0-1.0-4.0-0.0-1.27","2","3","2","2","2","2","2","2","2","2","2","2","2","3","2","2","2","2","3","2","4","4","4","4","3","3","4","4","3","1","0","1","1","0","0","1","1","0","1","1","0","1","0","1","3","4","4","4","5","1","3","4","4","3","1","718768648436580352","张","423","","","","","","","","","","","","","","","","","","","","","","","","","","","","","","feedback_test","","","","","","","","","","","",""
"676","","j","psychophysics","163","387956","0.0-7.0-1.0-4.0-0.0-0.28","2","3","2","2","2","2","2","2","2","2","2","2","2","3","2","2","2","2","3","2","4","4","4","4","3","3","4","4","3","1","0","1","1","0","0","1","1","0","1","1","0","1","0","1","3","4","4","4","5","1","3","4","4","3","1","718768648436580352","张","423","","","","match","","","","","","","","","","","","","","key","j","16.68392999999982","960","536","j","true","match","img/circle.png","圆形","圆形","ALT1","formal_ALT1_2","","","","","","","","","","","",""
"null","<span style='color:GreenYellow; font-size: 70px;'>正确! </span>","null","html-keyboard-response","164","388473","0.0-7.0-1.0-4.0-0.0-1.28","2","3","2","2","2","2","2","2","2","2","2","2","2","3","2","2","2","2","3","2","4","4","4","4","3","3","4","4","3","1","0","1","1","0","0","1","1","0","1","1","0","1","0","1","3","4","4","4","5","1","3","4","4","3","1","718768648436580352","张","423","","","","","","","","","","","","","","","","","","","","","","","","","","","","","","feedback_test","","","","","","","","","","","",""
"658","","f","psychophysics","165","390140","0.0-7.0-1.0-4.0-0.0-0.29","2","3","2","2","2","2","2","2","2","2","2","2","2","3","2","2","2","2","3","2","4","4","4","4","3","3","4","4","3","1","0","1","1","0","0","1","1","0","1","1","0","1","0","1","3","4","4","4","5","1","3","4","4","3","1","718768648436580352","张","423","","","","nonmatch","","","","","","","","","","","","","","key","f","16.683858585858488","960","536","f","true","nonmatch","img/circle.png","梯形","圆形","ALT1","formal_ALT1_2","","","","","","","","","","","",""
"null","<span style='color:GreenYellow; font-size: 70px;'>正确! </span>","null","html-keyboard-response","166","390649","0.0-7.0-1.0-4.0-0.0-1.29","2","3","2","2","2","2","2","2","2","2","2","2","2","3","2","2","2","2","3","2","4","4","4","4","3","3","4","4","3","1","0","1","1","0","0","1","1","0","1","1","0","1","0","1","3","4","4","4","5","1","3","4","4","3","1","718768648436580352","张","423","","","","","","","","","","","","","","","","","","","","","","","","","","","","","","feedback_test","","","","","","","","","","","",""
"593","","j","psychophysics","167","392243","0.0-7.0-1.0-4.0-0.0-0.30","2","3","2","2","2","2","2","2","2","2","2","2","2","3","2","2","2","2","3","2","4","4","4","4","3","3","4","4","3","1","0","1","1","0","0","1","1","0","1","1","0","1","0","1","3","4","4","4","5","1","3","4","4","3","1","718768648436580352","张","423","","","","match","","","","","","","","","","","","","","key","j","16.534702127659447","960","536","j","true","match","img/trapezoid.png","梯形","梯形","ALT1","formal_ALT1_2","","","","","","","","","","","",""
"null","<span style='color:GreenYellow; font-size: 70px;'>正确! </span>","null","html-keyboard-response","168","392756","0.0-7.0-1.0-4.0-0.0-1.30","2","3","2","2","2","2","2","2","2","2","2","2","2","3","2","2","2","2","3","2","4","4","4","4","3","3","4","4","3","1","0","1","1","0","0","1","1","0","1","1","0","1","0","1","3","4","4","4","5","1","3","4","4","3","1","718768648436580352","张","423","","","","","","","","","","","","","","","","","","","","","","","","","","","","","","feedback_test","","","","","","","","","","","",""
"671","","f","psychophysics","169","394435","0.0-7.0-1.0-4.0-0.0-0.31","2","3","2","2","2","2","2","2","2","2","2","2","2","3","2","2","2","2","3","2","4","4","4","4","3","3","4","4","3","1","0","1","1","0","0","1","1","0","1","1","0","1","0","1","3","4","4","4","5","1","3","4","4","3","1","718768648436580352","张","423","","","","nonmatch","","","","","","","","","","","","","","key","f","16.682828282828048","960","536","f","true","nonmatch","img/pentagon.png","三角","五边","ALT1","formal_ALT1_2","","","","","","","","","","","",""
"null","<span style='color:GreenYellow; font-size: 70px;'>正确! </span>","null","html-keyboard-response","170","394948","0.0-7.0-1.0-4.0-0.0-1.31","2","3","2","2","2","2","2","2","2","2","2","2","2","3","2","2","2","2","3","2","4","4","4","4","3","3","4","4","3","1","0","1","1","0","0","1","1","0","1","1","0","1","0","1","3","4","4","4","5","1","3","4","4","3","1","718768648436580352","张","423","","","","","","","","","","","","","","","","","","","","","","","","","","","","","","feedback_test","","","","","","","","","","","",""
"584","","f","psychophysics","171","396539","0.0-7.0-1.0-4.0-0.0-0.32","2","3","2","2","2","2","2","2","2","2","2","2","2","3","2","2","2","2","3","2","4","4","4","4","3","3","4","4","3","1","0","1","1","0","0","1","1","0","1","1","0","1","0","1","3","4","4","4","5","1","3","4","4","3","1","718768648436580352","张","423","","","","nonmatch","","","","","","","","","","","","","","key","f","16.683326315789753","960","536","f","true","nonmatch","img/pentagon.png","圆形","五边","ALT1","formal_ALT1_2","","","","","","","","","","","",""
"null","<span style='color:GreenYellow; font-size: 70px;'>正确! </span>","null","html-keyboard-response","172","397042","0.0-7.0-1.0-4.0-0.0-1.32","2","3","2","2","2","2","2","2","2","2","2","2","2","3","2","2","2","2","3","2","4","4","4","4","3","3","4","4","3","1","0","1","1","0","0","1","1","0","1","1","0","1","0","1","3","4","4","4","5","1","3","4","4","3","1","718768648436580352","张","423","","","","","","","","","","","","","","","","","","","","","","","","","","","","","","feedback_test","","","","","","","","","","","",""
"732","","j","psychophysics","173","398787","0.0-7.0-1.0-4.0-0.0-0.33","2","3","2","2","2","2","2","2","2","2","2","2","2","3","2","2","2","2","3","2","4","4","4","4","3","3","4","4","3","1","0","1","1","0","0","1","1","0","1","1","0","1","0","1","3","4","4","4","5","1","3","4","4","3","1","718768648436580352","张","423","","","","match","","","","","","","","","","","","","","key","j","16.684097087378635","960","536","j","true","match","img/pentagon.png","五边","五边","ALT1","formal_ALT1_2","","","","","","","","","","","",""
"null","<span style='color:GreenYellow; font-size: 70px;'>正确! </span>","null","html-keyboard-response","174","399289","0.0-7.0-1.0-4.0-0.0-1.33","2","3","2","2","2","2","2","2","2","2","2","2","2","3","2","2","2","2","3","2","4","4","4","4","3","3","4","4","3","1","0","1","1","0","0","1","1","0","1","1","0","1","0","1","3","4","4","4","5","1","3","4","4","3","1","718768648436580352","张","423","","","","","","","","","","","","","","","","","","","","","","","","","","","","","","feedback_test","","","","","","","","","","","",""
"591","","f","psychophysics","175","400883","0.0-7.0-1.0-4.0-0.0-0.34","2","3","2","2","2","2","2","2","2","2","2","2","2","3","2","2","2","2","3","2","4","4","4","4","3","3","4","4","3","1","0","1","1","0","0","1","1","0","1","1","0","1","0","1","3","4","4","4","5","1","3","4","4","3","1","718768648436580352","张","423","","","","nonmatch","","","","","","","","","","","","","","key","f","16.6834526315791","960","536","f","true","nonmatch","img/trapezoid.png","三角","梯形","ALT1","formal_ALT1_2","","","","","","","","","","","",""
"null","<span style='color:GreenYellow; font-size: 70px;'>正确! </span>","null","html-keyboard-response","176","401393","0.0-7.0-1.0-4.0-0.0-1.34","2","3","2","2","2","2","2","2","2","2","2","2","2","3","2","2","2","2","3","2","4","4","4","4","3","3","4","4","3","1","0","1","1","0","0","1","1","0","1","1","0","1","0","1","3","4","4","4","5","1","3","4","4","3","1","718768648436580352","张","423","","","","","","","","","","","","","","","","","","","","","","","","","","","","","","feedback_test","","","","","","","","","","","",""
"649","","f","psychophysics","177","403043","0.0-7.0-1.0-4.0-0.0-0.35","2","3","2","2","2","2","2","2","2","2","2","2","2","3","2","2","2","2","3","2","4","4","4","4","3","3","4","4","3","1","0","1","1","0","0","1","1","0","1","1","0","1","0","1","3","4","4","4","5","1","3","4","4","3","1","718768648436580352","张","423","","","","nonmatch","","","","","","","","","","","","","","key","f","16.551268041237094","960","536","f","true","nonmatch","img/triangle.png","五边","三角","ALT1","formal_ALT1_2","","","","","","","","","","","",""
"null","<span style='color:GreenYellow; font-size: 70px;'>正确! </span>","null","html-keyboard-response","178","403544","0.0-7.0-1.0-4.0-0.0-1.35","2","3","2","2","2","2","2","2","2","2","2","2","2","3","2","2","2","2","3","2","4","4","4","4","3","3","4","4","3","1","0","1","1","0","0","1","1","0","1","1","0","1","0","1","3","4","4","4","5","1","3","4","4","3","1","718768648436580352","张","423","","","","","","","","","","","","","","","","","","","","","","","","","","","","","","feedback_test","","","","","","","","","","","",""
"640","","f","psychophysics","179","405187","0.0-7.0-1.0-4.0-0.0-0.36","2","3","2","2","2","2","2","2","2","2","2","2","2","3","2","2","2","2","3","2","4","4","4","4","3","3","4","4","3","1","0","1","1","0","0","1","1","0","1","1","0","1","0","1","3","4","4","4","5","1","3","4","4","3","1","718768648436580352","张","423","","","","nonmatch","","","","","","","","","","","","","","key","f","16.54475257731974","960","536","f","true","nonmatch","img/pentagon.png","梯形","五边","ALT1","formal_ALT1_2","","","","","","","","","","","",""
"null","<span style='color:GreenYellow; font-size: 70px;'>正确! </span>","null","html-keyboard-response","180","405701","0.0-7.0-1.0-4.0-0.0-1.36","2","3","2","2","2","2","2","2","2","2","2","2","2","3","2","2","2","2","3","2","4","4","4","4","3","3","4","4","3","1","0","1","1","0","0","1","1","0","1","1","0","1","0","1","3","4","4","4","5","1","3","4","4","3","1","718768648436580352","张","423","","","","","","","","","","","","","","","","","","","","","","","","","","","","","","feedback_test","","","","","","","","","","","",""
"768","","f","psychophysics","181","407483","0.0-7.0-1.0-4.0-0.0-0.37","2","3","2","2","2","2","2","2","2","2","2","2","2","3","2","2","2","2","3","2","4","4","4","4","3","3","4","4","3","1","0","1","1","0","0","1","1","0","1","1","0","1","0","1","3","4","4","4","5","1","3","4","4","3","1","718768648436580352","张","423","","","","nonmatch","","","","","","","","","","","","","","key","f","16.683358490565915","960","536","f","true","nonmatch","img/circle.png","三角","圆形","ALT1","formal_ALT1_2","","","","","","","","","","","",""
