"rt","stimulus","response","trial_type","trial_index","time_elapsed","internal_node_id","ses_1","ses_2","ses_3","ses_4","ses_5","ses_6","ses_7","ses_8","ses_9","ses_10","coreself_1","coreself_2","coreself_3","coreself_4","coreself_5","coreself_6","coreself_7","coreself_8","coreself_9","coreself_10","SGPS_1","SGPS_2","SGPS_3","SGPS_4","SGPS_5","SGPS_6","SGPS_7","SGPS_8","SGPS_9","NPI1","NPI2","NPI3","NPI4","NPI5","NPI6","NPI7","NPI8","NPI9","NPI10","NPI11","NPI12","NPI13","NPI14","NPI15","hsns_1","hsns_2","hsns_3","hsns_4","hsns_5","trap1","hsns_6","hsns_7","hsns_8","hsns_9","hsns_10","subj_idx","friend_name","ParticipantID","value","success","user_agent","responses","item_order","radio_event_ids","radio_event_times","key_event_times","mouse_event_times","straightlining","zigzagging","honeypot","timeout","failed_images","failed_audio","failed_video","version_attrib","version_target","correct","IAT","screen_id","task_id","RT","condition","word","varname","summary","version_attrib2","version_target2","time_stamp","view_history","response_type","key_press","avg_frame_time","center_x","center_y","correct_response","identity","Image","question_order","correct_answer","trap1_item"
"8467","
   <p><div style = ""color: white;font-size:25px;"">您好，欢迎参加本次实验。</div> </p>
   <p><div style = ""color: white;font-size:25px;"">为充分保障您的权利，请确保您已经知晓并同意《参与实验同意书》以及《数据公开知情同意书》。</div></p>
   <p><div style = ""color: white;font-size:25px;"">如果您未见过上述内容，请咨询实验员。</div></p>
   <p><div style = ""color: white;font-size:25px;"">如果您选择继续实验，则表示您已经清楚两份知情同意书的内容并同意。</div></p>
   <p><div style = ""color: pink;font-size:30px;"">请确保您记得day0的实验编号，您将在本次实验输入该编号，若您忘记，请咨询实验员后作答。</div></p>
   <p><div style = ""color: lightblue;font-size:25px;"">请您尽可能认真地作答，我们将依据您在各问卷和按键任务中的作答质量发放报酬。</div></p>
   <p> <div style = ""color: green;font-size:25px;""><按空格键至下页></div> </p>
   "," ","html-keyboard-response","0","8472","0.0-0.0","3","3","3","3","3","3","3","3","3","3","4","4","1","4","2","4","3","2","3","1","5","5","5","5","5","5","4","5","5","1","0","1","0","1","1","1","1","1","1","1","1","0","0","1","2","4","5","5","5","5","4","5","5","4","5","789938022656385026","焦","484","","","","","","","","","","","","","","","","","","","","","","","","","","","","","","","","","","","","","","","","","",""
"","","","call-function","1","8476","0.0-1.0-0.0","3","3","3","3","3","3","3","3","3","3","4","4","1","4","2","4","3","2","3","1","5","5","5","5","5","5","4","5","5","1","0","1","0","1","1","1","1","1","1","1","1","0","0","1","2","4","5","5","5","5","4","5","5","4","5","789938022656385026","焦","484","","","","","","","","","","","","","","","","","","","","","","","","","","","","","","","","","","","","","","","","","",""
"15563","","{""friend_name"":""焦"",""ParticipantID"":""484""}","survey-html-form","2","24045","0.0-1.0-1.0","3","3","3","3","3","3","3","3","3","3","4","4","1","4","2","4","3","2","3","1","5","5","5","5","5","5","4","5","5","1","0","1","0","1","1","1","1","1","1","1","1","0","0","1","2","4","5","5","5","5","4","5","5","4","5","789938022656385026","焦","484","","","","","","","","","","","","","","","","","","","","","","","","","","","","","","","","","","","","","","","","","",""
"","","","fullscreen","3","64316","0.0-2.0","3","3","3","3","3","3","3","3","3","3","4","4","1","4","2","4","3","2","3","1","5","5","5","5","5","5","4","5","5","1","0","1","0","1","1","1","1","1","1","1","1","0","0","1","2","4","5","5","5","5","4","5","5","4","5","789938022656385026","焦","484","","true","{}","","","","","","","","","","","","","","","","","","","","","","","","","","","","","","","","","","","","","","",""
"91290.69999998808","","{""Q01"":""3"",""Q02"":""3"",""Q03"":""3"",""Q04"":""3"",""Q05"":""3"",""Q06"":""3"",""Q07"":""3"",""Q08"":""3"",""Q09"":""3"",""Q10"":""3""}","survey-template","4","155611","0.0-3.0","3","3","3","3","3","3","3","3","3","3","4","4","1","4","2","4","3","2","3","1","5","5","5","5","5","5","4","5","5","1","0","1","0","1","1","1","1","1","1","1","1","0","0","1","2","4","5","5","5","5","4","5","5","4","5","789938022656385026","焦","484","","","","{""Q01"":""3"",""Q02"":""3"",""Q03"":""3"",""Q04"":""3"",""Q05"":""3"",""Q06"":""3"",""Q07"":""3"",""Q08"":""3"",""Q09"":""3"",""Q10"":""3""}","[0,1,2,3,4,5,6,7,8,9]","[""Q01"",""Q02"",""Q03"",""Q03"",""Q04"",""Q05"",""Q06"",""Q03"",""Q04"",""Q06"",""Q07"",""Q08"",""Q10"",""Q09""]","[6903.899999991059,9782.09999999404,15262,24977.39999999106,28036.69999998808,40909.29999999702,45196.79999999702,50850,52657.19999998808,60558.79999999702,62125.39999999106,66945.19999998808,77853.79999999702,79009.29999999702]","[]","[6903.899999991059,9782.09999999404,15262,24977.39999999106,28036.69999998808,40909.29999999702,45196.79999999702,50850,52657.19999998808,60558.79999999702,62125.39999999106,66945.19999998808,77853.79999999702,79009.29999999702,90523.5,91289.39999999106]","0.5","0.5555555555555556","0","","","","","","","","","","","","","","","","","","","","","","","","","","","","","",""
"58650.10000000894","","{""Q01"":""4"",""Q02"":""4"",""Q03"":""1"",""Q04"":""4"",""Q05"":""2"",""Q06"":""4"",""Q07"":""3"",""Q08"":""2"",""Q09"":""3"",""Q10"":""1""}","survey-template","5","214267","0.0-4.0","3","3","3","3","3","3","3","3","3","3","4","4","1","4","2","4","3","2","3","1","5","5","5","5","5","5","4","5","5","1","0","1","0","1","1","1","1","1","1","1","1","0","0","1","2","4","5","5","5","5","4","5","5","4","5","789938022656385026","焦","484","","","","{""Q01"":""4"",""Q02"":""4"",""Q03"":""1"",""Q04"":""4"",""Q05"":""2"",""Q06"":""4"",""Q07"":""3"",""Q08"":""2"",""Q09"":""3"",""Q10"":""1""}","[0,1,2,3,4,5,6,7,8,9]","[""Q01"",""Q02"",""Q03"",""Q04"",""Q04"",""Q05"",""Q06"",""Q07"",""Q08"",""Q09"",""Q10""]","[6970.9000000059605,8779,14595.60000000894,19761,34806.40000000596,39680.90000000596,42402.20000000298,48782.5,51548.70000000298,54178,57230.5]","[]","[6970.9000000059605,8779,14595.60000000894,19761,34806.40000000596,38939,39680.90000000596,42402.20000000298,48782.5,51548.70000000298,54178,57230.5,58648.90000000596]","0.5","0.4444444444444444","0","","","","","","","","","","","","","","","","","","","","","","","","","","","","","",""
"","","","preload","6","214727","0.0-5.0","3","3","3","3","3","3","3","3","3","3","4","4","1","4","2","4","3","2","3","1","5","5","5","5","5","5","4","5","5","1","0","1","0","1","1","1","1","1","1","1","1","0","0","1","2","4","5","5","5","5","4","5","5","4","5","789938022656385026","焦","484","","true","","","","","","","","","","","false","[]","[]","[]","","","","","","","","","","","","","","","","","","","","","","","","","",""
"25167","
    <h3>词语分类任务</h3>
    <p>在接下来的任务中，你需要对一系列词语进行分类。</p>
    <p>请先熟悉这些词语，这有利于你完成接下来的任务。</p>
    <table align=""center"" border=1 cellpadding=3 cellspacing=0>
    <tr> <th>类别</th> <th>词语</th> </tr>
    <tr> <td>&emsp;积极&emsp;</td> <td>&emsp;能干、全能、全才、高效、精干、天才&emsp;</td> </tr>
    <tr> <td>&emsp;消极&emsp;</td> <td>&emsp;无能、低能、废物、拙笨、愚钝、蠢笨&emsp;</td> </tr>
    <tr> <td>&emsp;自我&emsp;</td> <td>&emsp;我、我的、自己、自己的、本人、本人的&emsp;</td> </tr>
    <tr> <td>&emsp;他人&emsp;</td> <td>&emsp;他、他的、别人、别人的、他人、他人的&emsp;</td> </tr>
    </table><br/>","0","html-button-response","7","239896","0.0-6.0-0.0-0.0","3","3","3","3","3","3","3","3","3","3","4","4","1","4","2","4","3","2","3","1","5","5","5","5","5","5","4","5","5","1","0","1","0","1","1","1","1","1","1","1","1","0","0","1","2","4","5","5","5","5","4","5","5","4","5","789938022656385026","焦","484","","","","","","","","","","","","","","","","","2","2","","","","","","","","","","","","","","","","","","","","","","","",""
"28655","
    <div class=""tag-bottom"">
    <p> —— 任务1：对“他人”词和“自我”词分类 ——<p/>
    不同词语会出现在屏幕中央，类别标签将始终显示在屏幕上方<p/>   
    <span style=""color:#FFD866""><b>请根据上方标签的提示，尽可能正确并且快速地做出按键反应</b></span><p/>
    当按键错误时屏幕中会出现<span style=""color:red""> X </span>，需要按另一个键纠正才能继续<br/><p/>
    请把双手食指分别放在键盘的“E”键和“I”键上<p/>
    按<空格键>开始
    </p></div>"," ","html-keyboard-response","8","268554","0.0-6.0-0.0-1.0","3","3","3","3","3","3","3","3","3","3","4","4","1","4","2","4","3","2","3","1","5","5","5","5","5","5","4","5","5","1","0","1","0","1","1","1","1","1","1","1","1","0","0","1","2","4","5","5","5","5","4","5","5","4","5","789938022656385026","焦","484","","","","","","","","","","","","","","","","","","","","","","","","","","","","","","","","","","","","","","","","","",""
"null","","null","html-keyboard-response","9","268814","0.0-6.0-0.0-2.0-0.0","3","3","3","3","3","3","3","3","3","3","4","4","1","4","2","4","3","2","3","1","5","5","5","5","5","5","4","5","5","1","0","1","0","1","1","1","1","1","1","1","1","0","0","1","2","4","5","5","5","5","4","5","5","4","5","789938022656385026","焦","484","","","","","","","","","","","","","","","","","","","","","","","","","","","","","","","","","","","","","","","","","",""
"3914","<p style=""color:rgb(150, 250, 100); font-size: 35px;"">自己</p>","i","categorize-html","10","272732","0.0-6.0-0.0-2.0-1.0","3","3","3","3","3","3","3","3","3","3","4","4","1","4","2","4","3","2","3","1","5","5","5","5","5","5","4","5","5","1","0","1","0","1","1","1","1","1","1","1","1","0","0","1","2","4","5","5","5","5","4","5","5","4","5","789938022656385026","焦","484","","","","","","","","","","","","","","","","","","","true","1","1","ability","3914","self","自己","","","","","","","","","","","","","","","","",""
"null","","null","html-keyboard-response","11","272989","0.0-6.0-0.0-2.0-0.1","3","3","3","3","3","3","3","3","3","3","4","4","1","4","2","4","3","2","3","1","5","5","5","5","5","5","4","5","5","1","0","1","0","1","1","1","1","1","1","1","1","0","0","1","2","4","5","5","5","5","4","5","5","4","5","789938022656385026","焦","484","","","","","","","","","","","","","","","","","","","","","","","","","","","","","","","","","","","","","","","","","",""
"1021","<p style=""color:rgb(150, 250, 100); font-size: 35px;"">他人的</p>","e","categorize-html","12","274013","0.0-6.0-0.0-2.0-1.1","3","3","3","3","3","3","3","3","3","3","4","4","1","4","2","4","3","2","3","1","5","5","5","5","5","5","4","5","5","1","0","1","0","1","1","1","1","1","1","1","1","0","0","1","2","4","5","5","5","5","4","5","5","4","5","789938022656385026","焦","484","","","","","","","","","","","","","","","","","","","true","1","1","ability","1021","other","他人的","","","","","","","","","","","","","","","","",""
"null","","null","html-keyboard-response","13","274269","0.0-6.0-0.0-2.0-0.2","3","3","3","3","3","3","3","3","3","3","4","4","1","4","2","4","3","2","3","1","5","5","5","5","5","5","4","5","5","1","0","1","0","1","1","1","1","1","1","1","1","0","0","1","2","4","5","5","5","5","4","5","5","4","5","789938022656385026","焦","484","","","","","","","","","","","","","","","","","","","","","","","","","","","","","","","","","","","","","","","","","",""
"915","<p style=""color:rgb(150, 250, 100); font-size: 35px;"">我的</p>","i","categorize-html","14","275187","0.0-6.0-0.0-2.0-1.2","3","3","3","3","3","3","3","3","3","3","4","4","1","4","2","4","3","2","3","1","5","5","5","5","5","5","4","5","5","1","0","1","0","1","1","1","1","1","1","1","1","0","0","1","2","4","5","5","5","5","4","5","5","4","5","789938022656385026","焦","484","","","","","","","","","","","","","","","","","","","true","1","1","ability","915","self","我的","","","","","","","","","","","","","","","","",""
"null","","null","html-keyboard-response","15","275445","0.0-6.0-0.0-2.0-0.3","3","3","3","3","3","3","3","3","3","3","4","4","1","4","2","4","3","2","3","1","5","5","5","5","5","5","4","5","5","1","0","1","0","1","1","1","1","1","1","1","1","0","0","1","2","4","5","5","5","5","4","5","5","4","5","789938022656385026","焦","484","","","","","","","","","","","","","","","","","","","","","","","","","","","","","","","","","","","","","","","","","",""
"1145","<p style=""color:rgb(150, 250, 100); font-size: 35px;"">本人</p>","i","categorize-html","16","276592","0.0-6.0-0.0-2.0-1.3","3","3","3","3","3","3","3","3","3","3","4","4","1","4","2","4","3","2","3","1","5","5","5","5","5","5","4","5","5","1","0","1","0","1","1","1","1","1","1","1","1","0","0","1","2","4","5","5","5","5","4","5","5","4","5","789938022656385026","焦","484","","","","","","","","","","","","","","","","","","","true","1","1","ability","1145","self","本人","","","","","","","","","","","","","","","","",""
"null","","null","html-keyboard-response","17","276846","0.0-6.0-0.0-2.0-0.4","3","3","3","3","3","3","3","3","3","3","4","4","1","4","2","4","3","2","3","1","5","5","5","5","5","5","4","5","5","1","0","1","0","1","1","1","1","1","1","1","1","0","0","1","2","4","5","5","5","5","4","5","5","4","5","789938022656385026","焦","484","","","","","","","","","","","","","","","","","","","","","","","","","","","","","","","","","","","","","","","","","",""
"1041","<p style=""color:rgb(150, 250, 100); font-size: 35px;"">他的</p>","e","categorize-html","18","277890","0.0-6.0-0.0-2.0-1.4","3","3","3","3","3","3","3","3","3","3","4","4","1","4","2","4","3","2","3","1","5","5","5","5","5","5","4","5","5","1","0","1","0","1","1","1","1","1","1","1","1","0","0","1","2","4","5","5","5","5","4","5","5","4","5","789938022656385026","焦","484","","","","","","","","","","","","","","","","","","","true","1","1","ability","1041","other","他的","","","","","","","","","","","","","","","","",""
"null","","null","html-keyboard-response","19","278149","0.0-6.0-0.0-2.0-0.5","3","3","3","3","3","3","3","3","3","3","4","4","1","4","2","4","3","2","3","1","5","5","5","5","5","5","4","5","5","1","0","1","0","1","1","1","1","1","1","1","1","0","0","1","2","4","5","5","5","5","4","5","5","4","5","789938022656385026","焦","484","","","","","","","","","","","","","","","","","","","","","","","","","","","","","","","","","","","","","","","","","",""
"823","<p style=""color:rgb(150, 250, 100); font-size: 35px;"">本人的</p>","i","categorize-html","20","278974","0.0-6.0-0.0-2.0-1.5","3","3","3","3","3","3","3","3","3","3","4","4","1","4","2","4","3","2","3","1","5","5","5","5","5","5","4","5","5","1","0","1","0","1","1","1","1","1","1","1","1","0","0","1","2","4","5","5","5","5","4","5","5","4","5","789938022656385026","焦","484","","","","","","","","","","","","","","","","","","","true","1","1","ability","823","self","本人的","","","","","","","","","","","","","","","","",""
"null","","null","html-keyboard-response","21","279230","0.0-6.0-0.0-2.0-0.6","3","3","3","3","3","3","3","3","3","3","4","4","1","4","2","4","3","2","3","1","5","5","5","5","5","5","4","5","5","1","0","1","0","1","1","1","1","1","1","1","1","0","0","1","2","4","5","5","5","5","4","5","5","4","5","789938022656385026","焦","484","","","","","","","","","","","","","","","","","","","","","","","","","","","","","","","","","","","","","","","","","",""
"1859","<p style=""color:rgb(150, 250, 100); font-size: 35px;"">别人的</p>","e","categorize-html","22","281091","0.0-6.0-0.0-2.0-1.6","3","3","3","3","3","3","3","3","3","3","4","4","1","4","2","4","3","2","3","1","5","5","5","5","5","5","4","5","5","1","0","1","0","1","1","1","1","1","1","1","1","0","0","1","2","4","5","5","5","5","4","5","5","4","5","789938022656385026","焦","484","","","","","","","","","","","","","","","","","","","true","1","1","ability","1859","other","别人的","","","","","","","","","","","","","","","","",""
"null","","null","html-keyboard-response","23","281349","0.0-6.0-0.0-2.0-0.7","3","3","3","3","3","3","3","3","3","3","4","4","1","4","2","4","3","2","3","1","5","5","5","5","5","5","4","5","5","1","0","1","0","1","1","1","1","1","1","1","1","0","0","1","2","4","5","5","5","5","4","5","5","4","5","789938022656385026","焦","484","","","","","","","","","","","","","","","","","","","","","","","","","","","","","","","","","","","","","","","","","",""
"905","<p style=""color:rgb(150, 250, 100); font-size: 35px;"">自己的</p>","i","categorize-html","24","282257","0.0-6.0-0.0-2.0-1.7","3","3","3","3","3","3","3","3","3","3","4","4","1","4","2","4","3","2","3","1","5","5","5","5","5","5","4","5","5","1","0","1","0","1","1","1","1","1","1","1","1","0","0","1","2","4","5","5","5","5","4","5","5","4","5","789938022656385026","焦","484","","","","","","","","","","","","","","","","","","","true","1","1","ability","905","self","自己的","","","","","","","","","","","","","","","","",""
"null","","null","html-keyboard-response","25","282510","0.0-6.0-0.0-2.0-0.8","3","3","3","3","3","3","3","3","3","3","4","4","1","4","2","4","3","2","3","1","5","5","5","5","5","5","4","5","5","1","0","1","0","1","1","1","1","1","1","1","1","0","0","1","2","4","5","5","5","5","4","5","5","4","5","789938022656385026","焦","484","","","","","","","","","","","","","","","","","","","","","","","","","","","","","","","","","","","","","","","","","",""
"1016","<p style=""color:rgb(150, 250, 100); font-size: 35px;"">他人</p>","e","categorize-html","26","283527","0.0-6.0-0.0-2.0-1.8","3","3","3","3","3","3","3","3","3","3","4","4","1","4","2","4","3","2","3","1","5","5","5","5","5","5","4","5","5","1","0","1","0","1","1","1","1","1","1","1","1","0","0","1","2","4","5","5","5","5","4","5","5","4","5","789938022656385026","焦","484","","","","","","","","","","","","","","","","","","","true","1","1","ability","1016","other","他人","","","","","","","","","","","","","","","","",""
"null","","null","html-keyboard-response","27","283781","0.0-6.0-0.0-2.0-0.9","3","3","3","3","3","3","3","3","3","3","4","4","1","4","2","4","3","2","3","1","5","5","5","5","5","5","4","5","5","1","0","1","0","1","1","1","1","1","1","1","1","0","0","1","2","4","5","5","5","5","4","5","5","4","5","789938022656385026","焦","484","","","","","","","","","","","","","","","","","","","","","","","","","","","","","","","","","","","","","","","","","",""
"1002","<p style=""color:rgb(150, 250, 100); font-size: 35px;"">别人</p>","e","categorize-html","28","284785","0.0-6.0-0.0-2.0-1.9","3","3","3","3","3","3","3","3","3","3","4","4","1","4","2","4","3","2","3","1","5","5","5","5","5","5","4","5","5","1","0","1","0","1","1","1","1","1","1","1","1","0","0","1","2","4","5","5","5","5","4","5","5","4","5","789938022656385026","焦","484","","","","","","","","","","","","","","","","","","","true","1","1","ability","1002","other","别人","","","","","","","","","","","","","","","","",""
"null","","null","html-keyboard-response","29","285037","0.0-6.0-0.0-2.0-0.10","3","3","3","3","3","3","3","3","3","3","4","4","1","4","2","4","3","2","3","1","5","5","5","5","5","5","4","5","5","1","0","1","0","1","1","1","1","1","1","1","1","0","0","1","2","4","5","5","5","5","4","5","5","4","5","789938022656385026","焦","484","","","","","","","","","","","","","","","","","","","","","","","","","","","","","","","","","","","","","","","","","",""
"1470","<p style=""color:rgb(150, 250, 100); font-size: 35px;"">他</p>","e","categorize-html","30","286510","0.0-6.0-0.0-2.0-1.10","3","3","3","3","3","3","3","3","3","3","4","4","1","4","2","4","3","2","3","1","5","5","5","5","5","5","4","5","5","1","0","1","0","1","1","1","1","1","1","1","1","0","0","1","2","4","5","5","5","5","4","5","5","4","5","789938022656385026","焦","484","","","","","","","","","","","","","","","","","","","true","1","1","ability","1470","other","他","","","","","","","","","","","","","","","","",""
"null","","null","html-keyboard-response","31","286766","0.0-6.0-0.0-2.0-0.11","3","3","3","3","3","3","3","3","3","3","4","4","1","4","2","4","3","2","3","1","5","5","5","5","5","5","4","5","5","1","0","1","0","1","1","1","1","1","1","1","1","0","0","1","2","4","5","5","5","5","4","5","5","4","5","789938022656385026","焦","484","","","","","","","","","","","","","","","","","","","","","","","","","","","","","","","","","","","","","","","","","",""
"950","<p style=""color:rgb(150, 250, 100); font-size: 35px;"">我</p>","i","categorize-html","32","287718","0.0-6.0-0.0-2.0-1.11","3","3","3","3","3","3","3","3","3","3","4","4","1","4","2","4","3","2","3","1","5","5","5","5","5","5","4","5","5","1","0","1","0","1","1","1","1","1","1","1","1","0","0","1","2","4","5","5","5","5","4","5","5","4","5","789938022656385026","焦","484","","","","","","","","","","","","","","","","","","","true","1","1","ability","950","self","我","","","","","","","","","","","","","","","","",""
"8524","
    <div class=""tag-bottom""><p>
    —— 任务2：对“消极”词和“积极”词分类 ——<p/>   
    <span style=""color:#78DCE8""><b>注意上方，类别标签和需要分类的词语都已经改变</b></span><p/>
    <span style=""color:#FFD866""><b>请根据上方标签的提示，尽可能正确并且快速地做出按键反应</b></span><p/>
    当按键错误时屏幕中会出现<span style=""color:red""> X </span>，需要按另一个键纠正才能继续<br/><p/>
    请把双手食指分别放在键盘的“E”键和“I”键上<p/>
    按<空格键>开始
    </p></div>"," ","html-keyboard-response","33","296243","0.0-6.0-0.0-3.0","3","3","3","3","3","3","3","3","3","3","4","4","1","4","2","4","3","2","3","1","5","5","5","5","5","5","4","5","5","1","0","1","0","1","1","1","1","1","1","1","1","0","0","1","2","4","5","5","5","5","4","5","5","4","5","789938022656385026","焦","484","","","","","","","","","","","","","","","","","","","","","","","","","","","","","","","","","","","","","","","","","",""
"null","","null","html-keyboard-response","34","296501","0.0-6.0-0.0-4.0-0.0","3","3","3","3","3","3","3","3","3","3","4","4","1","4","2","4","3","2","3","1","5","5","5","5","5","5","4","5","5","1","0","1","0","1","1","1","1","1","1","1","1","0","0","1","2","4","5","5","5","5","4","5","5","4","5","789938022656385026","焦","484","","","","","","","","","","","","","","","","","","","","","","","","","","","","","","","","","","","","","","","","","",""
"1628","<p style=""color:white; font-size: 35px;"">全才</p>","i","categorize-html","35","298132","0.0-6.0-0.0-4.0-1.0","3","3","3","3","3","3","3","3","3","3","4","4","1","4","2","4","3","2","3","1","5","5","5","5","5","5","4","5","5","1","0","1","0","1","1","1","1","1","1","1","1","0","0","1","2","4","5","5","5","5","4","5","5","4","5","789938022656385026","焦","484","","","","","","","","","","","","","","","","","","","true","2","2","ability","1628","positive","全才","","","","","","","","","","","","","","","","",""
"null","","null","html-keyboard-response","36","298390","0.0-6.0-0.0-4.0-0.1","3","3","3","3","3","3","3","3","3","3","4","4","1","4","2","4","3","2","3","1","5","5","5","5","5","5","4","5","5","1","0","1","0","1","1","1","1","1","1","1","1","0","0","1","2","4","5","5","5","5","4","5","5","4","5","789938022656385026","焦","484","","","","","","","","","","","","","","","","","","","","","","","","","","","","","","","","","","","","","","","","","",""
"1619","<p style=""color:white; font-size: 35px;"">拙笨</p>","e","categorize-html","37","300012","0.0-6.0-0.0-4.0-1.1","3","3","3","3","3","3","3","3","3","3","4","4","1","4","2","4","3","2","3","1","5","5","5","5","5","5","4","5","5","1","0","1","0","1","1","1","1","1","1","1","1","0","0","1","2","4","5","5","5","5","4","5","5","4","5","789938022656385026","焦","484","","","","","","","","","","","","","","","","","","","true","2","2","ability","1619","negative","拙笨","","","","","","","","","","","","","","","","",""
"null","","null","html-keyboard-response","38","300270","0.0-6.0-0.0-4.0-0.2","3","3","3","3","3","3","3","3","3","3","4","4","1","4","2","4","3","2","3","1","5","5","5","5","5","5","4","5","5","1","0","1","0","1","1","1","1","1","1","1","1","0","0","1","2","4","5","5","5","5","4","5","5","4","5","789938022656385026","焦","484","","","","","","","","","","","","","","","","","","","","","","","","","","","","","","","","","","","","","","","","","",""
"1835","<p style=""color:white; font-size: 35px;"">低能</p>","e","categorize-html","39","302106","0.0-6.0-0.0-4.0-1.2","3","3","3","3","3","3","3","3","3","3","4","4","1","4","2","4","3","2","3","1","5","5","5","5","5","5","4","5","5","1","0","1","0","1","1","1","1","1","1","1","1","0","0","1","2","4","5","5","5","5","4","5","5","4","5","789938022656385026","焦","484","","","","","","","","","","","","","","","","","","","true","2","2","ability","1835","negative","低能","","","","","","","","","","","","","","","","",""
"null","","null","html-keyboard-response","40","302366","0.0-6.0-0.0-4.0-0.3","3","3","3","3","3","3","3","3","3","3","4","4","1","4","2","4","3","2","3","1","5","5","5","5","5","5","4","5","5","1","0","1","0","1","1","1","1","1","1","1","1","0","0","1","2","4","5","5","5","5","4","5","5","4","5","789938022656385026","焦","484","","","","","","","","","","","","","","","","","","","","","","","","","","","","","","","","","","","","","","","","","",""
"1443","<p style=""color:white; font-size: 35px;"">天才</p>","i","categorize-html","41","303812","0.0-6.0-0.0-4.0-1.3","3","3","3","3","3","3","3","3","3","3","4","4","1","4","2","4","3","2","3","1","5","5","5","5","5","5","4","5","5","1","0","1","0","1","1","1","1","1","1","1","1","0","0","1","2","4","5","5","5","5","4","5","5","4","5","789938022656385026","焦","484","","","","","","","","","","","","","","","","","","","true","2","2","ability","1443","positive","天才","","","","","","","","","","","","","","","","",""
"null","","null","html-keyboard-response","42","304069","0.0-6.0-0.0-4.0-0.4","3","3","3","3","3","3","3","3","3","3","4","4","1","4","2","4","3","2","3","1","5","5","5","5","5","5","4","5","5","1","0","1","0","1","1","1","1","1","1","1","1","0","0","1","2","4","5","5","5","5","4","5","5","4","5","789938022656385026","焦","484","","","","","","","","","","","","","","","","","","","","","","","","","","","","","","","","","","","","","","","","","",""
"1625","<p style=""color:white; font-size: 35px;"">精干</p>","i","categorize-html","43","305696","0.0-6.0-0.0-4.0-1.4","3","3","3","3","3","3","3","3","3","3","4","4","1","4","2","4","3","2","3","1","5","5","5","5","5","5","4","5","5","1","0","1","0","1","1","1","1","1","1","1","1","0","0","1","2","4","5","5","5","5","4","5","5","4","5","789938022656385026","焦","484","","","","","","","","","","","","","","","","","","","true","2","2","ability","1625","positive","精干","","","","","","","","","","","","","","","","",""
"null","","null","html-keyboard-response","44","305950","0.0-6.0-0.0-4.0-0.5","3","3","3","3","3","3","3","3","3","3","4","4","1","4","2","4","3","2","3","1","5","5","5","5","5","5","4","5","5","1","0","1","0","1","1","1","1","1","1","1","1","0","0","1","2","4","5","5","5","5","4","5","5","4","5","789938022656385026","焦","484","","","","","","","","","","","","","","","","","","","","","","","","","","","","","","","","","","","","","","","","","",""
"1558","<p style=""color:white; font-size: 35px;"">蠢笨</p>","e","categorize-html","45","307510","0.0-6.0-0.0-4.0-1.5","3","3","3","3","3","3","3","3","3","3","4","4","1","4","2","4","3","2","3","1","5","5","5","5","5","5","4","5","5","1","0","1","0","1","1","1","1","1","1","1","1","0","0","1","2","4","5","5","5","5","4","5","5","4","5","789938022656385026","焦","484","","","","","","","","","","","","","","","","","","","true","2","2","ability","1558","negative","蠢笨","","","","","","","","","","","","","","","","",""
"null","","null","html-keyboard-response","46","307766","0.0-6.0-0.0-4.0-0.6","3","3","3","3","3","3","3","3","3","3","4","4","1","4","2","4","3","2","3","1","5","5","5","5","5","5","4","5","5","1","0","1","0","1","1","1","1","1","1","1","1","0","0","1","2","4","5","5","5","5","4","5","5","4","5","789938022656385026","焦","484","","","","","","","","","","","","","","","","","","","","","","","","","","","","","","","","","","","","","","","","","",""
"1514","<p style=""color:white; font-size: 35px;"">无能</p>","e","categorize-html","47","309282","0.0-6.0-0.0-4.0-1.6","3","3","3","3","3","3","3","3","3","3","4","4","1","4","2","4","3","2","3","1","5","5","5","5","5","5","4","5","5","1","0","1","0","1","1","1","1","1","1","1","1","0","0","1","2","4","5","5","5","5","4","5","5","4","5","789938022656385026","焦","484","","","","","","","","","","","","","","","","","","","true","2","2","ability","1514","negative","无能","","","","","","","","","","","","","","","","",""
"null","","null","html-keyboard-response","48","309541","0.0-6.0-0.0-4.0-0.7","3","3","3","3","3","3","3","3","3","3","4","4","1","4","2","4","3","2","3","1","5","5","5","5","5","5","4","5","5","1","0","1","0","1","1","1","1","1","1","1","1","0","0","1","2","4","5","5","5","5","4","5","5","4","5","789938022656385026","焦","484","","","","","","","","","","","","","","","","","","","","","","","","","","","","","","","","","","","","","","","","","",""
"1296","<p style=""color:white; font-size: 35px;"">能干</p>","i","categorize-html","49","310840","0.0-6.0-0.0-4.0-1.7","3","3","3","3","3","3","3","3","3","3","4","4","1","4","2","4","3","2","3","1","5","5","5","5","5","5","4","5","5","1","0","1","0","1","1","1","1","1","1","1","1","0","0","1","2","4","5","5","5","5","4","5","5","4","5","789938022656385026","焦","484","","","","","","","","","","","","","","","","","","","true","2","2","ability","1296","positive","能干","","","","","","","","","","","","","","","","",""
"null","","null","html-keyboard-response","50","311094","0.0-6.0-0.0-4.0-0.8","3","3","3","3","3","3","3","3","3","3","4","4","1","4","2","4","3","2","3","1","5","5","5","5","5","5","4","5","5","1","0","1","0","1","1","1","1","1","1","1","1","0","0","1","2","4","5","5","5","5","4","5","5","4","5","789938022656385026","焦","484","","","","","","","","","","","","","","","","","","","","","","","","","","","","","","","","","","","","","","","","","",""
"1087","<p style=""color:white; font-size: 35px;"">高效</p>","i","categorize-html","51","312183","0.0-6.0-0.0-4.0-1.8","3","3","3","3","3","3","3","3","3","3","4","4","1","4","2","4","3","2","3","1","5","5","5","5","5","5","4","5","5","1","0","1","0","1","1","1","1","1","1","1","1","0","0","1","2","4","5","5","5","5","4","5","5","4","5","789938022656385026","焦","484","","","","","","","","","","","","","","","","","","","true","2","2","ability","1087","positive","高效","","","","","","","","","","","","","","","","",""
"null","","null","html-keyboard-response","52","312437","0.0-6.0-0.0-4.0-0.9","3","3","3","3","3","3","3","3","3","3","4","4","1","4","2","4","3","2","3","1","5","5","5","5","5","5","4","5","5","1","0","1","0","1","1","1","1","1","1","1","1","0","0","1","2","4","5","5","5","5","4","5","5","4","5","789938022656385026","焦","484","","","","","","","","","","","","","","","","","","","","","","","","","","","","","","","","","","","","","","","","","",""
"735","<p style=""color:white; font-size: 35px;"">全能</p>","i","categorize-html","53","313174","0.0-6.0-0.0-4.0-1.9","3","3","3","3","3","3","3","3","3","3","4","4","1","4","2","4","3","2","3","1","5","5","5","5","5","5","4","5","5","1","0","1","0","1","1","1","1","1","1","1","1","0","0","1","2","4","5","5","5","5","4","5","5","4","5","789938022656385026","焦","484","","","","","","","","","","","","","","","","","","","true","2","2","ability","735","positive","全能","","","","","","","","","","","","","","","","",""
"null","","null","html-keyboard-response","54","313429","0.0-6.0-0.0-4.0-0.10","3","3","3","3","3","3","3","3","3","3","4","4","1","4","2","4","3","2","3","1","5","5","5","5","5","5","4","5","5","1","0","1","0","1","1","1","1","1","1","1","1","0","0","1","2","4","5","5","5","5","4","5","5","4","5","789938022656385026","焦","484","","","","","","","","","","","","","","","","","","","","","","","","","","","","","","","","","","","","","","","","","",""
"1105","<p style=""color:white; font-size: 35px;"">愚钝</p>","e","categorize-html","55","314537","0.0-6.0-0.0-4.0-1.10","3","3","3","3","3","3","3","3","3","3","4","4","1","4","2","4","3","2","3","1","5","5","5","5","5","5","4","5","5","1","0","1","0","1","1","1","1","1","1","1","1","0","0","1","2","4","5","5","5","5","4","5","5","4","5","789938022656385026","焦","484","","","","","","","","","","","","","","","","","","","true","2","2","ability","1105","negative","愚钝","","","","","","","","","","","","","","","","",""
"null","","null","html-keyboard-response","56","314790","0.0-6.0-0.0-4.0-0.11","3","3","3","3","3","3","3","3","3","3","4","4","1","4","2","4","3","2","3","1","5","5","5","5","5","5","4","5","5","1","0","1","0","1","1","1","1","1","1","1","1","0","0","1","2","4","5","5","5","5","4","5","5","4","5","789938022656385026","焦","484","","","","","","","","","","","","","","","","","","","","","","","","","","","","","","","","","","","","","","","","","",""
"1304","<p style=""color:white; font-size: 35px;"">废物</p>","e","categorize-html","57","316096","0.0-6.0-0.0-4.0-1.11","3","3","3","3","3","3","3","3","3","3","4","4","1","4","2","4","3","2","3","1","5","5","5","5","5","5","4","5","5","1","0","1","0","1","1","1","1","1","1","1","1","0","0","1","2","4","5","5","5","5","4","5","5","4","5","789938022656385026","焦","484","","","","","","","","","","","","","","","","","","","true","2","2","ability","1304","negative","废物","","","","","","","","","","","","","","","","",""
"12708","
    <div class=""tag-bottom""><p>
    —— 任务3：对“他人/消极”词和“自我/积极”词分类 ——<p/>
    <span style=""color:#78DCE8""><b>注意上方，之前的四类词语将混合在一起交替呈现</b></span><p/>
    <span style=""color:#FFD866""><b>请根据上方标签的提示，尽可能正确并且快速地做出按键反应</b></span><p/>
    当按键错误时屏幕中会出现<span style=""color:red""> X </span>，需要按另一个键纠正才能继续<br/><p/>
    请把双手食指分别放在键盘的“E”键和“I”键上<p/>
    按<空格键>开始
    </p></div>"," ","html-keyboard-response","58","328805","0.0-6.0-0.0-5.0","3","3","3","3","3","3","3","3","3","3","4","4","1","4","2","4","3","2","3","1","5","5","5","5","5","5","4","5","5","1","0","1","0","1","1","1","1","1","1","1","1","0","0","1","2","4","5","5","5","5","4","5","5","4","5","789938022656385026","焦","484","","","","","","","","","","","","","","","","","","","","","","","","","","","","","","","","","","","","","","","","","",""
"null","","null","html-keyboard-response","59","329061","0.0-6.0-0.0-6.0-0.0","3","3","3","3","3","3","3","3","3","3","4","4","1","4","2","4","3","2","3","1","5","5","5","5","5","5","4","5","5","1","0","1","0","1","1","1","1","1","1","1","1","0","0","1","2","4","5","5","5","5","4","5","5","4","5","789938022656385026","焦","484","","","","","","","","","","","","","","","","","","","","","","","","","","","","","","","","","","","","","","","","","",""
"1374","<p style=""color:rgb(150, 250, 100); font-size: 35px;"">本人</p>","i","categorize-html","60","330438","0.0-6.0-0.0-6.0-1.0","3","3","3","3","3","3","3","3","3","3","4","4","1","4","2","4","3","2","3","1","5","5","5","5","5","5","4","5","5","1","0","1","0","1","1","1","1","1","1","1","1","0","0","1","2","4","5","5","5","5","4","5","5","4","5","789938022656385026","焦","484","","","","","","","","","","","","","","","","","","","true","3","3","ability","1374","self","本人","","","","","","","","","","","","","","","","",""
"null","","null","html-keyboard-response","61","330693","0.0-6.0-0.0-6.0-0.1","3","3","3","3","3","3","3","3","3","3","4","4","1","4","2","4","3","2","3","1","5","5","5","5","5","5","4","5","5","1","0","1","0","1","1","1","1","1","1","1","1","0","0","1","2","4","5","5","5","5","4","5","5","4","5","789938022656385026","焦","484","","","","","","","","","","","","","","","","","","","","","","","","","","","","","","","","","","","","","","","","","",""
"1270","<p style=""color:white; font-size: 35px;"">蠢笨</p>","e","categorize-html","62","331966","0.0-6.0-0.0-6.0-1.1","3","3","3","3","3","3","3","3","3","3","4","4","1","4","2","4","3","2","3","1","5","5","5","5","5","5","4","5","5","1","0","1","0","1","1","1","1","1","1","1","1","0","0","1","2","4","5","5","5","5","4","5","5","4","5","789938022656385026","焦","484","","","","","","","","","","","","","","","","","","","true","3","3","ability","1270","negative","蠢笨","","","","","","","","","","","","","","","","",""
"null","","null","html-keyboard-response","63","332221","0.0-6.0-0.0-6.0-0.2","3","3","3","3","3","3","3","3","3","3","4","4","1","4","2","4","3","2","3","1","5","5","5","5","5","5","4","5","5","1","0","1","0","1","1","1","1","1","1","1","1","0","0","1","2","4","5","5","5","5","4","5","5","4","5","789938022656385026","焦","484","","","","","","","","","","","","","","","","","","","","","","","","","","","","","","","","","","","","","","","","","",""
"1351","<p style=""color:rgb(150, 250, 100); font-size: 35px;"">他</p>","e","categorize-html","64","333575","0.0-6.0-0.0-6.0-1.2","3","3","3","3","3","3","3","3","3","3","4","4","1","4","2","4","3","2","3","1","5","5","5","5","5","5","4","5","5","1","0","1","0","1","1","1","1","1","1","1","1","0","0","1","2","4","5","5","5","5","4","5","5","4","5","789938022656385026","焦","484","","","","","","","","","","","","","","","","","","","true","3","3","ability","1351","other","他","","","","","","","","","","","","","","","","",""
"null","","null","html-keyboard-response","65","333829","0.0-6.0-0.0-6.0-0.3","3","3","3","3","3","3","3","3","3","3","4","4","1","4","2","4","3","2","3","1","5","5","5","5","5","5","4","5","5","1","0","1","0","1","1","1","1","1","1","1","1","0","0","1","2","4","5","5","5","5","4","5","5","4","5","789938022656385026","焦","484","","","","","","","","","","","","","","","","","","","","","","","","","","","","","","","","","","","","","","","","","",""
"912","<p style=""color:white; font-size: 35px;"">天才</p>","i","categorize-html","66","334744","0.0-6.0-0.0-6.0-1.3","3","3","3","3","3","3","3","3","3","3","4","4","1","4","2","4","3","2","3","1","5","5","5","5","5","5","4","5","5","1","0","1","0","1","1","1","1","1","1","1","1","0","0","1","2","4","5","5","5","5","4","5","5","4","5","789938022656385026","焦","484","","","","","","","","","","","","","","","","","","","true","3","3","ability","912","positive","天才","","","","","","","","","","","","","","","","",""
"null","","null","html-keyboard-response","67","334998","0.0-6.0-0.0-6.0-0.4","3","3","3","3","3","3","3","3","3","3","4","4","1","4","2","4","3","2","3","1","5","5","5","5","5","5","4","5","5","1","0","1","0","1","1","1","1","1","1","1","1","0","0","1","2","4","5","5","5","5","4","5","5","4","5","789938022656385026","焦","484","","","","","","","","","","","","","","","","","","","","","","","","","","","","","","","","","","","","","","","","","",""
"1491","<p style=""color:rgb(150, 250, 100); font-size: 35px;"">他人</p>","e","categorize-html","68","336492","0.0-6.0-0.0-6.0-1.4","3","3","3","3","3","3","3","3","3","3","4","4","1","4","2","4","3","2","3","1","5","5","5","5","5","5","4","5","5","1","0","1","0","1","1","1","1","1","1","1","1","0","0","1","2","4","5","5","5","5","4","5","5","4","5","789938022656385026","焦","484","","","","","","","","","","","","","","","","","","","true","3","3","ability","1491","other","他人","","","","","","","","","","","","","","","","",""
"null","","null","html-keyboard-response","69","336750","0.0-6.0-0.0-6.0-0.5","3","3","3","3","3","3","3","3","3","3","4","4","1","4","2","4","3","2","3","1","5","5","5","5","5","5","4","5","5","1","0","1","0","1","1","1","1","1","1","1","1","0","0","1","2","4","5","5","5","5","4","5","5","4","5","789938022656385026","焦","484","","","","","","","","","","","","","","","","","","","","","","","","","","","","","","","","","","","","","","","","","",""
"833","<p style=""color:white; font-size: 35px;"">全能</p>","i","categorize-html","70","337586","0.0-6.0-0.0-6.0-1.5","3","3","3","3","3","3","3","3","3","3","4","4","1","4","2","4","3","2","3","1","5","5","5","5","5","5","4","5","5","1","0","1","0","1","1","1","1","1","1","1","1","0","0","1","2","4","5","5","5","5","4","5","5","4","5","789938022656385026","焦","484","","","","","","","","","","","","","","","","","","","true","3","3","ability","833","positive","全能","","","","","","","","","","","","","","","","",""
"null","","null","html-keyboard-response","71","337838","0.0-6.0-0.0-6.0-0.6","3","3","3","3","3","3","3","3","3","3","4","4","1","4","2","4","3","2","3","1","5","5","5","5","5","5","4","5","5","1","0","1","0","1","1","1","1","1","1","1","1","0","0","1","2","4","5","5","5","5","4","5","5","4","5","789938022656385026","焦","484","","","","","","","","","","","","","","","","","","","","","","","","","","","","","","","","","","","","","","","","","",""
"917","<p style=""color:rgb(150, 250, 100); font-size: 35px;"">自己</p>","i","categorize-html","72","338757","0.0-6.0-0.0-6.0-1.6","3","3","3","3","3","3","3","3","3","3","4","4","1","4","2","4","3","2","3","1","5","5","5","5","5","5","4","5","5","1","0","1","0","1","1","1","1","1","1","1","1","0","0","1","2","4","5","5","5","5","4","5","5","4","5","789938022656385026","焦","484","","","","","","","","","","","","","","","","","","","true","3","3","ability","917","self","自己","","","","","","","","","","","","","","","","",""
"null","","null","html-keyboard-response","73","339014","0.0-6.0-0.0-6.0-0.7","3","3","3","3","3","3","3","3","3","3","4","4","1","4","2","4","3","2","3","1","5","5","5","5","5","5","4","5","5","1","0","1","0","1","1","1","1","1","1","1","1","0","0","1","2","4","5","5","5","5","4","5","5","4","5","789938022656385026","焦","484","","","","","","","","","","","","","","","","","","","","","","","","","","","","","","","","","","","","","","","","","",""
"785","<p style=""color:white; font-size: 35px;"">低能</p>","e","categorize-html","74","339802","0.0-6.0-0.0-6.0-1.7","3","3","3","3","3","3","3","3","3","3","4","4","1","4","2","4","3","2","3","1","5","5","5","5","5","5","4","5","5","1","0","1","0","1","1","1","1","1","1","1","1","0","0","1","2","4","5","5","5","5","4","5","5","4","5","789938022656385026","焦","484","","","","","","","","","","","","","","","","","","","true","3","3","ability","785","negative","低能","","","","","","","","","","","","","","","","",""
"null","","null","html-keyboard-response","75","340053","0.0-6.0-0.0-6.0-0.8","3","3","3","3","3","3","3","3","3","3","4","4","1","4","2","4","3","2","3","1","5","5","5","5","5","5","4","5","5","1","0","1","0","1","1","1","1","1","1","1","1","0","0","1","2","4","5","5","5","5","4","5","5","4","5","789938022656385026","焦","484","","","","","","","","","","","","","","","","","","","","","","","","","","","","","","","","","","","","","","","","","",""
"972","<p style=""color:rgb(150, 250, 100); font-size: 35px;"">我</p>","i","categorize-html","76","341027","0.0-6.0-0.0-6.0-1.8","3","3","3","3","3","3","3","3","3","3","4","4","1","4","2","4","3","2","3","1","5","5","5","5","5","5","4","5","5","1","0","1","0","1","1","1","1","1","1","1","1","0","0","1","2","4","5","5","5","5","4","5","5","4","5","789938022656385026","焦","484","","","","","","","","","","","","","","","","","","","true","3","3","ability","972","self","我","","","","","","","","","","","","","","","","",""
"null","","null","html-keyboard-response","77","341285","0.0-6.0-0.0-6.0-0.9","3","3","3","3","3","3","3","3","3","3","4","4","1","4","2","4","3","2","3","1","5","5","5","5","5","5","4","5","5","1","0","1","0","1","1","1","1","1","1","1","1","0","0","1","2","4","5","5","5","5","4","5","5","4","5","789938022656385026","焦","484","","","","","","","","","","","","","","","","","","","","","","","","","","","","","","","","","","","","","","","","","",""
"973","<p style=""color:white; font-size: 35px;"">无能</p>","e","categorize-html","78","342260","0.0-6.0-0.0-6.0-1.9","3","3","3","3","3","3","3","3","3","3","4","4","1","4","2","4","3","2","3","1","5","5","5","5","5","5","4","5","5","1","0","1","0","1","1","1","1","1","1","1","1","0","0","1","2","4","5","5","5","5","4","5","5","4","5","789938022656385026","焦","484","","","","","","","","","","","","","","","","","","","true","3","3","ability","973","negative","无能","","","","","","","","","","","","","","","","",""
"null","","null","html-keyboard-response","79","342517","0.0-6.0-0.0-6.0-0.10","3","3","3","3","3","3","3","3","3","3","4","4","1","4","2","4","3","2","3","1","5","5","5","5","5","5","4","5","5","1","0","1","0","1","1","1","1","1","1","1","1","0","0","1","2","4","5","5","5","5","4","5","5","4","5","789938022656385026","焦","484","","","","","","","","","","","","","","","","","","","","","","","","","","","","","","","","","","","","","","","","","",""
"684","<p style=""color:rgb(150, 250, 100); font-size: 35px;"">他的</p>","e","categorize-html","80","343204","0.0-6.0-0.0-6.0-1.10","3","3","3","3","3","3","3","3","3","3","4","4","1","4","2","4","3","2","3","1","5","5","5","5","5","5","4","5","5","1","0","1","0","1","1","1","1","1","1","1","1","0","0","1","2","4","5","5","5","5","4","5","5","4","5","789938022656385026","焦","484","","","","","","","","","","","","","","","","","","","true","3","3","ability","684","other","他的","","","","","","","","","","","","","","","","",""
"null","","null","html-keyboard-response","81","343461","0.0-6.0-0.0-6.0-0.11","3","3","3","3","3","3","3","3","3","3","4","4","1","4","2","4","3","2","3","1","5","5","5","5","5","5","4","5","5","1","0","1","0","1","1","1","1","1","1","1","1","0","0","1","2","4","5","5","5","5","4","5","5","4","5","789938022656385026","焦","484","","","","","","","","","","","","","","","","","","","","","","","","","","","","","","","","","","","","","","","","","",""
"835","<p style=""color:white; font-size: 35px;"">精干</p>","i","categorize-html","82","344299","0.0-6.0-0.0-6.0-1.11","3","3","3","3","3","3","3","3","3","3","4","4","1","4","2","4","3","2","3","1","5","5","5","5","5","5","4","5","5","1","0","1","0","1","1","1","1","1","1","1","1","0","0","1","2","4","5","5","5","5","4","5","5","4","5","789938022656385026","焦","484","","","","","","","","","","","","","","","","","","","true","3","3","ability","835","positive","精干","","","","","","","","","","","","","","","","",""
"null","","null","html-keyboard-response","83","344557","0.0-6.0-0.0-6.0-0.12","3","3","3","3","3","3","3","3","3","3","4","4","1","4","2","4","3","2","3","1","5","5","5","5","5","5","4","5","5","1","0","1","0","1","1","1","1","1","1","1","1","0","0","1","2","4","5","5","5","5","4","5","5","4","5","789938022656385026","焦","484","","","","","","","","","","","","","","","","","","","","","","","","","","","","","","","","","","","","","","","","","",""
"603","<p style=""color:rgb(150, 250, 100); font-size: 35px;"">我的</p>","i","categorize-html","84","345163","0.0-6.0-0.0-6.0-1.12","3","3","3","3","3","3","3","3","3","3","4","4","1","4","2","4","3","2","3","1","5","5","5","5","5","5","4","5","5","1","0","1","0","1","1","1","1","1","1","1","1","0","0","1","2","4","5","5","5","5","4","5","5","4","5","789938022656385026","焦","484","","","","","","","","","","","","","","","","","","","true","3","3","ability","603","self","我的","","","","","","","","","","","","","","","","",""
"null","","null","html-keyboard-response","85","345422","0.0-6.0-0.0-6.0-0.13","3","3","3","3","3","3","3","3","3","3","4","4","1","4","2","4","3","2","3","1","5","5","5","5","5","5","4","5","5","1","0","1","0","1","1","1","1","1","1","1","1","0","0","1","2","4","5","5","5","5","4","5","5","4","5","789938022656385026","焦","484","","","","","","","","","","","","","","","","","","","","","","","","","","","","","","","","","","","","","","","","","",""
"683","<p style=""color:white; font-size: 35px;"">高效</p>","i","categorize-html","86","346108","0.0-6.0-0.0-6.0-1.13","3","3","3","3","3","3","3","3","3","3","4","4","1","4","2","4","3","2","3","1","5","5","5","5","5","5","4","5","5","1","0","1","0","1","1","1","1","1","1","1","1","0","0","1","2","4","5","5","5","5","4","5","5","4","5","789938022656385026","焦","484","","","","","","","","","","","","","","","","","","","true","3","3","ability","683","positive","高效","","","","","","","","","","","","","","","","",""
"null","","null","html-keyboard-response","87","346366","0.0-6.0-0.0-6.0-0.14","3","3","3","3","3","3","3","3","3","3","4","4","1","4","2","4","3","2","3","1","5","5","5","5","5","5","4","5","5","1","0","1","0","1","1","1","1","1","1","1","1","0","0","1","2","4","5","5","5","5","4","5","5","4","5","789938022656385026","焦","484","","","","","","","","","","","","","","","","","","","","","","","","","","","","","","","","","","","","","","","","","",""
"773","<p style=""color:rgb(150, 250, 100); font-size: 35px;"">别人的</p>","e","categorize-html","88","347141","0.0-6.0-0.0-6.0-1.14","3","3","3","3","3","3","3","3","3","3","4","4","1","4","2","4","3","2","3","1","5","5","5","5","5","5","4","5","5","1","0","1","0","1","1","1","1","1","1","1","1","0","0","1","2","4","5","5","5","5","4","5","5","4","5","789938022656385026","焦","484","","","","","","","","","","","","","","","","","","","true","3","3","ability","773","other","别人的","","","","","","","","","","","","","","","","",""
"null","","null","html-keyboard-response","89","347397","0.0-6.0-0.0-6.0-0.15","3","3","3","3","3","3","3","3","3","3","4","4","1","4","2","4","3","2","3","1","5","5","5","5","5","5","4","5","5","1","0","1","0","1","1","1","1","1","1","1","1","0","0","1","2","4","5","5","5","5","4","5","5","4","5","789938022656385026","焦","484","","","","","","","","","","","","","","","","","","","","","","","","","","","","","","","","","","","","","","","","","",""
"1336","<p style=""color:white; font-size: 35px;"">拙笨</p>","e","categorize-html","90","348737","0.0-6.0-0.0-6.0-1.15","3","3","3","3","3","3","3","3","3","3","4","4","1","4","2","4","3","2","3","1","5","5","5","5","5","5","4","5","5","1","0","1","0","1","1","1","1","1","1","1","1","0","0","1","2","4","5","5","5","5","4","5","5","4","5","789938022656385026","焦","484","","","","","","","","","","","","","","","","","","","true","3","3","ability","1336","negative","拙笨","","","","","","","","","","","","","","","","",""
"null","","null","html-keyboard-response","91","348990","0.0-6.0-0.0-6.0-0.16","3","3","3","3","3","3","3","3","3","3","4","4","1","4","2","4","3","2","3","1","5","5","5","5","5","5","4","5","5","1","0","1","0","1","1","1","1","1","1","1","1","0","0","1","2","4","5","5","5","5","4","5","5","4","5","789938022656385026","焦","484","","","","","","","","","","","","","","","","","","","","","","","","","","","","","","","","","","","","","","","","","",""
"909","<p style=""color:rgb(150, 250, 100); font-size: 35px;"">自己的</p>","i","categorize-html","92","349901","0.0-6.0-0.0-6.0-1.16","3","3","3","3","3","3","3","3","3","3","4","4","1","4","2","4","3","2","3","1","5","5","5","5","5","5","4","5","5","1","0","1","0","1","1","1","1","1","1","1","1","0","0","1","2","4","5","5","5","5","4","5","5","4","5","789938022656385026","焦","484","","","","","","","","","","","","","","","","","","","true","3","3","ability","909","self","自己的","","","","","","","","","","","","","","","","",""
"null","","null","html-keyboard-response","93","350157","0.0-6.0-0.0-6.0-0.17","3","3","3","3","3","3","3","3","3","3","4","4","1","4","2","4","3","2","3","1","5","5","5","5","5","5","4","5","5","1","0","1","0","1","1","1","1","1","1","1","1","0","0","1","2","4","5","5","5","5","4","5","5","4","5","789938022656385026","焦","484","","","","","","","","","","","","","","","","","","","","","","","","","","","","","","","","","","","","","","","","","",""
"1169","<p style=""color:white; font-size: 35px;"">全才</p>","i","categorize-html","94","351328","0.0-6.0-0.0-6.0-1.17","3","3","3","3","3","3","3","3","3","3","4","4","1","4","2","4","3","2","3","1","5","5","5","5","5","5","4","5","5","1","0","1","0","1","1","1","1","1","1","1","1","0","0","1","2","4","5","5","5","5","4","5","5","4","5","789938022656385026","焦","484","","","","","","","","","","","","","","","","","","","true","3","3","ability","1169","positive","全才","","","","","","","","","","","","","","","","",""
"null","","null","html-keyboard-response","95","351582","0.0-6.0-0.0-6.0-0.18","3","3","3","3","3","3","3","3","3","3","4","4","1","4","2","4","3","2","3","1","5","5","5","5","5","5","4","5","5","1","0","1","0","1","1","1","1","1","1","1","1","0","0","1","2","4","5","5","5","5","4","5","5","4","5","789938022656385026","焦","484","","","","","","","","","","","","","","","","","","","","","","","","","","","","","","","","","","","","","","","","","",""
"1004","<p style=""color:rgb(150, 250, 100); font-size: 35px;"">别人</p>","e","categorize-html","96","352588","0.0-6.0-0.0-6.0-1.18","3","3","3","3","3","3","3","3","3","3","4","4","1","4","2","4","3","2","3","1","5","5","5","5","5","5","4","5","5","1","0","1","0","1","1","1","1","1","1","1","1","0","0","1","2","4","5","5","5","5","4","5","5","4","5","789938022656385026","焦","484","","","","","","","","","","","","","","","","","","","true","3","3","ability","1004","other","别人","","","","","","","","","","","","","","","","",""
"null","","null","html-keyboard-response","97","352845","0.0-6.0-0.0-6.0-0.19","3","3","3","3","3","3","3","3","3","3","4","4","1","4","2","4","3","2","3","1","5","5","5","5","5","5","4","5","5","1","0","1","0","1","1","1","1","1","1","1","1","0","0","1","2","4","5","5","5","5","4","5","5","4","5","789938022656385026","焦","484","","","","","","","","","","","","","","","","","","","","","","","","","","","","","","","","","","","","","","","","","",""
"889","<p style=""color:white; font-size: 35px;"">废物</p>","e","categorize-html","98","353737","0.0-6.0-0.0-6.0-1.19","3","3","3","3","3","3","3","3","3","3","4","4","1","4","2","4","3","2","3","1","5","5","5","5","5","5","4","5","5","1","0","1","0","1","1","1","1","1","1","1","1","0","0","1","2","4","5","5","5","5","4","5","5","4","5","789938022656385026","焦","484","","","","","","","","","","","","","","","","","","","true","3","3","ability","889","negative","废物","","","","","","","","","","","","","","","","",""
"null","","null","html-keyboard-response","99","353989","0.0-6.0-0.0-6.0-0.20","3","3","3","3","3","3","3","3","3","3","4","4","1","4","2","4","3","2","3","1","5","5","5","5","5","5","4","5","5","1","0","1","0","1","1","1","1","1","1","1","1","0","0","1","2","4","5","5","5","5","4","5","5","4","5","789938022656385026","焦","484","","","","","","","","","","","","","","","","","","","","","","","","","","","","","","","","","","","","","","","","","",""
"842","<p style=""color:rgb(150, 250, 100); font-size: 35px;"">本人的</p>","i","categorize-html","100","354834","0.0-6.0-0.0-6.0-1.20","3","3","3","3","3","3","3","3","3","3","4","4","1","4","2","4","3","2","3","1","5","5","5","5","5","5","4","5","5","1","0","1","0","1","1","1","1","1","1","1","1","0","0","1","2","4","5","5","5","5","4","5","5","4","5","789938022656385026","焦","484","","","","","","","","","","","","","","","","","","","true","3","3","ability","842","self","本人的","","","","","","","","","","","","","","","","",""
"null","","null","html-keyboard-response","101","355086","0.0-6.0-0.0-6.0-0.21","3","3","3","3","3","3","3","3","3","3","4","4","1","4","2","4","3","2","3","1","5","5","5","5","5","5","4","5","5","1","0","1","0","1","1","1","1","1","1","1","1","0","0","1","2","4","5","5","5","5","4","5","5","4","5","789938022656385026","焦","484","","","","","","","","","","","","","","","","","","","","","","","","","","","","","","","","","","","","","","","","","",""
"884","<p style=""color:white; font-size: 35px;"">能干</p>","i","categorize-html","102","355972","0.0-6.0-0.0-6.0-1.21","3","3","3","3","3","3","3","3","3","3","4","4","1","4","2","4","3","2","3","1","5","5","5","5","5","5","4","5","5","1","0","1","0","1","1","1","1","1","1","1","1","0","0","1","2","4","5","5","5","5","4","5","5","4","5","789938022656385026","焦","484","","","","","","","","","","","","","","","","","","","true","3","3","ability","884","positive","能干","","","","","","","","","","","","","","","","",""
"null","","null","html-keyboard-response","103","356229","0.0-6.0-0.0-6.0-0.22","3","3","3","3","3","3","3","3","3","3","4","4","1","4","2","4","3","2","3","1","5","5","5","5","5","5","4","5","5","1","0","1","0","1","1","1","1","1","1","1","1","0","0","1","2","4","5","5","5","5","4","5","5","4","5","789938022656385026","焦","484","","","","","","","","","","","","","","","","","","","","","","","","","","","","","","","","","","","","","","","","","",""
"863","<p style=""color:rgb(150, 250, 100); font-size: 35px;"">他人的</p>","e","categorize-html","104","357095","0.0-6.0-0.0-6.0-1.22","3","3","3","3","3","3","3","3","3","3","4","4","1","4","2","4","3","2","3","1","5","5","5","5","5","5","4","5","5","1","0","1","0","1","1","1","1","1","1","1","1","0","0","1","2","4","5","5","5","5","4","5","5","4","5","789938022656385026","焦","484","","","","","","","","","","","","","","","","","","","true","3","3","ability","863","other","他人的","","","","","","","","","","","","","","","","",""
"null","","null","html-keyboard-response","105","357349","0.0-6.0-0.0-6.0-0.23","3","3","3","3","3","3","3","3","3","3","4","4","1","4","2","4","3","2","3","1","5","5","5","5","5","5","4","5","5","1","0","1","0","1","1","1","1","1","1","1","1","0","0","1","2","4","5","5","5","5","4","5","5","4","5","789938022656385026","焦","484","","","","","","","","","","","","","","","","","","","","","","","","","","","","","","","","","","","","","","","","","",""
"1393","<p style=""color:white; font-size: 35px;"">愚钝</p>","e","categorize-html","106","358745","0.0-6.0-0.0-6.0-1.23","3","3","3","3","3","3","3","3","3","3","4","4","1","4","2","4","3","2","3","1","5","5","5","5","5","5","4","5","5","1","0","1","0","1","1","1","1","1","1","1","1","0","0","1","2","4","5","5","5","5","4","5","5","4","5","789938022656385026","焦","484","","","","","","","","","","","","","","","","","","","true","3","3","ability","1393","negative","愚钝","","","","","","","","","","","","","","","","",""
"6765","
    <div class=""tag-bottom""><p>
    —— 任务4：对“他人/消极”词和“自我/积极”词分类 ——<p/>
    <span style=""color:#78DCE8""><b>与刚才的任务完全相同，请再次对这四类词语分类</b></span><p/>
    <span style=""color:#FFD866""><b>请根据上方标签的提示，尽可能正确并且快速地做出按键反应</b></span><p/>
    当按键错误时屏幕中会出现<span style=""color:red""> X </span>，需要按另一个键纠正才能继续<br/><p/>
    请把双手食指分别放在键盘的“E”键和“I”键上<p/>
    按<空格键>开始
    </p></div>"," ","html-keyboard-response","107","365511","0.0-6.0-0.0-7.0","3","3","3","3","3","3","3","3","3","3","4","4","1","4","2","4","3","2","3","1","5","5","5","5","5","5","4","5","5","1","0","1","0","1","1","1","1","1","1","1","1","0","0","1","2","4","5","5","5","5","4","5","5","4","5","789938022656385026","焦","484","","","","","","","","","","","","","","","","","","","","","","","","","","","","","","","","","","","","","","","","","",""
"null","","null","html-keyboard-response","108","365766","0.0-6.0-0.0-8.0-0.0","3","3","3","3","3","3","3","3","3","3","4","4","1","4","2","4","3","2","3","1","5","5","5","5","5","5","4","5","5","1","0","1","0","1","1","1","1","1","1","1","1","0","0","1","2","4","5","5","5","5","4","5","5","4","5","789938022656385026","焦","484","","","","","","","","","","","","","","","","","","","","","","","","","","","","","","","","","","","","","","","","","",""
"1103","<p style=""color:rgb(150, 250, 100); font-size: 35px;"">别人的</p>","e","categorize-html","109","366872","0.0-6.0-0.0-8.0-1.0","3","3","3","3","3","3","3","3","3","3","4","4","1","4","2","4","3","2","3","1","5","5","5","5","5","5","4","5","5","1","0","1","0","1","1","1","1","1","1","1","1","0","0","1","2","4","5","5","5","5","4","5","5","4","5","789938022656385026","焦","484","","","","","","","","","","","","","","","","","","","true","4","4","ability","1103","other","别人的","","","","","","","","","","","","","","","","",""
"null","","null","html-keyboard-response","110","367125","0.0-6.0-0.0-8.0-0.1","3","3","3","3","3","3","3","3","3","3","4","4","1","4","2","4","3","2","3","1","5","5","5","5","5","5","4","5","5","1","0","1","0","1","1","1","1","1","1","1","1","0","0","1","2","4","5","5","5","5","4","5","5","4","5","789938022656385026","焦","484","","","","","","","","","","","","","","","","","","","","","","","","","","","","","","","","","","","","","","","","","",""
"651","<p style=""color:white; font-size: 35px;"">无能</p>","e","categorize-html","111","367778","0.0-6.0-0.0-8.0-1.1","3","3","3","3","3","3","3","3","3","3","4","4","1","4","2","4","3","2","3","1","5","5","5","5","5","5","4","5","5","1","0","1","0","1","1","1","1","1","1","1","1","0","0","1","2","4","5","5","5","5","4","5","5","4","5","789938022656385026","焦","484","","","","","","","","","","","","","","","","","","","true","4","4","ability","651","negative","无能","","","","","","","","","","","","","","","","",""
"null","","null","html-keyboard-response","112","368037","0.0-6.0-0.0-8.0-0.2","3","3","3","3","3","3","3","3","3","3","4","4","1","4","2","4","3","2","3","1","5","5","5","5","5","5","4","5","5","1","0","1","0","1","1","1","1","1","1","1","1","0","0","1","2","4","5","5","5","5","4","5","5","4","5","789938022656385026","焦","484","","","","","","","","","","","","","","","","","","","","","","","","","","","","","","","","","","","","","","","","","",""
"706","<p style=""color:rgb(150, 250, 100); font-size: 35px;"">自己</p>","i","categorize-html","113","368746","0.0-6.0-0.0-8.0-1.2","3","3","3","3","3","3","3","3","3","3","4","4","1","4","2","4","3","2","3","1","5","5","5","5","5","5","4","5","5","1","0","1","0","1","1","1","1","1","1","1","1","0","0","1","2","4","5","5","5","5","4","5","5","4","5","789938022656385026","焦","484","","","","","","","","","","","","","","","","","","","true","4","4","ability","706","self","自己","","","","","","","","","","","","","","","","",""
"null","","null","html-keyboard-response","114","368998","0.0-6.0-0.0-8.0-0.3","3","3","3","3","3","3","3","3","3","3","4","4","1","4","2","4","3","2","3","1","5","5","5","5","5","5","4","5","5","1","0","1","0","1","1","1","1","1","1","1","1","0","0","1","2","4","5","5","5","5","4","5","5","4","5","789938022656385026","焦","484","","","","","","","","","","","","","","","","","","","","","","","","","","","","","","","","","","","","","","","","","",""
"1722","<p style=""color:white; font-size: 35px;"">全能</p>","i","categorize-html","115","370723","0.0-6.0-0.0-8.0-1.3","3","3","3","3","3","3","3","3","3","3","4","4","1","4","2","4","3","2","3","1","5","5","5","5","5","5","4","5","5","1","0","1","0","1","1","1","1","1","1","1","1","0","0","1","2","4","5","5","5","5","4","5","5","4","5","789938022656385026","焦","484","","","","","","","","","","","","","","","","","","","true","4","4","ability","1722","positive","全能","","","","","","","","","","","","","","","","",""
"null","","null","html-keyboard-response","116","370981","0.0-6.0-0.0-8.0-0.4","3","3","3","3","3","3","3","3","3","3","4","4","1","4","2","4","3","2","3","1","5","5","5","5","5","5","4","5","5","1","0","1","0","1","1","1","1","1","1","1","1","0","0","1","2","4","5","5","5","5","4","5","5","4","5","789938022656385026","焦","484","","","","","","","","","","","","","","","","","","","","","","","","","","","","","","","","","","","","","","","","","",""
"1100","<p style=""color:rgb(150, 250, 100); font-size: 35px;"">他人的</p>","e","categorize-html","117","372084","0.0-6.0-0.0-8.0-1.4","3","3","3","3","3","3","3","3","3","3","4","4","1","4","2","4","3","2","3","1","5","5","5","5","5","5","4","5","5","1","0","1","0","1","1","1","1","1","1","1","1","0","0","1","2","4","5","5","5","5","4","5","5","4","5","789938022656385026","焦","484","","","","","","","","","","","","","","","","","","","true","4","4","ability","1100","other","他人的","","","","","","","","","","","","","","","","",""
"null","","null","html-keyboard-response","118","372342","0.0-6.0-0.0-8.0-0.5","3","3","3","3","3","3","3","3","3","3","4","4","1","4","2","4","3","2","3","1","5","5","5","5","5","5","4","5","5","1","0","1","0","1","1","1","1","1","1","1","1","0","0","1","2","4","5","5","5","5","4","5","5","4","5","789938022656385026","焦","484","","","","","","","","","","","","","","","","","","","","","","","","","","","","","","","","","","","","","","","","","",""
"923","<p style=""color:white; font-size: 35px;"">无能</p>","e","categorize-html","119","373268","0.0-6.0-0.0-8.0-1.5","3","3","3","3","3","3","3","3","3","3","4","4","1","4","2","4","3","2","3","1","5","5","5","5","5","5","4","5","5","1","0","1","0","1","1","1","1","1","1","1","1","0","0","1","2","4","5","5","5","5","4","5","5","4","5","789938022656385026","焦","484","","","","","","","","","","","","","","","","","","","true","4","4","ability","923","negative","无能","","","","","","","","","","","","","","","","",""
"null","","null","html-keyboard-response","120","373525","0.0-6.0-0.0-8.0-0.6","3","3","3","3","3","3","3","3","3","3","4","4","1","4","2","4","3","2","3","1","5","5","5","5","5","5","4","5","5","1","0","1","0","1","1","1","1","1","1","1","1","0","0","1","2","4","5","5","5","5","4","5","5","4","5","789938022656385026","焦","484","","","","","","","","","","","","","","","","","","","","","","","","","","","","","","","","","","","","","","","","","",""
"735","<p style=""color:rgb(150, 250, 100); font-size: 35px;"">自己的</p>","i","categorize-html","121","374263","0.0-6.0-0.0-8.0-1.6","3","3","3","3","3","3","3","3","3","3","4","4","1","4","2","4","3","2","3","1","5","5","5","5","5","5","4","5","5","1","0","1","0","1","1","1","1","1","1","1","1","0","0","1","2","4","5","5","5","5","4","5","5","4","5","789938022656385026","焦","484","","","","","","","","","","","","","","","","","","","true","4","4","ability","735","self","自己的","","","","","","","","","","","","","","","","",""
"null","","null","html-keyboard-response","122","374517","0.0-6.0-0.0-8.0-0.7","3","3","3","3","3","3","3","3","3","3","4","4","1","4","2","4","3","2","3","1","5","5","5","5","5","5","4","5","5","1","0","1","0","1","1","1","1","1","1","1","1","0","0","1","2","4","5","5","5","5","4","5","5","4","5","789938022656385026","焦","484","","","","","","","","","","","","","","","","","","","","","","","","","","","","","","","","","","","","","","","","","",""
"652","<p style=""color:white; font-size: 35px;"">天才</p>","i","categorize-html","123","375172","0.0-6.0-0.0-8.0-1.7","3","3","3","3","3","3","3","3","3","3","4","4","1","4","2","4","3","2","3","1","5","5","5","5","5","5","4","5","5","1","0","1","0","1","1","1","1","1","1","1","1","0","0","1","2","4","5","5","5","5","4","5","5","4","5","789938022656385026","焦","484","","","","","","","","","","","","","","","","","","","true","4","4","ability","652","positive","天才","","","","","","","","","","","","","","","","",""
"null","","null","html-keyboard-response","124","375430","0.0-6.0-0.0-8.0-0.8","3","3","3","3","3","3","3","3","3","3","4","4","1","4","2","4","3","2","3","1","5","5","5","5","5","5","4","5","5","1","0","1","0","1","1","1","1","1","1","1","1","0","0","1","2","4","5","5","5","5","4","5","5","4","5","789938022656385026","焦","484","","","","","","","","","","","","","","","","","","","","","","","","","","","","","","","","","","","","","","","","","",""
"962","<p style=""color:rgb(150, 250, 100); font-size: 35px;"">他的</p>","e","categorize-html","125","376395","0.0-6.0-0.0-8.0-1.8","3","3","3","3","3","3","3","3","3","3","4","4","1","4","2","4","3","2","3","1","5","5","5","5","5","5","4","5","5","1","0","1","0","1","1","1","1","1","1","1","1","0","0","1","2","4","5","5","5","5","4","5","5","4","5","789938022656385026","焦","484","","","","","","","","","","","","","","","","","","","true","4","4","ability","962","other","他的","","","","","","","","","","","","","","","","",""
"null","","null","html-keyboard-response","126","376654","0.0-6.0-0.0-8.0-0.9","3","3","3","3","3","3","3","3","3","3","4","4","1","4","2","4","3","2","3","1","5","5","5","5","5","5","4","5","5","1","0","1","0","1","1","1","1","1","1","1","1","0","0","1","2","4","5","5","5","5","4","5","5","4","5","789938022656385026","焦","484","","","","","","","","","","","","","","","","","","","","","","","","","","","","","","","","","","","","","","","","","",""
"2017","<p style=""color:white; font-size: 35px;"">废物</p>","e","categorize-html","127","378674","0.0-6.0-0.0-8.0-1.9","3","3","3","3","3","3","3","3","3","3","4","4","1","4","2","4","3","2","3","1","5","5","5","5","5","5","4","5","5","1","0","1","0","1","1","1","1","1","1","1","1","0","0","1","2","4","5","5","5","5","4","5","5","4","5","789938022656385026","焦","484","","","","","","","","","","","","","","","","","","","true","4","4","ability","2017","negative","废物","","","","","","","","","","","","","","","","",""
"null","","null","html-keyboard-response","128","378926","0.0-6.0-0.0-8.0-0.10","3","3","3","3","3","3","3","3","3","3","4","4","1","4","2","4","3","2","3","1","5","5","5","5","5","5","4","5","5","1","0","1","0","1","1","1","1","1","1","1","1","0","0","1","2","4","5","5","5","5","4","5","5","4","5","789938022656385026","焦","484","","","","","","","","","","","","","","","","","","","","","","","","","","","","","","","","","","","","","","","","","",""
"529","<p style=""color:rgb(150, 250, 100); font-size: 35px;"">本人</p>","i","categorize-html","129","379458","0.0-6.0-0.0-8.0-1.10","3","3","3","3","3","3","3","3","3","3","4","4","1","4","2","4","3","2","3","1","5","5","5","5","5","5","4","5","5","1","0","1","0","1","1","1","1","1","1","1","1","0","0","1","2","4","5","5","5","5","4","5","5","4","5","789938022656385026","焦","484","","","","","","","","","","","","","","","","","","","true","4","4","ability","529","self","本人","","","","","","","","","","","","","","","","",""
"null","","null","html-keyboard-response","130","379718","0.0-6.0-0.0-8.0-0.11","3","3","3","3","3","3","3","3","3","3","4","4","1","4","2","4","3","2","3","1","5","5","5","5","5","5","4","5","5","1","0","1","0","1","1","1","1","1","1","1","1","0","0","1","2","4","5","5","5","5","4","5","5","4","5","789938022656385026","焦","484","","","","","","","","","","","","","","","","","","","","","","","","","","","","","","","","","","","","","","","","","",""
"639","<p style=""color:white; font-size: 35px;"">全能</p>","i","categorize-html","131","380359","0.0-6.0-0.0-8.0-1.11","3","3","3","3","3","3","3","3","3","3","4","4","1","4","2","4","3","2","3","1","5","5","5","5","5","5","4","5","5","1","0","1","0","1","1","1","1","1","1","1","1","0","0","1","2","4","5","5","5","5","4","5","5","4","5","789938022656385026","焦","484","","","","","","","","","","","","","","","","","","","true","4","4","ability","639","positive","全能","","","","","","","","","","","","","","","","",""
"null","","null","html-keyboard-response","132","380614","0.0-6.0-0.0-8.0-0.12","3","3","3","3","3","3","3","3","3","3","4","4","1","4","2","4","3","2","3","1","5","5","5","5","5","5","4","5","5","1","0","1","0","1","1","1","1","1","1","1","1","0","0","1","2","4","5","5","5","5","4","5","5","4","5","789938022656385026","焦","484","","","","","","","","","","","","","","","","","","","","","","","","","","","","","","","","","","","","","","","","","",""
"799","<p style=""color:rgb(150, 250, 100); font-size: 35px;"">他人</p>","e","categorize-html","133","381415","0.0-6.0-0.0-8.0-1.12","3","3","3","3","3","3","3","3","3","3","4","4","1","4","2","4","3","2","3","1","5","5","5","5","5","5","4","5","5","1","0","1","0","1","1","1","1","1","1","1","1","0","0","1","2","4","5","5","5","5","4","5","5","4","5","789938022656385026","焦","484","","","","","","","","","","","","","","","","","","","true","4","4","ability","799","other","他人","","","","","","","","","","","","","","","","",""
"null","","null","html-keyboard-response","134","381670","0.0-6.0-0.0-8.0-0.13","3","3","3","3","3","3","3","3","3","3","4","4","1","4","2","4","3","2","3","1","5","5","5","5","5","5","4","5","5","1","0","1","0","1","1","1","1","1","1","1","1","0","0","1","2","4","5","5","5","5","4","5","5","4","5","789938022656385026","焦","484","","","","","","","","","","","","","","","","","","","","","","","","","","","","","","","","","","","","","","","","","",""
"1311","<p style=""color:white; font-size: 35px;"">全才</p>","i","categorize-html","135","382983","0.0-6.0-0.0-8.0-1.13","3","3","3","3","3","3","3","3","3","3","4","4","1","4","2","4","3","2","3","1","5","5","5","5","5","5","4","5","5","1","0","1","0","1","1","1","1","1","1","1","1","0","0","1","2","4","5","5","5","5","4","5","5","4","5","789938022656385026","焦","484","","","","","","","","","","","","","","","","","","","true","4","4","ability","1311","positive","全才","","","","","","","","","","","","","","","","",""
"null","","null","html-keyboard-response","136","383237","0.0-6.0-0.0-8.0-0.14","3","3","3","3","3","3","3","3","3","3","4","4","1","4","2","4","3","2","3","1","5","5","5","5","5","5","4","5","5","1","0","1","0","1","1","1","1","1","1","1","1","0","0","1","2","4","5","5","5","5","4","5","5","4","5","789938022656385026","焦","484","","","","","","","","","","","","","","","","","","","","","","","","","","","","","","","","","","","","","","","","","",""
"966","<p style=""color:rgb(150, 250, 100); font-size: 35px;"">本人</p>","i","categorize-html","137","384206","0.0-6.0-0.0-8.0-1.14","3","3","3","3","3","3","3","3","3","3","4","4","1","4","2","4","3","2","3","1","5","5","5","5","5","5","4","5","5","1","0","1","0","1","1","1","1","1","1","1","1","0","0","1","2","4","5","5","5","5","4","5","5","4","5","789938022656385026","焦","484","","","","","","","","","","","","","","","","","","","true","4","4","ability","966","self","本人","","","","","","","","","","","","","","","","",""
"null","","null","html-keyboard-response","138","384461","0.0-6.0-0.0-8.0-0.15","3","3","3","3","3","3","3","3","3","3","4","4","1","4","2","4","3","2","3","1","5","5","5","5","5","5","4","5","5","1","0","1","0","1","1","1","1","1","1","1","1","0","0","1","2","4","5","5","5","5","4","5","5","4","5","789938022656385026","焦","484","","","","","","","","","","","","","","","","","","","","","","","","","","","","","","","","","","","","","","","","","",""
"1023","<p style=""color:white; font-size: 35px;"">低能</p>","e","categorize-html","139","385487","0.0-6.0-0.0-8.0-1.15","3","3","3","3","3","3","3","3","3","3","4","4","1","4","2","4","3","2","3","1","5","5","5","5","5","5","4","5","5","1","0","1","0","1","1","1","1","1","1","1","1","0","0","1","2","4","5","5","5","5","4","5","5","4","5","789938022656385026","焦","484","","","","","","","","","","","","","","","","","","","true","4","4","ability","1023","negative","低能","","","","","","","","","","","","","","","","",""
"null","","null","html-keyboard-response","140","385742","0.0-6.0-0.0-8.0-0.16","3","3","3","3","3","3","3","3","3","3","4","4","1","4","2","4","3","2","3","1","5","5","5","5","5","5","4","5","5","1","0","1","0","1","1","1","1","1","1","1","1","0","0","1","2","4","5","5","5","5","4","5","5","4","5","789938022656385026","焦","484","","","","","","","","","","","","","","","","","","","","","","","","","","","","","","","","","","","","","","","","","",""
"963","<p style=""color:rgb(150, 250, 100); font-size: 35px;"">我的</p>","i","categorize-html","141","386708","0.0-6.0-0.0-8.0-1.16","3","3","3","3","3","3","3","3","3","3","4","4","1","4","2","4","3","2","3","1","5","5","5","5","5","5","4","5","5","1","0","1","0","1","1","1","1","1","1","1","1","0","0","1","2","4","5","5","5","5","4","5","5","4","5","789938022656385026","焦","484","","","","","","","","","","","","","","","","","","","true","4","4","ability","963","self","我的","","","","","","","","","","","","","","","","",""
"null","","null","html-keyboard-response","142","386965","0.0-6.0-0.0-8.0-0.17","3","3","3","3","3","3","3","3","3","3","4","4","1","4","2","4","3","2","3","1","5","5","5","5","5","5","4","5","5","1","0","1","0","1","1","1","1","1","1","1","1","0","0","1","2","4","5","5","5","5","4","5","5","4","5","789938022656385026","焦","484","","","","","","","","","","","","","","","","","","","","","","","","","","","","","","","","","","","","","","","","","",""
"822","<p style=""color:white; font-size: 35px;"">高效</p>","i","categorize-html","143","387790","0.0-6.0-0.0-8.0-1.17","3","3","3","3","3","3","3","3","3","3","4","4","1","4","2","4","3","2","3","1","5","5","5","5","5","5","4","5","5","1","0","1","0","1","1","1","1","1","1","1","1","0","0","1","2","4","5","5","5","5","4","5","5","4","5","789938022656385026","焦","484","","","","","","","","","","","","","","","","","","","true","4","4","ability","822","positive","高效","","","","","","","","","","","","","","","","",""
"null","","null","html-keyboard-response","144","388045","0.0-6.0-0.0-8.0-0.18","3","3","3","3","3","3","3","3","3","3","4","4","1","4","2","4","3","2","3","1","5","5","5","5","5","5","4","5","5","1","0","1","0","1","1","1","1","1","1","1","1","0","0","1","2","4","5","5","5","5","4","5","5","4","5","789938022656385026","焦","484","","","","","","","","","","","","","","","","","","","","","","","","","","","","","","","","","","","","","","","","","",""
"565","<p style=""color:rgb(150, 250, 100); font-size: 35px;"">别人</p>","e","categorize-html","145","388613","0.0-6.0-0.0-8.0-1.18","3","3","3","3","3","3","3","3","3","3","4","4","1","4","2","4","3","2","3","1","5","5","5","5","5","5","4","5","5","1","0","1","0","1","1","1","1","1","1","1","1","0","0","1","2","4","5","5","5","5","4","5","5","4","5","789938022656385026","焦","484","","","","","","","","","","","","","","","","","","","true","4","4","ability","565","other","别人","","","","","","","","","","","","","","","","",""
"null","","null","html-keyboard-response","146","388869","0.0-6.0-0.0-8.0-0.19","3","3","3","3","3","3","3","3","3","3","4","4","1","4","2","4","3","2","3","1","5","5","5","5","5","5","4","5","5","1","0","1","0","1","1","1","1","1","1","1","1","0","0","1","2","4","5","5","5","5","4","5","5","4","5","789938022656385026","焦","484","","","","","","","","","","","","","","","","","","","","","","","","","","","","","","","","","","","","","","","","","",""
"1373","<p style=""color:white; font-size: 35px;"">愚钝</p>","e","categorize-html","147","390244","0.0-6.0-0.0-8.0-1.19","3","3","3","3","3","3","3","3","3","3","4","4","1","4","2","4","3","2","3","1","5","5","5","5","5","5","4","5","5","1","0","1","0","1","1","1","1","1","1","1","1","0","0","1","2","4","5","5","5","5","4","5","5","4","5","789938022656385026","焦","484","","","","","","","","","","","","","","","","","","","true","4","4","ability","1373","negative","愚钝","","","","","","","","","","","","","","","","",""
"null","","null","html-keyboard-response","148","390502","0.0-6.0-0.0-8.0-0.20","3","3","3","3","3","3","3","3","3","3","4","4","1","4","2","4","3","2","3","1","5","5","5","5","5","5","4","5","5","1","0","1","0","1","1","1","1","1","1","1","1","0","0","1","2","4","5","5","5","5","4","5","5","4","5","789938022656385026","焦","484","","","","","","","","","","","","","","","","","","","","","","","","","","","","","","","","","","","","","","","","","",""
"585","<p style=""color:rgb(150, 250, 100); font-size: 35px;"">我的</p>","i","categorize-html","149","391090","0.0-6.0-0.0-8.0-1.20","3","3","3","3","3","3","3","3","3","3","4","4","1","4","2","4","3","2","3","1","5","5","5","5","5","5","4","5","5","1","0","1","0","1","1","1","1","1","1","1","1","0","0","1","2","4","5","5","5","5","4","5","5","4","5","789938022656385026","焦","484","","","","","","","","","","","","","","","","","","","true","4","4","ability","585","self","我的","","","","","","","","","","","","","","","","",""
"null","","null","html-keyboard-response","150","391341","0.0-6.0-0.0-8.0-0.21","3","3","3","3","3","3","3","3","3","3","4","4","1","4","2","4","3","2","3","1","5","5","5","5","5","5","4","5","5","1","0","1","0","1","1","1","1","1","1","1","1","0","0","1","2","4","5","5","5","5","4","5","5","4","5","789938022656385026","焦","484","","","","","","","","","","","","","","","","","","","","","","","","","","","","","","","","","","","","","","","","","",""
"1281","<p style=""color:white; font-size: 35px;"">低能</p>","e","categorize-html","151","392625","0.0-6.0-0.0-8.0-1.21","3","3","3","3","3","3","3","3","3","3","4","4","1","4","2","4","3","2","3","1","5","5","5","5","5","5","4","5","5","1","0","1","0","1","1","1","1","1","1","1","1","0","0","1","2","4","5","5","5","5","4","5","5","4","5","789938022656385026","焦","484","","","","","","","","","","","","","","","","","","","true","4","4","ability","1281","negative","低能","","","","","","","","","","","","","","","","",""
"null","","null","html-keyboard-response","152","392877","0.0-6.0-0.0-8.0-0.22","3","3","3","3","3","3","3","3","3","3","4","4","1","4","2","4","3","2","3","1","5","5","5","5","5","5","4","5","5","1","0","1","0","1","1","1","1","1","1","1","1","0","0","1","2","4","5","5","5","5","4","5","5","4","5","789938022656385026","焦","484","","","","","","","","","","","","","","","","","","","","","","","","","","","","","","","","","","","","","","","","","",""
"2084","<p style=""color:rgb(150, 250, 100); font-size: 35px;"">别人</p>","e","categorize-html","153","394964","0.0-6.0-0.0-8.0-1.22","3","3","3","3","3","3","3","3","3","3","4","4","1","4","2","4","3","2","3","1","5","5","5","5","5","5","4","5","5","1","0","1","0","1","1","1","1","1","1","1","1","0","0","1","2","4","5","5","5","5","4","5","5","4","5","789938022656385026","焦","484","","","","","","","","","","","","","","","","","","","true","4","4","ability","2084","other","别人","","","","","","","","","","","","","","","","",""
"null","","null","html-keyboard-response","154","395221","0.0-6.0-0.0-8.0-0.23","3","3","3","3","3","3","3","3","3","3","4","4","1","4","2","4","3","2","3","1","5","5","5","5","5","5","4","5","5","1","0","1","0","1","1","1","1","1","1","1","1","0","0","1","2","4","5","5","5","5","4","5","5","4","5","789938022656385026","焦","484","","","","","","","","","","","","","","","","","","","","","","","","","","","","","","","","","","","","","","","","","",""
"701","<p style=""color:white; font-size: 35px;"">精干</p>","i","categorize-html","155","395925","0.0-6.0-0.0-8.0-1.23","3","3","3","3","3","3","3","3","3","3","4","4","1","4","2","4","3","2","3","1","5","5","5","5","5","5","4","5","5","1","0","1","0","1","1","1","1","1","1","1","1","0","0","1","2","4","5","5","5","5","4","5","5","4","5","789938022656385026","焦","484","","","","","","","","","","","","","","","","","","","true","4","4","ability","701","positive","精干","","","","","","","","","","","","","","","","",""
"null","","null","html-keyboard-response","156","396181","0.0-6.0-0.0-8.0-0.24","3","3","3","3","3","3","3","3","3","3","4","4","1","4","2","4","3","2","3","1","5","5","5","5","5","5","4","5","5","1","0","1","0","1","1","1","1","1","1","1","1","0","0","1","2","4","5","5","5","5","4","5","5","4","5","789938022656385026","焦","484","","","","","","","","","","","","","","","","","","","","","","","","","","","","","","","","","","","","","","","","","",""
"818","<p style=""color:rgb(150, 250, 100); font-size: 35px;"">自己的</p>","i","categorize-html","157","397002","0.0-6.0-0.0-8.0-1.24","3","3","3","3","3","3","3","3","3","3","4","4","1","4","2","4","3","2","3","1","5","5","5","5","5","5","4","5","5","1","0","1","0","1","1","1","1","1","1","1","1","0","0","1","2","4","5","5","5","5","4","5","5","4","5","789938022656385026","焦","484","","","","","","","","","","","","","","","","","","","true","4","4","ability","818","self","自己的","","","","","","","","","","","","","","","","",""
"null","","null","html-keyboard-response","158","397254","0.0-6.0-0.0-8.0-0.25","3","3","3","3","3","3","3","3","3","3","4","4","1","4","2","4","3","2","3","1","5","5","5","5","5","5","4","5","5","1","0","1","0","1","1","1","1","1","1","1","1","0","0","1","2","4","5","5","5","5","4","5","5","4","5","789938022656385026","焦","484","","","","","","","","","","","","","","","","","","","","","","","","","","","","","","","","","","","","","","","","","",""
"934","<p style=""color:white; font-size: 35px;"">蠢笨</p>","e","categorize-html","159","398190","0.0-6.0-0.0-8.0-1.25","3","3","3","3","3","3","3","3","3","3","4","4","1","4","2","4","3","2","3","1","5","5","5","5","5","5","4","5","5","1","0","1","0","1","1","1","1","1","1","1","1","0","0","1","2","4","5","5","5","5","4","5","5","4","5","789938022656385026","焦","484","","","","","","","","","","","","","","","","","","","true","4","4","ability","934","negative","蠢笨","","","","","","","","","","","","","","","","",""
"null","","null","html-keyboard-response","160","398446","0.0-6.0-0.0-8.0-0.26","3","3","3","3","3","3","3","3","3","3","4","4","1","4","2","4","3","2","3","1","5","5","5","5","5","5","4","5","5","1","0","1","0","1","1","1","1","1","1","1","1","0","0","1","2","4","5","5","5","5","4","5","5","4","5","789938022656385026","焦","484","","","","","","","","","","","","","","","","","","","","","","","","","","","","","","","","","","","","","","","","","",""
"1003","<p style=""color:rgb(150, 250, 100); font-size: 35px;"">他</p>","e","categorize-html","161","399452","0.0-6.0-0.0-8.0-1.26","3","3","3","3","3","3","3","3","3","3","4","4","1","4","2","4","3","2","3","1","5","5","5","5","5","5","4","5","5","1","0","1","0","1","1","1","1","1","1","1","1","0","0","1","2","4","5","5","5","5","4","5","5","4","5","789938022656385026","焦","484","","","","","","","","","","","","","","","","","","","true","4","4","ability","1003","other","他","","","","","","","","","","","","","","","","",""
"null","","null","html-keyboard-response","162","399710","0.0-6.0-0.0-8.0-0.27","3","3","3","3","3","3","3","3","3","3","4","4","1","4","2","4","3","2","3","1","5","5","5","5","5","5","4","5","5","1","0","1","0","1","1","1","1","1","1","1","1","0","0","1","2","4","5","5","5","5","4","5","5","4","5","789938022656385026","焦","484","","","","","","","","","","","","","","","","","","","","","","","","","","","","","","","","","","","","","","","","","",""
"1063","<p style=""color:white; font-size: 35px;"">精干</p>","i","categorize-html","163","400776","0.0-6.0-0.0-8.0-1.27","3","3","3","3","3","3","3","3","3","3","4","4","1","4","2","4","3","2","3","1","5","5","5","5","5","5","4","5","5","1","0","1","0","1","1","1","1","1","1","1","1","0","0","1","2","4","5","5","5","5","4","5","5","4","5","789938022656385026","焦","484","","","","","","","","","","","","","","","","","","","true","4","4","ability","1063","positive","精干","","","","","","","","","","","","","","","","",""
"null","","null","html-keyboard-response","164","401034","0.0-6.0-0.0-8.0-0.28","3","3","3","3","3","3","3","3","3","3","4","4","1","4","2","4","3","2","3","1","5","5","5","5","5","5","4","5","5","1","0","1","0","1","1","1","1","1","1","1","1","0","0","1","2","4","5","5","5","5","4","5","5","4","5","789938022656385026","焦","484","","","","","","","","","","","","","","","","","","","","","","","","","","","","","","","","","","","","","","","","","",""
"821","<p style=""color:rgb(150, 250, 100); font-size: 35px;"">本人的</p>","i","categorize-html","165","401858","0.0-6.0-0.0-8.0-1.28","3","3","3","3","3","3","3","3","3","3","4","4","1","4","2","4","3","2","3","1","5","5","5","5","5","5","4","5","5","1","0","1","0","1","1","1","1","1","1","1","1","0","0","1","2","4","5","5","5","5","4","5","5","4","5","789938022656385026","焦","484","","","","","","","","","","","","","","","","","","","true","4","4","ability","821","self","本人的","","","","","","","","","","","","","","","","",""
"null","","null","html-keyboard-response","166","402118","0.0-6.0-0.0-8.0-0.29","3","3","3","3","3","3","3","3","3","3","4","4","1","4","2","4","3","2","3","1","5","5","5","5","5","5","4","5","5","1","0","1","0","1","1","1","1","1","1","1","1","0","0","1","2","4","5","5","5","5","4","5","5","4","5","789938022656385026","焦","484","","","","","","","","","","","","","","","","","","","","","","","","","","","","","","","","","","","","","","","","","",""
"1778","<p style=""color:white; font-size: 35px;"">蠢笨</p>","e","categorize-html","167","403899","0.0-6.0-0.0-8.0-1.29","3","3","3","3","3","3","3","3","3","3","4","4","1","4","2","4","3","2","3","1","5","5","5","5","5","5","4","5","5","1","0","1","0","1","1","1","1","1","1","1","1","0","0","1","2","4","5","5","5","5","4","5","5","4","5","789938022656385026","焦","484","","","","","","","","","","","","","","","","","","","true","4","4","ability","1778","negative","蠢笨","","","","","","","","","","","","","","","","",""
"null","","null","html-keyboard-response","168","404157","0.0-6.0-0.0-8.0-0.30","3","3","3","3","3","3","3","3","3","3","4","4","1","4","2","4","3","2","3","1","5","5","5","5","5","5","4","5","5","1","0","1","0","1","1","1","1","1","1","1","1","0","0","1","2","4","5","5","5","5","4","5","5","4","5","789938022656385026","焦","484","","","","","","","","","","","","","","","","","","","","","","","","","","","","","","","","","","","","","","","","","",""
"911","<p style=""color:rgb(150, 250, 100); font-size: 35px;"">他人的</p>","e","categorize-html","169","405071","0.0-6.0-0.0-8.0-1.30","3","3","3","3","3","3","3","3","3","3","4","4","1","4","2","4","3","2","3","1","5","5","5","5","5","5","4","5","5","1","0","1","0","1","1","1","1","1","1","1","1","0","0","1","2","4","5","5","5","5","4","5","5","4","5","789938022656385026","焦","484","","","","","","","","","","","","","","","","","","","true","4","4","ability","911","other","他人的","","","","","","","","","","","","","","","","",""
"null","","null","html-keyboard-response","170","405325","0.0-6.0-0.0-8.0-0.31","3","3","3","3","3","3","3","3","3","3","4","4","1","4","2","4","3","2","3","1","5","5","5","5","5","5","4","5","5","1","0","1","0","1","1","1","1","1","1","1","1","0","0","1","2","4","5","5","5","5","4","5","5","4","5","789938022656385026","焦","484","","","","","","","","","","","","","","","","","","","","","","","","","","","","","","","","","","","","","","","","","",""
"740","<p style=""color:white; font-size: 35px;"">能干</p>","i","categorize-html","171","406068","0.0-6.0-0.0-8.0-1.31","3","3","3","3","3","3","3","3","3","3","4","4","1","4","2","4","3","2","3","1","5","5","5","5","5","5","4","5","5","1","0","1","0","1","1","1","1","1","1","1","1","0","0","1","2","4","5","5","5","5","4","5","5","4","5","789938022656385026","焦","484","","","","","","","","","","","","","","","","","","","true","4","4","ability","740","positive","能干","","","","","","","","","","","","","","","","",""
"null","","null","html-keyboard-response","172","406325","0.0-6.0-0.0-8.0-0.32","3","3","3","3","3","3","3","3","3","3","4","4","1","4","2","4","3","2","3","1","5","5","5","5","5","5","4","5","5","1","0","1","0","1","1","1","1","1","1","1","1","0","0","1","2","4","5","5","5","5","4","5","5","4","5","789938022656385026","焦","484","","","","","","","","","","","","","","","","","","","","","","","","","","","","","","","","","","","","","","","","","",""
"939","<p style=""color:rgb(150, 250, 100); font-size: 35px;"">他</p>","e","categorize-html","173","407268","0.0-6.0-0.0-8.0-1.32","3","3","3","3","3","3","3","3","3","3","4","4","1","4","2","4","3","2","3","1","5","5","5","5","5","5","4","5","5","1","0","1","0","1","1","1","1","1","1","1","1","0","0","1","2","4","5","5","5","5","4","5","5","4","5","789938022656385026","焦","484","","","","","","","","","","","","","","","","","","","true","4","4","ability","939","other","他","","","","","","","","","","","","","","","","",""
"null","","null","html-keyboard-response","174","407526","0.0-6.0-0.0-8.0-0.33","3","3","3","3","3","3","3","3","3","3","4","4","1","4","2","4","3","2","3","1","5","5","5","5","5","5","4","5","5","1","0","1","0","1","1","1","1","1","1","1","1","0","0","1","2","4","5","5","5","5","4","5","5","4","5","789938022656385026","焦","484","","","","","","","","","","","","","","","","","","","","","","","","","","","","","","","","","","","","","","","","","",""
"1175","<p style=""color:white; font-size: 35px;"">拙笨</p>","e","categorize-html","175","408703","0.0-6.0-0.0-8.0-1.33","3","3","3","3","3","3","3","3","3","3","4","4","1","4","2","4","3","2","3","1","5","5","5","5","5","5","4","5","5","1","0","1","0","1","1","1","1","1","1","1","1","0","0","1","2","4","5","5","5","5","4","5","5","4","5","789938022656385026","焦","484","","","","","","","","","","","","","","","","","","","true","4","4","ability","1175","negative","拙笨","","","","","","","","","","","","","","","","",""
"null","","null","html-keyboard-response","176","408958","0.0-6.0-0.0-8.0-0.34","3","3","3","3","3","3","3","3","3","3","4","4","1","4","2","4","3","2","3","1","5","5","5","5","5","5","4","5","5","1","0","1","0","1","1","1","1","1","1","1","1","0","0","1","2","4","5","5","5","5","4","5","5","4","5","789938022656385026","焦","484","","","","","","","","","","","","","","","","","","","","","","","","","","","","","","","","","","","","","","","","","",""
"887","<p style=""color:rgb(150, 250, 100); font-size: 35px;"">我</p>","i","categorize-html","177","409848","0.0-6.0-0.0-8.0-1.34","3","3","3","3","3","3","3","3","3","3","4","4","1","4","2","4","3","2","3","1","5","5","5","5","5","5","4","5","5","1","0","1","0","1","1","1","1","1","1","1","1","0","0","1","2","4","5","5","5","5","4","5","5","4","5","789938022656385026","焦","484","","","","","","","","","","","","","","","","","","","true","4","4","ability","887","self","我","","","","","","","","","","","","","","","","",""
"null","","null","html-keyboard-response","178","410102","0.0-6.0-0.0-8.0-0.35","3","3","3","3","3","3","3","3","3","3","4","4","1","4","2","4","3","2","3","1","5","5","5","5","5","5","4","5","5","1","0","1","0","1","1","1","1","1","1","1","1","0","0","1","2","4","5","5","5","5","4","5","5","4","5","789938022656385026","焦","484","","","","","","","","","","","","","","","","","","","","","","","","","","","","","","","","","","","","","","","","","",""
"893","<p style=""color:white; font-size: 35px;"">能干</p>","i","categorize-html","179","410998","0.0-6.0-0.0-8.0-1.35","3","3","3","3","3","3","3","3","3","3","4","4","1","4","2","4","3","2","3","1","5","5","5","5","5","5","4","5","5","1","0","1","0","1","1","1","1","1","1","1","1","0","0","1","2","4","5","5","5","5","4","5","5","4","5","789938022656385026","焦","484","","","","","","","","","","","","","","","","","","","true","4","4","ability","893","positive","能干","","","","","","","","","","","","","","","","",""
"null","","null","html-keyboard-response","180","411253","0.0-6.0-0.0-8.0-0.36","3","3","3","3","3","3","3","3","3","3","4","4","1","4","2","4","3","2","3","1","5","5","5","5","5","5","4","5","5","1","0","1","0","1","1","1","1","1","1","1","1","0","0","1","2","4","5","5","5","5","4","5","5","4","5","789938022656385026","焦","484","","","","","","","","","","","","","","","","","","","","","","","","","","","","","","","","","","","","","","","","","",""
"854","<p style=""color:rgb(150, 250, 100); font-size: 35px;"">他的</p>","e","categorize-html","181","412111","0.0-6.0-0.0-8.0-1.36","3","3","3","3","3","3","3","3","3","3","4","4","1","4","2","4","3","2","3","1","5","5","5","5","5","5","4","5","5","1","0","1","0","1","1","1","1","1","1","1","1","0","0","1","2","4","5","5","5","5","4","5","5","4","5","789938022656385026","焦","484","","","","","","","","","","","","","","","","","","","true","4","4","ability","854","other","他的","","","","","","","","","","","","","","","","",""
"null","","null","html-keyboard-response","182","412366","0.0-6.0-0.0-8.0-0.37","3","3","3","3","3","3","3","3","3","3","4","4","1","4","2","4","3","2","3","1","5","5","5","5","5","5","4","5","5","1","0","1","0","1","1","1","1","1","1","1","1","0","0","1","2","4","5","5","5","5","4","5","5","4","5","789938022656385026","焦","484","","","","","","","","","","","","","","","","","","","","","","","","","","","","","","","","","","","","","","","","","",""
"1021","<p style=""color:white; font-size: 35px;"">全才</p>","i","categorize-html","183","413390","0.0-6.0-0.0-8.0-1.37","3","3","3","3","3","3","3","3","3","3","4","4","1","4","2","4","3","2","3","1","5","5","5","5","5","5","4","5","5","1","0","1","0","1","1","1","1","1","1","1","1","0","0","1","2","4","5","5","5","5","4","5","5","4","5","789938022656385026","焦","484","","","","","","","","","","","","","","","","","","","true","4","4","ability","1021","positive","全才","","","","","","","","","","","","","","","","",""
"null","","null","html-keyboard-response","184","413645","0.0-6.0-0.0-8.0-0.38","3","3","3","3","3","3","3","3","3","3","4","4","1","4","2","4","3","2","3","1","5","5","5","5","5","5","4","5","5","1","0","1","0","1","1","1","1","1","1","1","1","0","0","1","2","4","5","5","5","5","4","5","5","4","5","789938022656385026","焦","484","","","","","","","","","","","","","","","","","","","","","","","","","","","","","","","","","","","","","","","","","",""
"1149","<p style=""color:rgb(150, 250, 100); font-size: 35px;"">本人的</p>","i","categorize-html","185","414797","0.0-6.0-0.0-8.0-1.38","3","3","3","3","3","3","3","3","3","3","4","4","1","4","2","4","3","2","3","1","5","5","5","5","5","5","4","5","5","1","0","1","0","1","1","1","1","1","1","1","1","0","0","1","2","4","5","5","5","5","4","5","5","4","5","789938022656385026","焦","484","","","","","","","","","","","","","","","","","","","true","4","4","ability","1149","self","本人的","","","","","","","","","","","","","","","","",""
"null","","null","html-keyboard-response","186","415054","0.0-6.0-0.0-8.0-0.39","3","3","3","3","3","3","3","3","3","3","4","4","1","4","2","4","3","2","3","1","5","5","5","5","5","5","4","5","5","1","0","1","0","1","1","1","1","1","1","1","1","0","0","1","2","4","5","5","5","5","4","5","5","4","5","789938022656385026","焦","484","","","","","","","","","","","","","","","","","","","","","","","","","","","","","","","","","","","","","","","","","",""
"933","<p style=""color:white; font-size: 35px;"">愚钝</p>","e","categorize-html","187","415990","0.0-6.0-0.0-8.0-1.39","3","3","3","3","3","3","3","3","3","3","4","4","1","4","2","4","3","2","3","1","5","5","5","5","5","5","4","5","5","1","0","1","0","1","1","1","1","1","1","1","1","0","0","1","2","4","5","5","5","5","4","5","5","4","5","789938022656385026","焦","484","","","","","","","","","","","","","","","","","","","true","4","4","ability","933","negative","愚钝","","","","","","","","","","","","","","","","",""
"null","","null","html-keyboard-response","188","416246","0.0-6.0-0.0-8.0-0.40","3","3","3","3","3","3","3","3","3","3","4","4","1","4","2","4","3","2","3","1","5","5","5","5","5","5","4","5","5","1","0","1","0","1","1","1","1","1","1","1","1","0","0","1","2","4","5","5","5","5","4","5","5","4","5","789938022656385026","焦","484","","","","","","","","","","","","","","","","","","","","","","","","","","","","","","","","","","","","","","","","","",""
"1041","<p style=""color:rgb(150, 250, 100); font-size: 35px;"">我</p>","i","categorize-html","189","417289","0.0-6.0-0.0-8.0-1.40","3","3","3","3","3","3","3","3","3","3","4","4","1","4","2","4","3","2","3","1","5","5","5","5","5","5","4","5","5","1","0","1","0","1","1","1","1","1","1","1","1","0","0","1","2","4","5","5","5","5","4","5","5","4","5","789938022656385026","焦","484","","","","","","","","","","","","","","","","","","","true","4","4","ability","1041","self","我","","","","","","","","","","","","","","","","",""
"null","","null","html-keyboard-response","190","417542","0.0-6.0-0.0-8.0-0.41","3","3","3","3","3","3","3","3","3","3","4","4","1","4","2","4","3","2","3","1","5","5","5","5","5","5","4","5","5","1","0","1","0","1","1","1","1","1","1","1","1","0","0","1","2","4","5","5","5","5","4","5","5","4","5","789938022656385026","焦","484","","","","","","","","","","","","","","","","","","","","","","","","","","","","","","","","","","","","","","","","","",""
"740","<p style=""color:white; font-size: 35px;"">高效</p>","i","categorize-html","191","418284","0.0-6.0-0.0-8.0-1.41","3","3","3","3","3","3","3","3","3","3","4","4","1","4","2","4","3","2","3","1","5","5","5","5","5","5","4","5","5","1","0","1","0","1","1","1","1","1","1","1","1","0","0","1","2","4","5","5","5","5","4","5","5","4","5","789938022656385026","焦","484","","","","","","","","","","","","","","","","","","","true","4","4","ability","740","positive","高效","","","","","","","","","","","","","","","","",""
"null","","null","html-keyboard-response","192","418542","0.0-6.0-0.0-8.0-0.42","3","3","3","3","3","3","3","3","3","3","4","4","1","4","2","4","3","2","3","1","5","5","5","5","5","5","4","5","5","1","0","1","0","1","1","1","1","1","1","1","1","0","0","1","2","4","5","5","5","5","4","5","5","4","5","789938022656385026","焦","484","","","","","","","","","","","","","","","","","","","","","","","","","","","","","","","","","","","","","","","","","",""
