"rt","stimulus","response","trial_type","trial_index","time_elapsed","internal_node_id","ses_1","ses_2","ses_3","ses_4","ses_5","ses_6","ses_7","ses_8","ses_9","ses_10","coreself_1","coreself_2","coreself_3","coreself_4","coreself_5","coreself_6","coreself_7","coreself_8","coreself_9","coreself_10","SGPS_1","SGPS_2","SGPS_3","SGPS_4","SGPS_5","SGPS_6","SGPS_7","SGPS_8","SGPS_9","NPI1","NPI2","NPI3","NPI4","NPI5","NPI6","NPI7","NPI8","NPI9","NPI10","NPI11","NPI12","NPI13","NPI14","NPI15","hsns_1","hsns_2","hsns_3","hsns_4","hsns_5","trap1","hsns_6","hsns_7","hsns_8","hsns_9","hsns_10","subj_idx","friend_name","ParticipantID","value","success","user_agent","responses","item_order","radio_event_ids","radio_event_times","key_event_times","mouse_event_times","straightlining","zigzagging","honeypot","timeout","failed_images","failed_audio","failed_video","version_attrib","version_target","correct","IAT","screen_id","task_id","RT","condition","word","varname","summary","version_attrib2","version_target2","time_stamp","view_history","response_type","key_press","avg_frame_time","center_x","center_y","correct_response","identity","Image","question_order","correct_answer","trap1_item"
"8962","
   <p><div style = ""color: white;font-size:25px;"">您好，欢迎参加本次实验。</div> </p>
   <p><div style = ""color: white;font-size:25px;"">为充分保障您的权利，请确保您已经知晓并同意《参与实验同意书》以及《数据公开知情同意书》。</div></p>
   <p><div style = ""color: white;font-size:25px;"">如果您未见过上述内容，请咨询实验员。</div></p>
   <p><div style = ""color: white;font-size:25px;"">如果您选择继续实验，则表示您已经清楚两份知情同意书的内容并同意。</div></p>
   <p><div style = ""color: pink;font-size:30px;"">请确保您记得day0的实验编号，您将在本次实验输入该编号，若您忘记，请咨询实验员后作答。</div></p>
   <p><div style = ""color: lightblue;font-size:25px;"">请您尽可能认真地作答，我们将依据您在各问卷和按键任务中的作答质量发放报酬。</div></p>
   <p> <div style = ""color: green;font-size:25px;""><按空格键至下页></div> </p>
   "," ","html-keyboard-response","0","8967","0.0-0.0","3","4","4","3","4","3","4","3","4","4","4","5","4","4","5","4","5","4","5","5","2","1","1","2","2","1","2","1","2","0","0","1","1","0","0","0","1","0","1","1","0","1","0","1","5","2","4","2","4","","2","3","4","4","2","768791430436229121","叶","403","","","","","","","","","","","","","","","","","","","","","","","","","","","","","","","","","","","","","","","","","",""
"","","","call-function","1","8969","0.0-1.0-0.0","3","4","4","3","4","3","4","3","4","4","4","5","4","4","5","4","5","4","5","5","2","1","1","2","2","1","2","1","2","0","0","1","1","0","0","0","1","0","1","1","0","1","0","1","5","2","4","2","4","","2","3","4","4","2","768791430436229121","叶","403","","","","","","","","","","","","","","","","","","","","","","","","","","","","","","","","","","","","","","","","","",""
"45365","","{""friend_name"":""叶"",""ParticipantID"":""403""}","survey-html-form","2","54335","0.0-1.0-1.0","3","4","4","3","4","3","4","3","4","4","4","5","4","4","5","4","5","4","5","5","2","1","1","2","2","1","2","1","2","0","0","1","1","0","0","0","1","0","1","1","0","1","0","1","5","2","4","2","4","","2","3","4","4","2","768791430436229121","叶","403","","","","","","","","","","","","","","","","","","","","","","","","","","","","","","","","","","","","","","","","","",""
"","","","fullscreen","3","81367","0.0-2.0","3","4","4","3","4","3","4","3","4","4","4","5","4","4","5","4","5","4","5","5","2","1","1","2","2","1","2","1","2","0","0","1","1","0","0","0","1","0","1","1","0","1","0","1","5","2","4","2","4","","2","3","4","4","2","768791430436229121","叶","403","","true","{}","","","","","","","","","","","","","","","","","","","","","","","","","","","","","","","","","","","","","","",""
"31232.39999999851","","{""Q01"":""3"",""Q02"":""4"",""Q03"":""4"",""Q04"":""3"",""Q05"":""4"",""Q06"":""3"",""Q07"":""4"",""Q08"":""3"",""Q09"":""4"",""Q10"":""4""}","survey-template","4","112603","0.0-3.0","3","4","4","3","4","3","4","3","4","4","4","5","4","4","5","4","5","4","5","5","2","1","1","2","2","1","2","1","2","0","0","1","1","0","0","0","1","0","1","1","0","1","0","1","5","2","4","2","4","","2","3","4","4","2","768791430436229121","叶","403","","","","{""Q01"":""3"",""Q02"":""4"",""Q03"":""4"",""Q04"":""3"",""Q05"":""4"",""Q06"":""3"",""Q07"":""4"",""Q08"":""3"",""Q09"":""4"",""Q10"":""4""}","[0,1,2,3,4,5,6,7,8,9]","[""Q01"",""Q02"",""Q03"",""Q04"",""Q05"",""Q06"",""Q07"",""Q08"",""Q09"",""Q10""]","[6629.79999999702,7966.89999999851,9833.70000000298,10958.60000000149,12986.70000000298,14128.70000000298,15624,24523.70000000298,26059.39999999851,27186]","[]","[6629.79999999702,7966.89999999851,9833.70000000298,10958.60000000149,12986.70000000298,14128.70000000298,15624,24523.70000000298,26059.39999999851,27186,31230.79999999702]","0.4","0.4444444444444444","0","","","","","","","","","","","","","","","","","","","","","","","","","","","","","",""
"21821.5","","{""Q01"":""4"",""Q02"":""5"",""Q03"":""4"",""Q04"":""4"",""Q05"":""5"",""Q06"":""4"",""Q07"":""5"",""Q08"":""4"",""Q09"":""5"",""Q10"":""5""}","survey-template","5","134430","0.0-4.0","3","4","4","3","4","3","4","3","4","4","4","5","4","4","5","4","5","4","5","5","2","1","1","2","2","1","2","1","2","0","0","1","1","0","0","0","1","0","1","1","0","1","0","1","5","2","4","2","4","","2","3","4","4","2","768791430436229121","叶","403","","","","{""Q01"":""4"",""Q02"":""5"",""Q03"":""4"",""Q04"":""4"",""Q05"":""5"",""Q06"":""4"",""Q07"":""5"",""Q08"":""4"",""Q09"":""5"",""Q10"":""5""}","[0,1,2,3,4,5,6,7,8,9]","[""Q01"",""Q02"",""Q03"",""Q04"",""Q05"",""Q06"",""Q07"",""Q08"",""Q09"",""Q10""]","[3831.10000000149,5978.10000000149,7203.80000000447,8594,10181.10000000149,11780.90000000596,13153.10000000149,15178.70000000298,18394.30000000447,20754.40000000596]","[]","[3831.10000000149,5978.10000000149,7203.80000000447,8594,10181.10000000149,11780.90000000596,13153.10000000149,15178.70000000298,18394.30000000447,20754.40000000596,21820]","0.4","0.3333333333333333","0","","","","","","","","","","","","","","","","","","","","","","","","","","","","","",""
"","","","preload","6","134781","0.0-5.0","3","4","4","3","4","3","4","3","4","4","4","5","4","4","5","4","5","4","5","5","2","1","1","2","2","1","2","1","2","0","0","1","1","0","0","0","1","0","1","1","0","1","0","1","5","2","4","2","4","","2","3","4","4","2","768791430436229121","叶","403","","true","","","","","","","","","","","false","[]","[]","[]","","","","","","","","","","","","","","","","","","","","","","","","","",""
"17658","
    <h3>词语分类任务</h3>
    <p>在接下来的任务中，你需要对一系列词语进行分类。</p>
    <p>请先熟悉这些词语，这有利于你完成接下来的任务。</p>
    <table align=""center"" border=1 cellpadding=3 cellspacing=0>
    <tr> <th>类别</th> <th>词语</th> </tr>
    <tr> <td>&emsp;积极&emsp;</td> <td>&emsp;能干、全能、全才、高效、精干、天才&emsp;</td> </tr>
    <tr> <td>&emsp;消极&emsp;</td> <td>&emsp;无能、低能、废物、拙笨、愚钝、蠢笨&emsp;</td> </tr>
    <tr> <td>&emsp;自我&emsp;</td> <td>&emsp;我、我的、自己、自己的、本人、本人的&emsp;</td> </tr>
    <tr> <td>&emsp;他人&emsp;</td> <td>&emsp;他、他的、别人、别人的、他人、他人的&emsp;</td> </tr>
    </table><br/>","0","html-button-response","7","152441","0.0-6.0-0.0-0.0","3","4","4","3","4","3","4","3","4","4","4","5","4","4","5","4","5","4","5","5","2","1","1","2","2","1","2","1","2","0","0","1","1","0","0","0","1","0","1","1","0","1","0","1","5","2","4","2","4","","2","3","4","4","2","768791430436229121","叶","403","","","","","","","","","","","","","","","","","1","1","","","","","","","","","","","","","","","","","","","","","","","",""
"14845","
    <div class=""tag-bottom"">
    <p> —— 任务1：对“自我”词和“他人”词分类 ——<p/>
    不同词语会出现在屏幕中央，类别标签将始终显示在屏幕上方<p/>   
    <span style=""color:#FFD866""><b>请根据上方标签的提示，尽可能正确并且快速地做出按键反应</b></span><p/>
    当按键错误时屏幕中会出现<span style=""color:red""> X </span>，需要按另一个键纠正才能继续<br/><p/>
    请把双手食指分别放在键盘的“E”键和“I”键上<p/>
    按<空格键>开始
    </p></div>"," ","html-keyboard-response","8","167290","0.0-6.0-0.0-1.0","3","4","4","3","4","3","4","3","4","4","4","5","4","4","5","4","5","4","5","5","2","1","1","2","2","1","2","1","2","0","0","1","1","0","0","0","1","0","1","1","0","1","0","1","5","2","4","2","4","","2","3","4","4","2","768791430436229121","叶","403","","","","","","","","","","","","","","","","","","","","","","","","","","","","","","","","","","","","","","","","","",""
"null","","null","html-keyboard-response","9","167542","0.0-6.0-0.0-2.0-0.0","3","4","4","3","4","3","4","3","4","4","4","5","4","4","5","4","5","4","5","5","2","1","1","2","2","1","2","1","2","0","0","1","1","0","0","0","1","0","1","1","0","1","0","1","5","2","4","2","4","","2","3","4","4","2","768791430436229121","叶","403","","","","","","","","","","","","","","","","","","","","","","","","","","","","","","","","","","","","","","","","","",""
"1780","<p style=""color:rgb(150, 250, 100); font-size: 35px;"">本人</p>","e","categorize-html","10","169328","0.0-6.0-0.0-2.0-1.0","3","4","4","3","4","3","4","3","4","4","4","5","4","4","5","4","5","4","5","5","2","1","1","2","2","1","2","1","2","0","0","1","1","0","0","0","1","0","1","1","0","1","0","1","5","2","4","2","4","","2","3","4","4","2","768791430436229121","叶","403","","","","","","","","","","","","","","","","","","","true","1","1","ability","1780","self","本人","","","","","","","","","","","","","","","","",""
"null","","null","html-keyboard-response","11","169580","0.0-6.0-0.0-2.0-0.1","3","4","4","3","4","3","4","3","4","4","4","5","4","4","5","4","5","4","5","5","2","1","1","2","2","1","2","1","2","0","0","1","1","0","0","0","1","0","1","1","0","1","0","1","5","2","4","2","4","","2","3","4","4","2","768791430436229121","叶","403","","","","","","","","","","","","","","","","","","","","","","","","","","","","","","","","","","","","","","","","","",""
"1914","<p style=""color:rgb(150, 250, 100); font-size: 35px;"">别人的</p>","i","categorize-html","12","171496","0.0-6.0-0.0-2.0-1.1","3","4","4","3","4","3","4","3","4","4","4","5","4","4","5","4","5","4","5","5","2","1","1","2","2","1","2","1","2","0","0","1","1","0","0","0","1","0","1","1","0","1","0","1","5","2","4","2","4","","2","3","4","4","2","768791430436229121","叶","403","","","","","","","","","","","","","","","","","","","true","1","1","ability","1914","other","别人的","","","","","","","","","","","","","","","","",""
"null","","null","html-keyboard-response","13","171747","0.0-6.0-0.0-2.0-0.2","3","4","4","3","4","3","4","3","4","4","4","5","4","4","5","4","5","4","5","5","2","1","1","2","2","1","2","1","2","0","0","1","1","0","0","0","1","0","1","1","0","1","0","1","5","2","4","2","4","","2","3","4","4","2","768791430436229121","叶","403","","","","","","","","","","","","","","","","","","","","","","","","","","","","","","","","","","","","","","","","","",""
"771","<p style=""color:rgb(150, 250, 100); font-size: 35px;"">别人</p>","i","categorize-html","14","172520","0.0-6.0-0.0-2.0-1.2","3","4","4","3","4","3","4","3","4","4","4","5","4","4","5","4","5","4","5","5","2","1","1","2","2","1","2","1","2","0","0","1","1","0","0","0","1","0","1","1","0","1","0","1","5","2","4","2","4","","2","3","4","4","2","768791430436229121","叶","403","","","","","","","","","","","","","","","","","","","true","1","1","ability","771","other","别人","","","","","","","","","","","","","","","","",""
"null","","null","html-keyboard-response","15","172772","0.0-6.0-0.0-2.0-0.3","3","4","4","3","4","3","4","3","4","4","4","5","4","4","5","4","5","4","5","5","2","1","1","2","2","1","2","1","2","0","0","1","1","0","0","0","1","0","1","1","0","1","0","1","5","2","4","2","4","","2","3","4","4","2","768791430436229121","叶","403","","","","","","","","","","","","","","","","","","","","","","","","","","","","","","","","","","","","","","","","","",""
"915","<p style=""color:rgb(150, 250, 100); font-size: 35px;"">他人</p>","i","categorize-html","16","173688","0.0-6.0-0.0-2.0-1.3","3","4","4","3","4","3","4","3","4","4","4","5","4","4","5","4","5","4","5","5","2","1","1","2","2","1","2","1","2","0","0","1","1","0","0","0","1","0","1","1","0","1","0","1","5","2","4","2","4","","2","3","4","4","2","768791430436229121","叶","403","","","","","","","","","","","","","","","","","","","true","1","1","ability","915","other","他人","","","","","","","","","","","","","","","","",""
"null","","null","html-keyboard-response","17","173939","0.0-6.0-0.0-2.0-0.4","3","4","4","3","4","3","4","3","4","4","4","5","4","4","5","4","5","4","5","5","2","1","1","2","2","1","2","1","2","0","0","1","1","0","0","0","1","0","1","1","0","1","0","1","5","2","4","2","4","","2","3","4","4","2","768791430436229121","叶","403","","","","","","","","","","","","","","","","","","","","","","","","","","","","","","","","","","","","","","","","","",""
"601","<p style=""color:rgb(150, 250, 100); font-size: 35px;"">我的</p>","e","categorize-html","18","174542","0.0-6.0-0.0-2.0-1.4","3","4","4","3","4","3","4","3","4","4","4","5","4","4","5","4","5","4","5","5","2","1","1","2","2","1","2","1","2","0","0","1","1","0","0","0","1","0","1","1","0","1","0","1","5","2","4","2","4","","2","3","4","4","2","768791430436229121","叶","403","","","","","","","","","","","","","","","","","","","true","1","1","ability","601","self","我的","","","","","","","","","","","","","","","","",""
"null","","null","html-keyboard-response","19","174794","0.0-6.0-0.0-2.0-0.5","3","4","4","3","4","3","4","3","4","4","4","5","4","4","5","4","5","4","5","5","2","1","1","2","2","1","2","1","2","0","0","1","1","0","0","0","1","0","1","1","0","1","0","1","5","2","4","2","4","","2","3","4","4","2","768791430436229121","叶","403","","","","","","","","","","","","","","","","","","","","","","","","","","","","","","","","","","","","","","","","","",""
"1140","<p style=""color:rgb(150, 250, 100); font-size: 35px;"">他人的</p>","i","categorize-html","20","175934","0.0-6.0-0.0-2.0-1.5","3","4","4","3","4","3","4","3","4","4","4","5","4","4","5","4","5","4","5","5","2","1","1","2","2","1","2","1","2","0","0","1","1","0","0","0","1","0","1","1","0","1","0","1","5","2","4","2","4","","2","3","4","4","2","768791430436229121","叶","403","","","","","","","","","","","","","","","","","","","true","1","1","ability","1140","other","他人的","","","","","","","","","","","","","","","","",""
"null","","null","html-keyboard-response","21","176186","0.0-6.0-0.0-2.0-0.6","3","4","4","3","4","3","4","3","4","4","4","5","4","4","5","4","5","4","5","5","2","1","1","2","2","1","2","1","2","0","0","1","1","0","0","0","1","0","1","1","0","1","0","1","5","2","4","2","4","","2","3","4","4","2","768791430436229121","叶","403","","","","","","","","","","","","","","","","","","","","","","","","","","","","","","","","","","","","","","","","","",""
"662","<p style=""color:rgb(150, 250, 100); font-size: 35px;"">自己</p>","e","categorize-html","22","176849","0.0-6.0-0.0-2.0-1.6","3","4","4","3","4","3","4","3","4","4","4","5","4","4","5","4","5","4","5","5","2","1","1","2","2","1","2","1","2","0","0","1","1","0","0","0","1","0","1","1","0","1","0","1","5","2","4","2","4","","2","3","4","4","2","768791430436229121","叶","403","","","","","","","","","","","","","","","","","","","true","1","1","ability","662","self","自己","","","","","","","","","","","","","","","","",""
"null","","null","html-keyboard-response","23","177100","0.0-6.0-0.0-2.0-0.7","3","4","4","3","4","3","4","3","4","4","4","5","4","4","5","4","5","4","5","5","2","1","1","2","2","1","2","1","2","0","0","1","1","0","0","0","1","0","1","1","0","1","0","1","5","2","4","2","4","","2","3","4","4","2","768791430436229121","叶","403","","","","","","","","","","","","","","","","","","","","","","","","","","","","","","","","","","","","","","","","","",""
"939","<p style=""color:rgb(150, 250, 100); font-size: 35px;"">我</p>","e","categorize-html","24","178041","0.0-6.0-0.0-2.0-1.7","3","4","4","3","4","3","4","3","4","4","4","5","4","4","5","4","5","4","5","5","2","1","1","2","2","1","2","1","2","0","0","1","1","0","0","0","1","0","1","1","0","1","0","1","5","2","4","2","4","","2","3","4","4","2","768791430436229121","叶","403","","","","","","","","","","","","","","","","","","","true","1","1","ability","939","self","我","","","","","","","","","","","","","","","","",""
"null","","null","html-keyboard-response","25","178293","0.0-6.0-0.0-2.0-0.8","3","4","4","3","4","3","4","3","4","4","4","5","4","4","5","4","5","4","5","5","2","1","1","2","2","1","2","1","2","0","0","1","1","0","0","0","1","0","1","1","0","1","0","1","5","2","4","2","4","","2","3","4","4","2","768791430436229121","叶","403","","","","","","","","","","","","","","","","","","","","","","","","","","","","","","","","","","","","","","","","","",""
"766","<p style=""color:rgb(150, 250, 100); font-size: 35px;"">自己的</p>","e","categorize-html","26","179060","0.0-6.0-0.0-2.0-1.8","3","4","4","3","4","3","4","3","4","4","4","5","4","4","5","4","5","4","5","5","2","1","1","2","2","1","2","1","2","0","0","1","1","0","0","0","1","0","1","1","0","1","0","1","5","2","4","2","4","","2","3","4","4","2","768791430436229121","叶","403","","","","","","","","","","","","","","","","","","","true","1","1","ability","766","self","自己的","","","","","","","","","","","","","","","","",""
"null","","null","html-keyboard-response","27","179312","0.0-6.0-0.0-2.0-0.9","3","4","4","3","4","3","4","3","4","4","4","5","4","4","5","4","5","4","5","5","2","1","1","2","2","1","2","1","2","0","0","1","1","0","0","0","1","0","1","1","0","1","0","1","5","2","4","2","4","","2","3","4","4","2","768791430436229121","叶","403","","","","","","","","","","","","","","","","","","","","","","","","","","","","","","","","","","","","","","","","","",""
"828","<p style=""color:rgb(150, 250, 100); font-size: 35px;"">本人的</p>","e","categorize-html","28","180141","0.0-6.0-0.0-2.0-1.9","3","4","4","3","4","3","4","3","4","4","4","5","4","4","5","4","5","4","5","5","2","1","1","2","2","1","2","1","2","0","0","1","1","0","0","0","1","0","1","1","0","1","0","1","5","2","4","2","4","","2","3","4","4","2","768791430436229121","叶","403","","","","","","","","","","","","","","","","","","","true","1","1","ability","828","self","本人的","","","","","","","","","","","","","","","","",""
"null","","null","html-keyboard-response","29","180393","0.0-6.0-0.0-2.0-0.10","3","4","4","3","4","3","4","3","4","4","4","5","4","4","5","4","5","4","5","5","2","1","1","2","2","1","2","1","2","0","0","1","1","0","0","0","1","0","1","1","0","1","0","1","5","2","4","2","4","","2","3","4","4","2","768791430436229121","叶","403","","","","","","","","","","","","","","","","","","","","","","","","","","","","","","","","","","","","","","","","","",""
"871","<p style=""color:rgb(150, 250, 100); font-size: 35px;"">他</p>","i","categorize-html","30","181265","0.0-6.0-0.0-2.0-1.10","3","4","4","3","4","3","4","3","4","4","4","5","4","4","5","4","5","4","5","5","2","1","1","2","2","1","2","1","2","0","0","1","1","0","0","0","1","0","1","1","0","1","0","1","5","2","4","2","4","","2","3","4","4","2","768791430436229121","叶","403","","","","","","","","","","","","","","","","","","","true","1","1","ability","871","other","他","","","","","","","","","","","","","","","","",""
"null","","null","html-keyboard-response","31","181517","0.0-6.0-0.0-2.0-0.11","3","4","4","3","4","3","4","3","4","4","4","5","4","4","5","4","5","4","5","5","2","1","1","2","2","1","2","1","2","0","0","1","1","0","0","0","1","0","1","1","0","1","0","1","5","2","4","2","4","","2","3","4","4","2","768791430436229121","叶","403","","","","","","","","","","","","","","","","","","","","","","","","","","","","","","","","","","","","","","","","","",""
"584","<p style=""color:rgb(150, 250, 100); font-size: 35px;"">他的</p>","i","categorize-html","32","182102","0.0-6.0-0.0-2.0-1.11","3","4","4","3","4","3","4","3","4","4","4","5","4","4","5","4","5","4","5","5","2","1","1","2","2","1","2","1","2","0","0","1","1","0","0","0","1","0","1","1","0","1","0","1","5","2","4","2","4","","2","3","4","4","2","768791430436229121","叶","403","","","","","","","","","","","","","","","","","","","true","1","1","ability","584","other","他的","","","","","","","","","","","","","","","","",""
"6520","
    <div class=""tag-bottom""><p>
    —— 任务2：对“积极”词和“消极”词分类 ——<p/>   
    <span style=""color:#78DCE8""><b>注意上方，类别标签和需要分类的词语都已经改变</b></span><p/>
    <span style=""color:#FFD866""><b>请根据上方标签的提示，尽可能正确并且快速地做出按键反应</b></span><p/>
    当按键错误时屏幕中会出现<span style=""color:red""> X </span>，需要按另一个键纠正才能继续<br/><p/>
    请把双手食指分别放在键盘的“E”键和“I”键上<p/>
    按<空格键>开始
    </p></div>"," ","html-keyboard-response","33","188623","0.0-6.0-0.0-3.0","3","4","4","3","4","3","4","3","4","4","4","5","4","4","5","4","5","4","5","5","2","1","1","2","2","1","2","1","2","0","0","1","1","0","0","0","1","0","1","1","0","1","0","1","5","2","4","2","4","","2","3","4","4","2","768791430436229121","叶","403","","","","","","","","","","","","","","","","","","","","","","","","","","","","","","","","","","","","","","","","","",""
"null","","null","html-keyboard-response","34","188875","0.0-6.0-0.0-4.0-0.0","3","4","4","3","4","3","4","3","4","4","4","5","4","4","5","4","5","4","5","5","2","1","1","2","2","1","2","1","2","0","0","1","1","0","0","0","1","0","1","1","0","1","0","1","5","2","4","2","4","","2","3","4","4","2","768791430436229121","叶","403","","","","","","","","","","","","","","","","","","","","","","","","","","","","","","","","","","","","","","","","","",""
"1044","<p style=""color:white; font-size: 35px;"">天才</p>","e","categorize-html","35","189921","0.0-6.0-0.0-4.0-1.0","3","4","4","3","4","3","4","3","4","4","4","5","4","4","5","4","5","4","5","5","2","1","1","2","2","1","2","1","2","0","0","1","1","0","0","0","1","0","1","1","0","1","0","1","5","2","4","2","4","","2","3","4","4","2","768791430436229121","叶","403","","","","","","","","","","","","","","","","","","","true","2","2","ability","1044","positive","天才","","","","","","","","","","","","","","","","",""
"null","","null","html-keyboard-response","36","190181","0.0-6.0-0.0-4.0-0.1","3","4","4","3","4","3","4","3","4","4","4","5","4","4","5","4","5","4","5","5","2","1","1","2","2","1","2","1","2","0","0","1","1","0","0","0","1","0","1","1","0","1","0","1","5","2","4","2","4","","2","3","4","4","2","768791430436229121","叶","403","","","","","","","","","","","","","","","","","","","","","","","","","","","","","","","","","","","","","","","","","",""
"734","<p style=""color:white; font-size: 35px;"">高效</p>","e","categorize-html","37","190916","0.0-6.0-0.0-4.0-1.1","3","4","4","3","4","3","4","3","4","4","4","5","4","4","5","4","5","4","5","5","2","1","1","2","2","1","2","1","2","0","0","1","1","0","0","0","1","0","1","1","0","1","0","1","5","2","4","2","4","","2","3","4","4","2","768791430436229121","叶","403","","","","","","","","","","","","","","","","","","","true","2","2","ability","734","positive","高效","","","","","","","","","","","","","","","","",""
"null","","null","html-keyboard-response","38","191168","0.0-6.0-0.0-4.0-0.2","3","4","4","3","4","3","4","3","4","4","4","5","4","4","5","4","5","4","5","5","2","1","1","2","2","1","2","1","2","0","0","1","1","0","0","0","1","0","1","1","0","1","0","1","5","2","4","2","4","","2","3","4","4","2","768791430436229121","叶","403","","","","","","","","","","","","","","","","","","","","","","","","","","","","","","","","","","","","","","","","","",""
"562","<p style=""color:white; font-size: 35px;"">能干</p>","e","categorize-html","39","191731","0.0-6.0-0.0-4.0-1.2","3","4","4","3","4","3","4","3","4","4","4","5","4","4","5","4","5","4","5","5","2","1","1","2","2","1","2","1","2","0","0","1","1","0","0","0","1","0","1","1","0","1","0","1","5","2","4","2","4","","2","3","4","4","2","768791430436229121","叶","403","","","","","","","","","","","","","","","","","","","true","2","2","ability","562","positive","能干","","","","","","","","","","","","","","","","",""
"null","","null","html-keyboard-response","40","191983","0.0-6.0-0.0-4.0-0.3","3","4","4","3","4","3","4","3","4","4","4","5","4","4","5","4","5","4","5","5","2","1","1","2","2","1","2","1","2","0","0","1","1","0","0","0","1","0","1","1","0","1","0","1","5","2","4","2","4","","2","3","4","4","2","768791430436229121","叶","403","","","","","","","","","","","","","","","","","","","","","","","","","","","","","","","","","","","","","","","","","",""
"1040","<p style=""color:white; font-size: 35px;"">拙笨</p>","i","categorize-html","41","193024","0.0-6.0-0.0-4.0-1.3","3","4","4","3","4","3","4","3","4","4","4","5","4","4","5","4","5","4","5","5","2","1","1","2","2","1","2","1","2","0","0","1","1","0","0","0","1","0","1","1","0","1","0","1","5","2","4","2","4","","2","3","4","4","2","768791430436229121","叶","403","","","","","","","","","","","","","","","","","","","true","2","2","ability","1040","negative","拙笨","","","","","","","","","","","","","","","","",""
"null","","null","html-keyboard-response","42","193275","0.0-6.0-0.0-4.0-0.4","3","4","4","3","4","3","4","3","4","4","4","5","4","4","5","4","5","4","5","5","2","1","1","2","2","1","2","1","2","0","0","1","1","0","0","0","1","0","1","1","0","1","0","1","5","2","4","2","4","","2","3","4","4","2","768791430436229121","叶","403","","","","","","","","","","","","","","","","","","","","","","","","","","","","","","","","","","","","","","","","","",""
"666","<p style=""color:white; font-size: 35px;"">废物</p>","i","categorize-html","43","193942","0.0-6.0-0.0-4.0-1.4","3","4","4","3","4","3","4","3","4","4","4","5","4","4","5","4","5","4","5","5","2","1","1","2","2","1","2","1","2","0","0","1","1","0","0","0","1","0","1","1","0","1","0","1","5","2","4","2","4","","2","3","4","4","2","768791430436229121","叶","403","","","","","","","","","","","","","","","","","","","true","2","2","ability","666","negative","废物","","","","","","","","","","","","","","","","",""
"null","","null","html-keyboard-response","44","194194","0.0-6.0-0.0-4.0-0.5","3","4","4","3","4","3","4","3","4","4","4","5","4","4","5","4","5","4","5","5","2","1","1","2","2","1","2","1","2","0","0","1","1","0","0","0","1","0","1","1","0","1","0","1","5","2","4","2","4","","2","3","4","4","2","768791430436229121","叶","403","","","","","","","","","","","","","","","","","","","","","","","","","","","","","","","","","","","","","","","","","",""
"749","<p style=""color:white; font-size: 35px;"">全能</p>","e","categorize-html","45","194944","0.0-6.0-0.0-4.0-1.5","3","4","4","3","4","3","4","3","4","4","4","5","4","4","5","4","5","4","5","5","2","1","1","2","2","1","2","1","2","0","0","1","1","0","0","0","1","0","1","1","0","1","0","1","5","2","4","2","4","","2","3","4","4","2","768791430436229121","叶","403","","","","","","","","","","","","","","","","","","","true","2","2","ability","749","positive","全能","","","","","","","","","","","","","","","","",""
"null","","null","html-keyboard-response","46","195198","0.0-6.0-0.0-4.0-0.6","3","4","4","3","4","3","4","3","4","4","4","5","4","4","5","4","5","4","5","5","2","1","1","2","2","1","2","1","2","0","0","1","1","0","0","0","1","0","1","1","0","1","0","1","5","2","4","2","4","","2","3","4","4","2","768791430436229121","叶","403","","","","","","","","","","","","","","","","","","","","","","","","","","","","","","","","","","","","","","","","","",""
"1242","<p style=""color:white; font-size: 35px;"">愚钝</p>","i","categorize-html","47","196440","0.0-6.0-0.0-4.0-1.6","3","4","4","3","4","3","4","3","4","4","4","5","4","4","5","4","5","4","5","5","2","1","1","2","2","1","2","1","2","0","0","1","1","0","0","0","1","0","1","1","0","1","0","1","5","2","4","2","4","","2","3","4","4","2","768791430436229121","叶","403","","","","","","","","","","","","","","","","","","","true","2","2","ability","1242","negative","愚钝","","","","","","","","","","","","","","","","",""
"null","","null","html-keyboard-response","48","196690","0.0-6.0-0.0-4.0-0.7","3","4","4","3","4","3","4","3","4","4","4","5","4","4","5","4","5","4","5","5","2","1","1","2","2","1","2","1","2","0","0","1","1","0","0","0","1","0","1","1","0","1","0","1","5","2","4","2","4","","2","3","4","4","2","768791430436229121","叶","403","","","","","","","","","","","","","","","","","","","","","","","","","","","","","","","","","","","","","","","","","",""
"886","<p style=""color:white; font-size: 35px;"">无能</p>","i","categorize-html","49","197577","0.0-6.0-0.0-4.0-1.7","3","4","4","3","4","3","4","3","4","4","4","5","4","4","5","4","5","4","5","5","2","1","1","2","2","1","2","1","2","0","0","1","1","0","0","0","1","0","1","1","0","1","0","1","5","2","4","2","4","","2","3","4","4","2","768791430436229121","叶","403","","","","","","","","","","","","","","","","","","","true","2","2","ability","886","negative","无能","","","","","","","","","","","","","","","","",""
"null","","null","html-keyboard-response","50","197829","0.0-6.0-0.0-4.0-0.8","3","4","4","3","4","3","4","3","4","4","4","5","4","4","5","4","5","4","5","5","2","1","1","2","2","1","2","1","2","0","0","1","1","0","0","0","1","0","1","1","0","1","0","1","5","2","4","2","4","","2","3","4","4","2","768791430436229121","叶","403","","","","","","","","","","","","","","","","","","","","","","","","","","","","","","","","","","","","","","","","","",""
"716","<p style=""color:white; font-size: 35px;"">低能</p>","i","categorize-html","51","198546","0.0-6.0-0.0-4.0-1.8","3","4","4","3","4","3","4","3","4","4","4","5","4","4","5","4","5","4","5","5","2","1","1","2","2","1","2","1","2","0","0","1","1","0","0","0","1","0","1","1","0","1","0","1","5","2","4","2","4","","2","3","4","4","2","768791430436229121","叶","403","","","","","","","","","","","","","","","","","","","true","2","2","ability","716","negative","低能","","","","","","","","","","","","","","","","",""
"null","","null","html-keyboard-response","52","198798","0.0-6.0-0.0-4.0-0.9","3","4","4","3","4","3","4","3","4","4","4","5","4","4","5","4","5","4","5","5","2","1","1","2","2","1","2","1","2","0","0","1","1","0","0","0","1","0","1","1","0","1","0","1","5","2","4","2","4","","2","3","4","4","2","768791430436229121","叶","403","","","","","","","","","","","","","","","","","","","","","","","","","","","","","","","","","","","","","","","","","",""
"1064","<p style=""color:white; font-size: 35px;"">精干</p>","e","categorize-html","53","199864","0.0-6.0-0.0-4.0-1.9","3","4","4","3","4","3","4","3","4","4","4","5","4","4","5","4","5","4","5","5","2","1","1","2","2","1","2","1","2","0","0","1","1","0","0","0","1","0","1","1","0","1","0","1","5","2","4","2","4","","2","3","4","4","2","768791430436229121","叶","403","","","","","","","","","","","","","","","","","","","true","2","2","ability","1064","positive","精干","","","","","","","","","","","","","","","","",""
"null","","null","html-keyboard-response","54","200115","0.0-6.0-0.0-4.0-0.10","3","4","4","3","4","3","4","3","4","4","4","5","4","4","5","4","5","4","5","5","2","1","1","2","2","1","2","1","2","0","0","1","1","0","0","0","1","0","1","1","0","1","0","1","5","2","4","2","4","","2","3","4","4","2","768791430436229121","叶","403","","","","","","","","","","","","","","","","","","","","","","","","","","","","","","","","","","","","","","","","","",""
"1082","<p style=""color:white; font-size: 35px;"">全才</p>","e","categorize-html","55","201198","0.0-6.0-0.0-4.0-1.10","3","4","4","3","4","3","4","3","4","4","4","5","4","4","5","4","5","4","5","5","2","1","1","2","2","1","2","1","2","0","0","1","1","0","0","0","1","0","1","1","0","1","0","1","5","2","4","2","4","","2","3","4","4","2","768791430436229121","叶","403","","","","","","","","","","","","","","","","","","","true","2","2","ability","1082","positive","全才","","","","","","","","","","","","","","","","",""
"null","","null","html-keyboard-response","56","201449","0.0-6.0-0.0-4.0-0.11","3","4","4","3","4","3","4","3","4","4","4","5","4","4","5","4","5","4","5","5","2","1","1","2","2","1","2","1","2","0","0","1","1","0","0","0","1","0","1","1","0","1","0","1","5","2","4","2","4","","2","3","4","4","2","768791430436229121","叶","403","","","","","","","","","","","","","","","","","","","","","","","","","","","","","","","","","","","","","","","","","",""
"725","<p style=""color:white; font-size: 35px;"">蠢笨</p>","i","categorize-html","57","202176","0.0-6.0-0.0-4.0-1.11","3","4","4","3","4","3","4","3","4","4","4","5","4","4","5","4","5","4","5","5","2","1","1","2","2","1","2","1","2","0","0","1","1","0","0","0","1","0","1","1","0","1","0","1","5","2","4","2","4","","2","3","4","4","2","768791430436229121","叶","403","","","","","","","","","","","","","","","","","","","true","2","2","ability","725","negative","蠢笨","","","","","","","","","","","","","","","","",""
"7167","
    <div class=""tag-bottom""><p>
    —— 任务3：对“自我/积极”词和“他人/消极”词分类 ——<p/>
    <span style=""color:#78DCE8""><b>注意上方，之前的四类词语将混合在一起交替呈现</b></span><p/>
    <span style=""color:#FFD866""><b>请根据上方标签的提示，尽可能正确并且快速地做出按键反应</b></span><p/>
    当按键错误时屏幕中会出现<span style=""color:red""> X </span>，需要按另一个键纠正才能继续<br/><p/>
    请把双手食指分别放在键盘的“E”键和“I”键上<p/>
    按<空格键>开始
    </p></div>"," ","html-keyboard-response","58","209344","0.0-6.0-0.0-5.0","3","4","4","3","4","3","4","3","4","4","4","5","4","4","5","4","5","4","5","5","2","1","1","2","2","1","2","1","2","0","0","1","1","0","0","0","1","0","1","1","0","1","0","1","5","2","4","2","4","","2","3","4","4","2","768791430436229121","叶","403","","","","","","","","","","","","","","","","","","","","","","","","","","","","","","","","","","","","","","","","","",""
"null","","null","html-keyboard-response","59","209596","0.0-6.0-0.0-6.0-0.0","3","4","4","3","4","3","4","3","4","4","4","5","4","4","5","4","5","4","5","5","2","1","1","2","2","1","2","1","2","0","0","1","1","0","0","0","1","0","1","1","0","1","0","1","5","2","4","2","4","","2","3","4","4","2","768791430436229121","叶","403","","","","","","","","","","","","","","","","","","","","","","","","","","","","","","","","","","","","","","","","","",""
"668","<p style=""color:rgb(150, 250, 100); font-size: 35px;"">他人的</p>","i","categorize-html","60","210266","0.0-6.0-0.0-6.0-1.0","3","4","4","3","4","3","4","3","4","4","4","5","4","4","5","4","5","4","5","5","2","1","1","2","2","1","2","1","2","0","0","1","1","0","0","0","1","0","1","1","0","1","0","1","5","2","4","2","4","","2","3","4","4","2","768791430436229121","叶","403","","","","","","","","","","","","","","","","","","","true","3","3","ability","668","other","他人的","","","","","","","","","","","","","","","","",""
"null","","null","html-keyboard-response","61","210518","0.0-6.0-0.0-6.0-0.1","3","4","4","3","4","3","4","3","4","4","4","5","4","4","5","4","5","4","5","5","2","1","1","2","2","1","2","1","2","0","0","1","1","0","0","0","1","0","1","1","0","1","0","1","5","2","4","2","4","","2","3","4","4","2","768791430436229121","叶","403","","","","","","","","","","","","","","","","","","","","","","","","","","","","","","","","","","","","","","","","","",""
"564","<p style=""color:white; font-size: 35px;"">废物</p>","i","categorize-html","62","211083","0.0-6.0-0.0-6.0-1.1","3","4","4","3","4","3","4","3","4","4","4","5","4","4","5","4","5","4","5","5","2","1","1","2","2","1","2","1","2","0","0","1","1","0","0","0","1","0","1","1","0","1","0","1","5","2","4","2","4","","2","3","4","4","2","768791430436229121","叶","403","","","","","","","","","","","","","","","","","","","true","3","3","ability","564","negative","废物","","","","","","","","","","","","","","","","",""
"null","","null","html-keyboard-response","63","211336","0.0-6.0-0.0-6.0-0.2","3","4","4","3","4","3","4","3","4","4","4","5","4","4","5","4","5","4","5","5","2","1","1","2","2","1","2","1","2","0","0","1","1","0","0","0","1","0","1","1","0","1","0","1","5","2","4","2","4","","2","3","4","4","2","768791430436229121","叶","403","","","","","","","","","","","","","","","","","","","","","","","","","","","","","","","","","","","","","","","","","",""
"572","<p style=""color:rgb(150, 250, 100); font-size: 35px;"">我</p>","e","categorize-html","64","211909","0.0-6.0-0.0-6.0-1.2","3","4","4","3","4","3","4","3","4","4","4","5","4","4","5","4","5","4","5","5","2","1","1","2","2","1","2","1","2","0","0","1","1","0","0","0","1","0","1","1","0","1","0","1","5","2","4","2","4","","2","3","4","4","2","768791430436229121","叶","403","","","","","","","","","","","","","","","","","","","true","3","3","ability","572","self","我","","","","","","","","","","","","","","","","",""
"null","","null","html-keyboard-response","65","212160","0.0-6.0-0.0-6.0-0.3","3","4","4","3","4","3","4","3","4","4","4","5","4","4","5","4","5","4","5","5","2","1","1","2","2","1","2","1","2","0","0","1","1","0","0","0","1","0","1","1","0","1","0","1","5","2","4","2","4","","2","3","4","4","2","768791430436229121","叶","403","","","","","","","","","","","","","","","","","","","","","","","","","","","","","","","","","","","","","","","","","",""
"627","<p style=""color:white; font-size: 35px;"">全能</p>","e","categorize-html","66","212788","0.0-6.0-0.0-6.0-1.3","3","4","4","3","4","3","4","3","4","4","4","5","4","4","5","4","5","4","5","5","2","1","1","2","2","1","2","1","2","0","0","1","1","0","0","0","1","0","1","1","0","1","0","1","5","2","4","2","4","","2","3","4","4","2","768791430436229121","叶","403","","","","","","","","","","","","","","","","","","","true","3","3","ability","627","positive","全能","","","","","","","","","","","","","","","","",""
"null","","null","html-keyboard-response","67","213040","0.0-6.0-0.0-6.0-0.4","3","4","4","3","4","3","4","3","4","4","4","5","4","4","5","4","5","4","5","5","2","1","1","2","2","1","2","1","2","0","0","1","1","0","0","0","1","0","1","1","0","1","0","1","5","2","4","2","4","","2","3","4","4","2","768791430436229121","叶","403","","","","","","","","","","","","","","","","","","","","","","","","","","","","","","","","","","","","","","","","","",""
"732","<p style=""color:rgb(150, 250, 100); font-size: 35px;"">他人</p>","i","categorize-html","68","213773","0.0-6.0-0.0-6.0-1.4","3","4","4","3","4","3","4","3","4","4","4","5","4","4","5","4","5","4","5","5","2","1","1","2","2","1","2","1","2","0","0","1","1","0","0","0","1","0","1","1","0","1","0","1","5","2","4","2","4","","2","3","4","4","2","768791430436229121","叶","403","","","","","","","","","","","","","","","","","","","true","3","3","ability","732","other","他人","","","","","","","","","","","","","","","","",""
"null","","null","html-keyboard-response","69","214025","0.0-6.0-0.0-6.0-0.5","3","4","4","3","4","3","4","3","4","4","4","5","4","4","5","4","5","4","5","5","2","1","1","2","2","1","2","1","2","0","0","1","1","0","0","0","1","0","1","1","0","1","0","1","5","2","4","2","4","","2","3","4","4","2","768791430436229121","叶","403","","","","","","","","","","","","","","","","","","","","","","","","","","","","","","","","","","","","","","","","","",""
"981","<p style=""color:white; font-size: 35px;"">低能</p>","i","categorize-html","70","215007","0.0-6.0-0.0-6.0-1.5","3","4","4","3","4","3","4","3","4","4","4","5","4","4","5","4","5","4","5","5","2","1","1","2","2","1","2","1","2","0","0","1","1","0","0","0","1","0","1","1","0","1","0","1","5","2","4","2","4","","2","3","4","4","2","768791430436229121","叶","403","","","","","","","","","","","","","","","","","","","true","3","3","ability","981","negative","低能","","","","","","","","","","","","","","","","",""
"null","","null","html-keyboard-response","71","215259","0.0-6.0-0.0-6.0-0.6","3","4","4","3","4","3","4","3","4","4","4","5","4","4","5","4","5","4","5","5","2","1","1","2","2","1","2","1","2","0","0","1","1","0","0","0","1","0","1","1","0","1","0","1","5","2","4","2","4","","2","3","4","4","2","768791430436229121","叶","403","","","","","","","","","","","","","","","","","","","","","","","","","","","","","","","","","","","","","","","","","",""
"590","<p style=""color:rgb(150, 250, 100); font-size: 35px;"">我的</p>","e","categorize-html","72","215849","0.0-6.0-0.0-6.0-1.6","3","4","4","3","4","3","4","3","4","4","4","5","4","4","5","4","5","4","5","5","2","1","1","2","2","1","2","1","2","0","0","1","1","0","0","0","1","0","1","1","0","1","0","1","5","2","4","2","4","","2","3","4","4","2","768791430436229121","叶","403","","","","","","","","","","","","","","","","","","","true","3","3","ability","590","self","我的","","","","","","","","","","","","","","","","",""
"null","","null","html-keyboard-response","73","216100","0.0-6.0-0.0-6.0-0.7","3","4","4","3","4","3","4","3","4","4","4","5","4","4","5","4","5","4","5","5","2","1","1","2","2","1","2","1","2","0","0","1","1","0","0","0","1","0","1","1","0","1","0","1","5","2","4","2","4","","2","3","4","4","2","768791430436229121","叶","403","","","","","","","","","","","","","","","","","","","","","","","","","","","","","","","","","","","","","","","","","",""
"727","<p style=""color:white; font-size: 35px;"">天才</p>","e","categorize-html","74","216828","0.0-6.0-0.0-6.0-1.7","3","4","4","3","4","3","4","3","4","4","4","5","4","4","5","4","5","4","5","5","2","1","1","2","2","1","2","1","2","0","0","1","1","0","0","0","1","0","1","1","0","1","0","1","5","2","4","2","4","","2","3","4","4","2","768791430436229121","叶","403","","","","","","","","","","","","","","","","","","","true","3","3","ability","727","positive","天才","","","","","","","","","","","","","","","","",""
"null","","null","html-keyboard-response","75","217079","0.0-6.0-0.0-6.0-0.8","3","4","4","3","4","3","4","3","4","4","4","5","4","4","5","4","5","4","5","5","2","1","1","2","2","1","2","1","2","0","0","1","1","0","0","0","1","0","1","1","0","1","0","1","5","2","4","2","4","","2","3","4","4","2","768791430436229121","叶","403","","","","","","","","","","","","","","","","","","","","","","","","","","","","","","","","","","","","","","","","","",""
"845","<p style=""color:rgb(150, 250, 100); font-size: 35px;"">自己</p>","e","categorize-html","76","217926","0.0-6.0-0.0-6.0-1.8","3","4","4","3","4","3","4","3","4","4","4","5","4","4","5","4","5","4","5","5","2","1","1","2","2","1","2","1","2","0","0","1","1","0","0","0","1","0","1","1","0","1","0","1","5","2","4","2","4","","2","3","4","4","2","768791430436229121","叶","403","","","","","","","","","","","","","","","","","","","true","3","3","ability","845","self","自己","","","","","","","","","","","","","","","","",""
"null","","null","html-keyboard-response","77","218177","0.0-6.0-0.0-6.0-0.9","3","4","4","3","4","3","4","3","4","4","4","5","4","4","5","4","5","4","5","5","2","1","1","2","2","1","2","1","2","0","0","1","1","0","0","0","1","0","1","1","0","1","0","1","5","2","4","2","4","","2","3","4","4","2","768791430436229121","叶","403","","","","","","","","","","","","","","","","","","","","","","","","","","","","","","","","","","","","","","","","","",""
"622","<p style=""color:white; font-size: 35px;"">高效</p>","e","categorize-html","78","218801","0.0-6.0-0.0-6.0-1.9","3","4","4","3","4","3","4","3","4","4","4","5","4","4","5","4","5","4","5","5","2","1","1","2","2","1","2","1","2","0","0","1","1","0","0","0","1","0","1","1","0","1","0","1","5","2","4","2","4","","2","3","4","4","2","768791430436229121","叶","403","","","","","","","","","","","","","","","","","","","true","3","3","ability","622","positive","高效","","","","","","","","","","","","","","","","",""
"null","","null","html-keyboard-response","79","219052","0.0-6.0-0.0-6.0-0.10","3","4","4","3","4","3","4","3","4","4","4","5","4","4","5","4","5","4","5","5","2","1","1","2","2","1","2","1","2","0","0","1","1","0","0","0","1","0","1","1","0","1","0","1","5","2","4","2","4","","2","3","4","4","2","768791430436229121","叶","403","","","","","","","","","","","","","","","","","","","","","","","","","","","","","","","","","","","","","","","","","",""
"611","<p style=""color:rgb(150, 250, 100); font-size: 35px;"">他的</p>","i","categorize-html","80","219665","0.0-6.0-0.0-6.0-1.10","3","4","4","3","4","3","4","3","4","4","4","5","4","4","5","4","5","4","5","5","2","1","1","2","2","1","2","1","2","0","0","1","1","0","0","0","1","0","1","1","0","1","0","1","5","2","4","2","4","","2","3","4","4","2","768791430436229121","叶","403","","","","","","","","","","","","","","","","","","","true","3","3","ability","611","other","他的","","","","","","","","","","","","","","","","",""
"null","","null","html-keyboard-response","81","219916","0.0-6.0-0.0-6.0-0.11","3","4","4","3","4","3","4","3","4","4","4","5","4","4","5","4","5","4","5","5","2","1","1","2","2","1","2","1","2","0","0","1","1","0","0","0","1","0","1","1","0","1","0","1","5","2","4","2","4","","2","3","4","4","2","768791430436229121","叶","403","","","","","","","","","","","","","","","","","","","","","","","","","","","","","","","","","","","","","","","","","",""
"446","<p style=""color:white; font-size: 35px;"">拙笨</p>","i","categorize-html","82","220363","0.0-6.0-0.0-6.0-1.11","3","4","4","3","4","3","4","3","4","4","4","5","4","4","5","4","5","4","5","5","2","1","1","2","2","1","2","1","2","0","0","1","1","0","0","0","1","0","1","1","0","1","0","1","5","2","4","2","4","","2","3","4","4","2","768791430436229121","叶","403","","","","","","","","","","","","","","","","","","","true","3","3","ability","446","negative","拙笨","","","","","","","","","","","","","","","","",""
"null","","null","html-keyboard-response","83","220615","0.0-6.0-0.0-6.0-0.12","3","4","4","3","4","3","4","3","4","4","4","5","4","4","5","4","5","4","5","5","2","1","1","2","2","1","2","1","2","0","0","1","1","0","0","0","1","0","1","1","0","1","0","1","5","2","4","2","4","","2","3","4","4","2","768791430436229121","叶","403","","","","","","","","","","","","","","","","","","","","","","","","","","","","","","","","","","","","","","","","","",""
"806","<p style=""color:rgb(150, 250, 100); font-size: 35px;"">本人</p>","e","categorize-html","84","221422","0.0-6.0-0.0-6.0-1.12","3","4","4","3","4","3","4","3","4","4","4","5","4","4","5","4","5","4","5","5","2","1","1","2","2","1","2","1","2","0","0","1","1","0","0","0","1","0","1","1","0","1","0","1","5","2","4","2","4","","2","3","4","4","2","768791430436229121","叶","403","","","","","","","","","","","","","","","","","","","true","3","3","ability","806","self","本人","","","","","","","","","","","","","","","","",""
"null","","null","html-keyboard-response","85","221673","0.0-6.0-0.0-6.0-0.13","3","4","4","3","4","3","4","3","4","4","4","5","4","4","5","4","5","4","5","5","2","1","1","2","2","1","2","1","2","0","0","1","1","0","0","0","1","0","1","1","0","1","0","1","5","2","4","2","4","","2","3","4","4","2","768791430436229121","叶","403","","","","","","","","","","","","","","","","","","","","","","","","","","","","","","","","","","","","","","","","","",""
"572","<p style=""color:white; font-size: 35px;"">全才</p>","e","categorize-html","86","222246","0.0-6.0-0.0-6.0-1.13","3","4","4","3","4","3","4","3","4","4","4","5","4","4","5","4","5","4","5","5","2","1","1","2","2","1","2","1","2","0","0","1","1","0","0","0","1","0","1","1","0","1","0","1","5","2","4","2","4","","2","3","4","4","2","768791430436229121","叶","403","","","","","","","","","","","","","","","","","","","true","3","3","ability","572","positive","全才","","","","","","","","","","","","","","","","",""
"null","","null","html-keyboard-response","87","222498","0.0-6.0-0.0-6.0-0.14","3","4","4","3","4","3","4","3","4","4","4","5","4","4","5","4","5","4","5","5","2","1","1","2","2","1","2","1","2","0","0","1","1","0","0","0","1","0","1","1","0","1","0","1","5","2","4","2","4","","2","3","4","4","2","768791430436229121","叶","403","","","","","","","","","","","","","","","","","","","","","","","","","","","","","","","","","","","","","","","","","",""
"588","<p style=""color:rgb(150, 250, 100); font-size: 35px;"">别人</p>","i","categorize-html","88","223087","0.0-6.0-0.0-6.0-1.14","3","4","4","3","4","3","4","3","4","4","4","5","4","4","5","4","5","4","5","5","2","1","1","2","2","1","2","1","2","0","0","1","1","0","0","0","1","0","1","1","0","1","0","1","5","2","4","2","4","","2","3","4","4","2","768791430436229121","叶","403","","","","","","","","","","","","","","","","","","","true","3","3","ability","588","other","别人","","","","","","","","","","","","","","","","",""
"null","","null","html-keyboard-response","89","223339","0.0-6.0-0.0-6.0-0.15","3","4","4","3","4","3","4","3","4","4","4","5","4","4","5","4","5","4","5","5","2","1","1","2","2","1","2","1","2","0","0","1","1","0","0","0","1","0","1","1","0","1","0","1","5","2","4","2","4","","2","3","4","4","2","768791430436229121","叶","403","","","","","","","","","","","","","","","","","","","","","","","","","","","","","","","","","","","","","","","","","",""
"558","<p style=""color:white; font-size: 35px;"">愚钝</p>","i","categorize-html","90","223898","0.0-6.0-0.0-6.0-1.15","3","4","4","3","4","3","4","3","4","4","4","5","4","4","5","4","5","4","5","5","2","1","1","2","2","1","2","1","2","0","0","1","1","0","0","0","1","0","1","1","0","1","0","1","5","2","4","2","4","","2","3","4","4","2","768791430436229121","叶","403","","","","","","","","","","","","","","","","","","","true","3","3","ability","558","negative","愚钝","","","","","","","","","","","","","","","","",""
"null","","null","html-keyboard-response","91","224149","0.0-6.0-0.0-6.0-0.16","3","4","4","3","4","3","4","3","4","4","4","5","4","4","5","4","5","4","5","5","2","1","1","2","2","1","2","1","2","0","0","1","1","0","0","0","1","0","1","1","0","1","0","1","5","2","4","2","4","","2","3","4","4","2","768791430436229121","叶","403","","","","","","","","","","","","","","","","","","","","","","","","","","","","","","","","","","","","","","","","","",""
"586","<p style=""color:rgb(150, 250, 100); font-size: 35px;"">自己的</p>","e","categorize-html","92","224736","0.0-6.0-0.0-6.0-1.16","3","4","4","3","4","3","4","3","4","4","4","5","4","4","5","4","5","4","5","5","2","1","1","2","2","1","2","1","2","0","0","1","1","0","0","0","1","0","1","1","0","1","0","1","5","2","4","2","4","","2","3","4","4","2","768791430436229121","叶","403","","","","","","","","","","","","","","","","","","","true","3","3","ability","586","self","自己的","","","","","","","","","","","","","","","","",""
"null","","null","html-keyboard-response","93","224988","0.0-6.0-0.0-6.0-0.17","3","4","4","3","4","3","4","3","4","4","4","5","4","4","5","4","5","4","5","5","2","1","1","2","2","1","2","1","2","0","0","1","1","0","0","0","1","0","1","1","0","1","0","1","5","2","4","2","4","","2","3","4","4","2","768791430436229121","叶","403","","","","","","","","","","","","","","","","","","","","","","","","","","","","","","","","","","","","","","","","","",""
"1027","<p style=""color:white; font-size: 35px;"">蠢笨</p>","i","categorize-html","94","226016","0.0-6.0-0.0-6.0-1.17","3","4","4","3","4","3","4","3","4","4","4","5","4","4","5","4","5","4","5","5","2","1","1","2","2","1","2","1","2","0","0","1","1","0","0","0","1","0","1","1","0","1","0","1","5","2","4","2","4","","2","3","4","4","2","768791430436229121","叶","403","","","","","","","","","","","","","","","","","","","true","3","3","ability","1027","negative","蠢笨","","","","","","","","","","","","","","","","",""
"null","","null","html-keyboard-response","95","226267","0.0-6.0-0.0-6.0-0.18","3","4","4","3","4","3","4","3","4","4","4","5","4","4","5","4","5","4","5","5","2","1","1","2","2","1","2","1","2","0","0","1","1","0","0","0","1","0","1","1","0","1","0","1","5","2","4","2","4","","2","3","4","4","2","768791430436229121","叶","403","","","","","","","","","","","","","","","","","","","","","","","","","","","","","","","","","","","","","","","","","",""
"518","<p style=""color:rgb(150, 250, 100); font-size: 35px;"">他</p>","i","categorize-html","96","226787","0.0-6.0-0.0-6.0-1.18","3","4","4","3","4","3","4","3","4","4","4","5","4","4","5","4","5","4","5","5","2","1","1","2","2","1","2","1","2","0","0","1","1","0","0","0","1","0","1","1","0","1","0","1","5","2","4","2","4","","2","3","4","4","2","768791430436229121","叶","403","","","","","","","","","","","","","","","","","","","true","3","3","ability","518","other","他","","","","","","","","","","","","","","","","",""
"null","","null","html-keyboard-response","97","227038","0.0-6.0-0.0-6.0-0.19","3","4","4","3","4","3","4","3","4","4","4","5","4","4","5","4","5","4","5","5","2","1","1","2","2","1","2","1","2","0","0","1","1","0","0","0","1","0","1","1","0","1","0","1","5","2","4","2","4","","2","3","4","4","2","768791430436229121","叶","403","","","","","","","","","","","","","","","","","","","","","","","","","","","","","","","","","","","","","","","","","",""
"547","<p style=""color:white; font-size: 35px;"">能干</p>","e","categorize-html","98","227586","0.0-6.0-0.0-6.0-1.19","3","4","4","3","4","3","4","3","4","4","4","5","4","4","5","4","5","4","5","5","2","1","1","2","2","1","2","1","2","0","0","1","1","0","0","0","1","0","1","1","0","1","0","1","5","2","4","2","4","","2","3","4","4","2","768791430436229121","叶","403","","","","","","","","","","","","","","","","","","","true","3","3","ability","547","positive","能干","","","","","","","","","","","","","","","","",""
"null","","null","html-keyboard-response","99","227837","0.0-6.0-0.0-6.0-0.20","3","4","4","3","4","3","4","3","4","4","4","5","4","4","5","4","5","4","5","5","2","1","1","2","2","1","2","1","2","0","0","1","1","0","0","0","1","0","1","1","0","1","0","1","5","2","4","2","4","","2","3","4","4","2","768791430436229121","叶","403","","","","","","","","","","","","","","","","","","","","","","","","","","","","","","","","","","","","","","","","","",""
"583","<p style=""color:rgb(150, 250, 100); font-size: 35px;"">本人的</p>","e","categorize-html","100","228422","0.0-6.0-0.0-6.0-1.20","3","4","4","3","4","3","4","3","4","4","4","5","4","4","5","4","5","4","5","5","2","1","1","2","2","1","2","1","2","0","0","1","1","0","0","0","1","0","1","1","0","1","0","1","5","2","4","2","4","","2","3","4","4","2","768791430436229121","叶","403","","","","","","","","","","","","","","","","","","","true","3","3","ability","583","self","本人的","","","","","","","","","","","","","","","","",""
"null","","null","html-keyboard-response","101","228683","0.0-6.0-0.0-6.0-0.21","3","4","4","3","4","3","4","3","4","4","4","5","4","4","5","4","5","4","5","5","2","1","1","2","2","1","2","1","2","0","0","1","1","0","0","0","1","0","1","1","0","1","0","1","5","2","4","2","4","","2","3","4","4","2","768791430436229121","叶","403","","","","","","","","","","","","","","","","","","","","","","","","","","","","","","","","","","","","","","","","","",""
"936","<p style=""color:white; font-size: 35px;"">精干</p>","i","categorize-html","102","231055","0.0-6.0-0.0-6.0-1.21","3","4","4","3","4","3","4","3","4","4","4","5","4","4","5","4","5","4","5","5","2","1","1","2","2","1","2","1","2","0","0","1","1","0","0","0","1","0","1","1","0","1","0","1","5","2","4","2","4","","2","3","4","4","2","768791430436229121","叶","403","","","","","","","","","","","","","","","","","","","false","3","3","ability","1248.1304347826087","positive","精干","","","","","","","","","","","","","","","","",""
"null","","null","html-keyboard-response","103","231306","0.0-6.0-0.0-6.0-0.22","3","4","4","3","4","3","4","3","4","4","4","5","4","4","5","4","5","4","5","5","2","1","1","2","2","1","2","1","2","0","0","1","1","0","0","0","1","0","1","1","0","1","0","1","5","2","4","2","4","","2","3","4","4","2","768791430436229121","叶","403","","","","","","","","","","","","","","","","","","","","","","","","","","","","","","","","","","","","","","","","","",""
"578","<p style=""color:rgb(150, 250, 100); font-size: 35px;"">别人的</p>","i","categorize-html","104","231885","0.0-6.0-0.0-6.0-1.22","3","4","4","3","4","3","4","3","4","4","4","5","4","4","5","4","5","4","5","5","2","1","1","2","2","1","2","1","2","0","0","1","1","0","0","0","1","0","1","1","0","1","0","1","5","2","4","2","4","","2","3","4","4","2","768791430436229121","叶","403","","","","","","","","","","","","","","","","","","","true","3","3","ability","578","other","别人的","","","","","","","","","","","","","","","","",""
"null","","null","html-keyboard-response","105","232137","0.0-6.0-0.0-6.0-0.23","3","4","4","3","4","3","4","3","4","4","4","5","4","4","5","4","5","4","5","5","2","1","1","2","2","1","2","1","2","0","0","1","1","0","0","0","1","0","1","1","0","1","0","1","5","2","4","2","4","","2","3","4","4","2","768791430436229121","叶","403","","","","","","","","","","","","","","","","","","","","","","","","","","","","","","","","","","","","","","","","","",""
"559","<p style=""color:white; font-size: 35px;"">无能</p>","i","categorize-html","106","232697","0.0-6.0-0.0-6.0-1.23","3","4","4","3","4","3","4","3","4","4","4","5","4","4","5","4","5","4","5","5","2","1","1","2","2","1","2","1","2","0","0","1","1","0","0","0","1","0","1","1","0","1","0","1","5","2","4","2","4","","2","3","4","4","2","768791430436229121","叶","403","","","","","","","","","","","","","","","","","","","true","3","3","ability","559","negative","无能","","","","","","","","","","","","","","","","",""
"4879","
    <div class=""tag-bottom""><p>
    —— 任务4：对“自我/积极”词和“他人/消极”词分类 ——<p/>
    <span style=""color:#78DCE8""><b>与刚才的任务完全相同，请再次对这四类词语分类</b></span><p/>
    <span style=""color:#FFD866""><b>请根据上方标签的提示，尽可能正确并且快速地做出按键反应</b></span><p/>
    当按键错误时屏幕中会出现<span style=""color:red""> X </span>，需要按另一个键纠正才能继续<br/><p/>
    请把双手食指分别放在键盘的“E”键和“I”键上<p/>
    按<空格键>开始
    </p></div>"," ","html-keyboard-response","107","237576","0.0-6.0-0.0-7.0","3","4","4","3","4","3","4","3","4","4","4","5","4","4","5","4","5","4","5","5","2","1","1","2","2","1","2","1","2","0","0","1","1","0","0","0","1","0","1","1","0","1","0","1","5","2","4","2","4","","2","3","4","4","2","768791430436229121","叶","403","","","","","","","","","","","","","","","","","","","","","","","","","","","","","","","","","","","","","","","","","",""
"null","","null","html-keyboard-response","108","237828","0.0-6.0-0.0-8.0-0.0","3","4","4","3","4","3","4","3","4","4","4","5","4","4","5","4","5","4","5","5","2","1","1","2","2","1","2","1","2","0","0","1","1","0","0","0","1","0","1","1","0","1","0","1","5","2","4","2","4","","2","3","4","4","2","768791430436229121","叶","403","","","","","","","","","","","","","","","","","","","","","","","","","","","","","","","","","","","","","","","","","",""
"840","<p style=""color:rgb(150, 250, 100); font-size: 35px;"">别人</p>","i","categorize-html","109","238670","0.0-6.0-0.0-8.0-1.0","3","4","4","3","4","3","4","3","4","4","4","5","4","4","5","4","5","4","5","5","2","1","1","2","2","1","2","1","2","0","0","1","1","0","0","0","1","0","1","1","0","1","0","1","5","2","4","2","4","","2","3","4","4","2","768791430436229121","叶","403","","","","","","","","","","","","","","","","","","","true","4","4","ability","840","other","别人","","","","","","","","","","","","","","","","",""
"null","","null","html-keyboard-response","110","238921","0.0-6.0-0.0-8.0-0.1","3","4","4","3","4","3","4","3","4","4","4","5","4","4","5","4","5","4","5","5","2","1","1","2","2","1","2","1","2","0","0","1","1","0","0","0","1","0","1","1","0","1","0","1","5","2","4","2","4","","2","3","4","4","2","768791430436229121","叶","403","","","","","","","","","","","","","","","","","","","","","","","","","","","","","","","","","","","","","","","","","",""
"407","<p style=""color:white; font-size: 35px;"">愚钝</p>","i","categorize-html","111","239329","0.0-6.0-0.0-8.0-1.1","3","4","4","3","4","3","4","3","4","4","4","5","4","4","5","4","5","4","5","5","2","1","1","2","2","1","2","1","2","0","0","1","1","0","0","0","1","0","1","1","0","1","0","1","5","2","4","2","4","","2","3","4","4","2","768791430436229121","叶","403","","","","","","","","","","","","","","","","","","","true","4","4","ability","407","negative","愚钝","","","","","","","","","","","","","","","","",""
"null","","null","html-keyboard-response","112","239580","0.0-6.0-0.0-8.0-0.2","3","4","4","3","4","3","4","3","4","4","4","5","4","4","5","4","5","4","5","5","2","1","1","2","2","1","2","1","2","0","0","1","1","0","0","0","1","0","1","1","0","1","0","1","5","2","4","2","4","","2","3","4","4","2","768791430436229121","叶","403","","","","","","","","","","","","","","","","","","","","","","","","","","","","","","","","","","","","","","","","","",""
"604","<p style=""color:rgb(150, 250, 100); font-size: 35px;"">自己的</p>","e","categorize-html","113","240185","0.0-6.0-0.0-8.0-1.2","3","4","4","3","4","3","4","3","4","4","4","5","4","4","5","4","5","4","5","5","2","1","1","2","2","1","2","1","2","0","0","1","1","0","0","0","1","0","1","1","0","1","0","1","5","2","4","2","4","","2","3","4","4","2","768791430436229121","叶","403","","","","","","","","","","","","","","","","","","","true","4","4","ability","604","self","自己的","","","","","","","","","","","","","","","","",""
"null","","null","html-keyboard-response","114","240437","0.0-6.0-0.0-8.0-0.3","3","4","4","3","4","3","4","3","4","4","4","5","4","4","5","4","5","4","5","5","2","1","1","2","2","1","2","1","2","0","0","1","1","0","0","0","1","0","1","1","0","1","0","1","5","2","4","2","4","","2","3","4","4","2","768791430436229121","叶","403","","","","","","","","","","","","","","","","","","","","","","","","","","","","","","","","","","","","","","","","","",""
"491","<p style=""color:white; font-size: 35px;"">能干</p>","e","categorize-html","115","240929","0.0-6.0-0.0-8.0-1.3","3","4","4","3","4","3","4","3","4","4","4","5","4","4","5","4","5","4","5","5","2","1","1","2","2","1","2","1","2","0","0","1","1","0","0","0","1","0","1","1","0","1","0","1","5","2","4","2","4","","2","3","4","4","2","768791430436229121","叶","403","","","","","","","","","","","","","","","","","","","true","4","4","ability","491","positive","能干","","","","","","","","","","","","","","","","",""
"null","","null","html-keyboard-response","116","241180","0.0-6.0-0.0-8.0-0.4","3","4","4","3","4","3","4","3","4","4","4","5","4","4","5","4","5","4","5","5","2","1","1","2","2","1","2","1","2","0","0","1","1","0","0","0","1","0","1","1","0","1","0","1","5","2","4","2","4","","2","3","4","4","2","768791430436229121","叶","403","","","","","","","","","","","","","","","","","","","","","","","","","","","","","","","","","","","","","","","","","",""
"574","<p style=""color:rgb(150, 250, 100); font-size: 35px;"">他的</p>","i","categorize-html","117","241755","0.0-6.0-0.0-8.0-1.4","3","4","4","3","4","3","4","3","4","4","4","5","4","4","5","4","5","4","5","5","2","1","1","2","2","1","2","1","2","0","0","1","1","0","0","0","1","0","1","1","0","1","0","1","5","2","4","2","4","","2","3","4","4","2","768791430436229121","叶","403","","","","","","","","","","","","","","","","","","","true","4","4","ability","574","other","他的","","","","","","","","","","","","","","","","",""
"null","","null","html-keyboard-response","118","242007","0.0-6.0-0.0-8.0-0.5","3","4","4","3","4","3","4","3","4","4","4","5","4","4","5","4","5","4","5","5","2","1","1","2","2","1","2","1","2","0","0","1","1","0","0","0","1","0","1","1","0","1","0","1","5","2","4","2","4","","2","3","4","4","2","768791430436229121","叶","403","","","","","","","","","","","","","","","","","","","","","","","","","","","","","","","","","","","","","","","","","",""
"740","<p style=""color:white; font-size: 35px;"">精干</p>","e","categorize-html","119","242748","0.0-6.0-0.0-8.0-1.5","3","4","4","3","4","3","4","3","4","4","4","5","4","4","5","4","5","4","5","5","2","1","1","2","2","1","2","1","2","0","0","1","1","0","0","0","1","0","1","1","0","1","0","1","5","2","4","2","4","","2","3","4","4","2","768791430436229121","叶","403","","","","","","","","","","","","","","","","","","","true","4","4","ability","740","positive","精干","","","","","","","","","","","","","","","","",""
"null","","null","html-keyboard-response","120","242999","0.0-6.0-0.0-8.0-0.6","3","4","4","3","4","3","4","3","4","4","4","5","4","4","5","4","5","4","5","5","2","1","1","2","2","1","2","1","2","0","0","1","1","0","0","0","1","0","1","1","0","1","0","1","5","2","4","2","4","","2","3","4","4","2","768791430436229121","叶","403","","","","","","","","","","","","","","","","","","","","","","","","","","","","","","","","","","","","","","","","","",""
"716","<p style=""color:rgb(150, 250, 100); font-size: 35px;"">本人的</p>","e","categorize-html","121","243716","0.0-6.0-0.0-8.0-1.6","3","4","4","3","4","3","4","3","4","4","4","5","4","4","5","4","5","4","5","5","2","1","1","2","2","1","2","1","2","0","0","1","1","0","0","0","1","0","1","1","0","1","0","1","5","2","4","2","4","","2","3","4","4","2","768791430436229121","叶","403","","","","","","","","","","","","","","","","","","","true","4","4","ability","716","self","本人的","","","","","","","","","","","","","","","","",""
"null","","null","html-keyboard-response","122","243969","0.0-6.0-0.0-8.0-0.7","3","4","4","3","4","3","4","3","4","4","4","5","4","4","5","4","5","4","5","5","2","1","1","2","2","1","2","1","2","0","0","1","1","0","0","0","1","0","1","1","0","1","0","1","5","2","4","2","4","","2","3","4","4","2","768791430436229121","叶","403","","","","","","","","","","","","","","","","","","","","","","","","","","","","","","","","","","","","","","","","","",""
"776","<p style=""color:white; font-size: 35px;"">蠢笨</p>","i","categorize-html","123","244746","0.0-6.0-0.0-8.0-1.7","3","4","4","3","4","3","4","3","4","4","4","5","4","4","5","4","5","4","5","5","2","1","1","2","2","1","2","1","2","0","0","1","1","0","0","0","1","0","1","1","0","1","0","1","5","2","4","2","4","","2","3","4","4","2","768791430436229121","叶","403","","","","","","","","","","","","","","","","","","","true","4","4","ability","776","negative","蠢笨","","","","","","","","","","","","","","","","",""
"null","","null","html-keyboard-response","124","244998","0.0-6.0-0.0-8.0-0.8","3","4","4","3","4","3","4","3","4","4","4","5","4","4","5","4","5","4","5","5","2","1","1","2","2","1","2","1","2","0","0","1","1","0","0","0","1","0","1","1","0","1","0","1","5","2","4","2","4","","2","3","4","4","2","768791430436229121","叶","403","","","","","","","","","","","","","","","","","","","","","","","","","","","","","","","","","","","","","","","","","",""
"738","<p style=""color:rgb(150, 250, 100); font-size: 35px;"">他</p>","i","categorize-html","125","245738","0.0-6.0-0.0-8.0-1.8","3","4","4","3","4","3","4","3","4","4","4","5","4","4","5","4","5","4","5","5","2","1","1","2","2","1","2","1","2","0","0","1","1","0","0","0","1","0","1","1","0","1","0","1","5","2","4","2","4","","2","3","4","4","2","768791430436229121","叶","403","","","","","","","","","","","","","","","","","","","true","4","4","ability","738","other","他","","","","","","","","","","","","","","","","",""
"null","","null","html-keyboard-response","126","245989","0.0-6.0-0.0-8.0-0.9","3","4","4","3","4","3","4","3","4","4","4","5","4","4","5","4","5","4","5","5","2","1","1","2","2","1","2","1","2","0","0","1","1","0","0","0","1","0","1","1","0","1","0","1","5","2","4","2","4","","2","3","4","4","2","768791430436229121","叶","403","","","","","","","","","","","","","","","","","","","","","","","","","","","","","","","","","","","","","","","","","",""
"721","<p style=""color:white; font-size: 35px;"">全能</p>","e","categorize-html","127","246711","0.0-6.0-0.0-8.0-1.9","3","4","4","3","4","3","4","3","4","4","4","5","4","4","5","4","5","4","5","5","2","1","1","2","2","1","2","1","2","0","0","1","1","0","0","0","1","0","1","1","0","1","0","1","5","2","4","2","4","","2","3","4","4","2","768791430436229121","叶","403","","","","","","","","","","","","","","","","","","","true","4","4","ability","721","positive","全能","","","","","","","","","","","","","","","","",""
"null","","null","html-keyboard-response","128","246962","0.0-6.0-0.0-8.0-0.10","3","4","4","3","4","3","4","3","4","4","4","5","4","4","5","4","5","4","5","5","2","1","1","2","2","1","2","1","2","0","0","1","1","0","0","0","1","0","1","1","0","1","0","1","5","2","4","2","4","","2","3","4","4","2","768791430436229121","叶","403","","","","","","","","","","","","","","","","","","","","","","","","","","","","","","","","","","","","","","","","","",""
"620","<p style=""color:rgb(150, 250, 100); font-size: 35px;"">本人的</p>","e","categorize-html","129","247584","0.0-6.0-0.0-8.0-1.10","3","4","4","3","4","3","4","3","4","4","4","5","4","4","5","4","5","4","5","5","2","1","1","2","2","1","2","1","2","0","0","1","1","0","0","0","1","0","1","1","0","1","0","1","5","2","4","2","4","","2","3","4","4","2","768791430436229121","叶","403","","","","","","","","","","","","","","","","","","","true","4","4","ability","620","self","本人的","","","","","","","","","","","","","","","","",""
"null","","null","html-keyboard-response","130","247841","0.0-6.0-0.0-8.0-0.11","3","4","4","3","4","3","4","3","4","4","4","5","4","4","5","4","5","4","5","5","2","1","1","2","2","1","2","1","2","0","0","1","1","0","0","0","1","0","1","1","0","1","0","1","5","2","4","2","4","","2","3","4","4","2","768791430436229121","叶","403","","","","","","","","","","","","","","","","","","","","","","","","","","","","","","","","","","","","","","","","","",""
"595","<p style=""color:white; font-size: 35px;"">废物</p>","i","categorize-html","131","248438","0.0-6.0-0.0-8.0-1.11","3","4","4","3","4","3","4","3","4","4","4","5","4","4","5","4","5","4","5","5","2","1","1","2","2","1","2","1","2","0","0","1","1","0","0","0","1","0","1","1","0","1","0","1","5","2","4","2","4","","2","3","4","4","2","768791430436229121","叶","403","","","","","","","","","","","","","","","","","","","true","4","4","ability","595","negative","废物","","","","","","","","","","","","","","","","",""
"null","","null","html-keyboard-response","132","248689","0.0-6.0-0.0-8.0-0.12","3","4","4","3","4","3","4","3","4","4","4","5","4","4","5","4","5","4","5","5","2","1","1","2","2","1","2","1","2","0","0","1","1","0","0","0","1","0","1","1","0","1","0","1","5","2","4","2","4","","2","3","4","4","2","768791430436229121","叶","403","","","","","","","","","","","","","","","","","","","","","","","","","","","","","","","","","","","","","","","","","",""
"708","<p style=""color:rgb(150, 250, 100); font-size: 35px;"">自己</p>","e","categorize-html","133","249398","0.0-6.0-0.0-8.0-1.12","3","4","4","3","4","3","4","3","4","4","4","5","4","4","5","4","5","4","5","5","2","1","1","2","2","1","2","1","2","0","0","1","1","0","0","0","1","0","1","1","0","1","0","1","5","2","4","2","4","","2","3","4","4","2","768791430436229121","叶","403","","","","","","","","","","","","","","","","","","","true","4","4","ability","708","self","自己","","","","","","","","","","","","","","","","",""
"null","","null","html-keyboard-response","134","249650","0.0-6.0-0.0-8.0-0.13","3","4","4","3","4","3","4","3","4","4","4","5","4","4","5","4","5","4","5","5","2","1","1","2","2","1","2","1","2","0","0","1","1","0","0","0","1","0","1","1","0","1","0","1","5","2","4","2","4","","2","3","4","4","2","768791430436229121","叶","403","","","","","","","","","","","","","","","","","","","","","","","","","","","","","","","","","","","","","","","","","",""
"849","<p style=""color:white; font-size: 35px;"">低能</p>","i","categorize-html","135","250500","0.0-6.0-0.0-8.0-1.13","3","4","4","3","4","3","4","3","4","4","4","5","4","4","5","4","5","4","5","5","2","1","1","2","2","1","2","1","2","0","0","1","1","0","0","0","1","0","1","1","0","1","0","1","5","2","4","2","4","","2","3","4","4","2","768791430436229121","叶","403","","","","","","","","","","","","","","","","","","","true","4","4","ability","849","negative","低能","","","","","","","","","","","","","","","","",""
"null","","null","html-keyboard-response","136","250752","0.0-6.0-0.0-8.0-0.14","3","4","4","3","4","3","4","3","4","4","4","5","4","4","5","4","5","4","5","5","2","1","1","2","2","1","2","1","2","0","0","1","1","0","0","0","1","0","1","1","0","1","0","1","5","2","4","2","4","","2","3","4","4","2","768791430436229121","叶","403","","","","","","","","","","","","","","","","","","","","","","","","","","","","","","","","","","","","","","","","","",""
"585","<p style=""color:rgb(150, 250, 100); font-size: 35px;"">别人</p>","i","categorize-html","137","251338","0.0-6.0-0.0-8.0-1.14","3","4","4","3","4","3","4","3","4","4","4","5","4","4","5","4","5","4","5","5","2","1","1","2","2","1","2","1","2","0","0","1","1","0","0","0","1","0","1","1","0","1","0","1","5","2","4","2","4","","2","3","4","4","2","768791430436229121","叶","403","","","","","","","","","","","","","","","","","","","true","4","4","ability","585","other","别人","","","","","","","","","","","","","","","","",""
"null","","null","html-keyboard-response","138","251590","0.0-6.0-0.0-8.0-0.15","3","4","4","3","4","3","4","3","4","4","4","5","4","4","5","4","5","4","5","5","2","1","1","2","2","1","2","1","2","0","0","1","1","0","0","0","1","0","1","1","0","1","0","1","5","2","4","2","4","","2","3","4","4","2","768791430436229121","叶","403","","","","","","","","","","","","","","","","","","","","","","","","","","","","","","","","","","","","","","","","","",""
"1546","<p style=""color:white; font-size: 35px;"">高效</p>","e","categorize-html","139","253137","0.0-6.0-0.0-8.0-1.15","3","4","4","3","4","3","4","3","4","4","4","5","4","4","5","4","5","4","5","5","2","1","1","2","2","1","2","1","2","0","0","1","1","0","0","0","1","0","1","1","0","1","0","1","5","2","4","2","4","","2","3","4","4","2","768791430436229121","叶","403","","","","","","","","","","","","","","","","","","","true","4","4","ability","1546","positive","高效","","","","","","","","","","","","","","","","",""
"null","","null","html-keyboard-response","140","253388","0.0-6.0-0.0-8.0-0.16","3","4","4","3","4","3","4","3","4","4","4","5","4","4","5","4","5","4","5","5","2","1","1","2","2","1","2","1","2","0","0","1","1","0","0","0","1","0","1","1","0","1","0","1","5","2","4","2","4","","2","3","4","4","2","768791430436229121","叶","403","","","","","","","","","","","","","","","","","","","","","","","","","","","","","","","","","","","","","","","","","",""
"413","<p style=""color:rgb(150, 250, 100); font-size: 35px;"">我</p>","e","categorize-html","141","253802","0.0-6.0-0.0-8.0-1.16","3","4","4","3","4","3","4","3","4","4","4","5","4","4","5","4","5","4","5","5","2","1","1","2","2","1","2","1","2","0","0","1","1","0","0","0","1","0","1","1","0","1","0","1","5","2","4","2","4","","2","3","4","4","2","768791430436229121","叶","403","","","","","","","","","","","","","","","","","","","true","4","4","ability","413","self","我","","","","","","","","","","","","","","","","",""
"null","","null","html-keyboard-response","142","254054","0.0-6.0-0.0-8.0-0.17","3","4","4","3","4","3","4","3","4","4","4","5","4","4","5","4","5","4","5","5","2","1","1","2","2","1","2","1","2","0","0","1","1","0","0","0","1","0","1","1","0","1","0","1","5","2","4","2","4","","2","3","4","4","2","768791430436229121","叶","403","","","","","","","","","","","","","","","","","","","","","","","","","","","","","","","","","","","","","","","","","",""
"540","<p style=""color:white; font-size: 35px;"">天才</p>","e","categorize-html","143","254594","0.0-6.0-0.0-8.0-1.17","3","4","4","3","4","3","4","3","4","4","4","5","4","4","5","4","5","4","5","5","2","1","1","2","2","1","2","1","2","0","0","1","1","0","0","0","1","0","1","1","0","1","0","1","5","2","4","2","4","","2","3","4","4","2","768791430436229121","叶","403","","","","","","","","","","","","","","","","","","","true","4","4","ability","540","positive","天才","","","","","","","","","","","","","","","","",""
"null","","null","html-keyboard-response","144","254845","0.0-6.0-0.0-8.0-0.18","3","4","4","3","4","3","4","3","4","4","4","5","4","4","5","4","5","4","5","5","2","1","1","2","2","1","2","1","2","0","0","1","1","0","0","0","1","0","1","1","0","1","0","1","5","2","4","2","4","","2","3","4","4","2","768791430436229121","叶","403","","","","","","","","","","","","","","","","","","","","","","","","","","","","","","","","","","","","","","","","","",""
"567","<p style=""color:rgb(150, 250, 100); font-size: 35px;"">他人的</p>","i","categorize-html","145","255414","0.0-6.0-0.0-8.0-1.18","3","4","4","3","4","3","4","3","4","4","4","5","4","4","5","4","5","4","5","5","2","1","1","2","2","1","2","1","2","0","0","1","1","0","0","0","1","0","1","1","0","1","0","1","5","2","4","2","4","","2","3","4","4","2","768791430436229121","叶","403","","","","","","","","","","","","","","","","","","","true","4","4","ability","567","other","他人的","","","","","","","","","","","","","","","","",""
"null","","null","html-keyboard-response","146","255666","0.0-6.0-0.0-8.0-0.19","3","4","4","3","4","3","4","3","4","4","4","5","4","4","5","4","5","4","5","5","2","1","1","2","2","1","2","1","2","0","0","1","1","0","0","0","1","0","1","1","0","1","0","1","5","2","4","2","4","","2","3","4","4","2","768791430436229121","叶","403","","","","","","","","","","","","","","","","","","","","","","","","","","","","","","","","","","","","","","","","","",""
"1033","<p style=""color:white; font-size: 35px;"">废物</p>","i","categorize-html","147","256699","0.0-6.0-0.0-8.0-1.19","3","4","4","3","4","3","4","3","4","4","4","5","4","4","5","4","5","4","5","5","2","1","1","2","2","1","2","1","2","0","0","1","1","0","0","0","1","0","1","1","0","1","0","1","5","2","4","2","4","","2","3","4","4","2","768791430436229121","叶","403","","","","","","","","","","","","","","","","","","","true","4","4","ability","1033","negative","废物","","","","","","","","","","","","","","","","",""
"null","","null","html-keyboard-response","148","256950","0.0-6.0-0.0-8.0-0.20","3","4","4","3","4","3","4","3","4","4","4","5","4","4","5","4","5","4","5","5","2","1","1","2","2","1","2","1","2","0","0","1","1","0","0","0","1","0","1","1","0","1","0","1","5","2","4","2","4","","2","3","4","4","2","768791430436229121","叶","403","","","","","","","","","","","","","","","","","","","","","","","","","","","","","","","","","","","","","","","","","",""
"527","<p style=""color:rgb(150, 250, 100); font-size: 35px;"">我的</p>","e","categorize-html","149","257478","0.0-6.0-0.0-8.0-1.20","3","4","4","3","4","3","4","3","4","4","4","5","4","4","5","4","5","4","5","5","2","1","1","2","2","1","2","1","2","0","0","1","1","0","0","0","1","0","1","1","0","1","0","1","5","2","4","2","4","","2","3","4","4","2","768791430436229121","叶","403","","","","","","","","","","","","","","","","","","","true","4","4","ability","527","self","我的","","","","","","","","","","","","","","","","",""
"null","","null","html-keyboard-response","150","257730","0.0-6.0-0.0-8.0-0.21","3","4","4","3","4","3","4","3","4","4","4","5","4","4","5","4","5","4","5","5","2","1","1","2","2","1","2","1","2","0","0","1","1","0","0","0","1","0","1","1","0","1","0","1","5","2","4","2","4","","2","3","4","4","2","768791430436229121","叶","403","","","","","","","","","","","","","","","","","","","","","","","","","","","","","","","","","","","","","","","","","",""
"568","<p style=""color:white; font-size: 35px;"">能干</p>","e","categorize-html","151","258300","0.0-6.0-0.0-8.0-1.21","3","4","4","3","4","3","4","3","4","4","4","5","4","4","5","4","5","4","5","5","2","1","1","2","2","1","2","1","2","0","0","1","1","0","0","0","1","0","1","1","0","1","0","1","5","2","4","2","4","","2","3","4","4","2","768791430436229121","叶","403","","","","","","","","","","","","","","","","","","","true","4","4","ability","568","positive","能干","","","","","","","","","","","","","","","","",""
"null","","null","html-keyboard-response","152","258552","0.0-6.0-0.0-8.0-0.22","3","4","4","3","4","3","4","3","4","4","4","5","4","4","5","4","5","4","5","5","2","1","1","2","2","1","2","1","2","0","0","1","1","0","0","0","1","0","1","1","0","1","0","1","5","2","4","2","4","","2","3","4","4","2","768791430436229121","叶","403","","","","","","","","","","","","","","","","","","","","","","","","","","","","","","","","","","","","","","","","","",""
"627","<p style=""color:rgb(150, 250, 100); font-size: 35px;"">别人的</p>","i","categorize-html","153","259181","0.0-6.0-0.0-8.0-1.22","3","4","4","3","4","3","4","3","4","4","4","5","4","4","5","4","5","4","5","5","2","1","1","2","2","1","2","1","2","0","0","1","1","0","0","0","1","0","1","1","0","1","0","1","5","2","4","2","4","","2","3","4","4","2","768791430436229121","叶","403","","","","","","","","","","","","","","","","","","","true","4","4","ability","627","other","别人的","","","","","","","","","","","","","","","","",""
"null","","null","html-keyboard-response","154","259432","0.0-6.0-0.0-8.0-0.23","3","4","4","3","4","3","4","3","4","4","4","5","4","4","5","4","5","4","5","5","2","1","1","2","2","1","2","1","2","0","0","1","1","0","0","0","1","0","1","1","0","1","0","1","5","2","4","2","4","","2","3","4","4","2","768791430436229121","叶","403","","","","","","","","","","","","","","","","","","","","","","","","","","","","","","","","","","","","","","","","","",""
"574","<p style=""color:white; font-size: 35px;"">无能</p>","i","categorize-html","155","260007","0.0-6.0-0.0-8.0-1.23","3","4","4","3","4","3","4","3","4","4","4","5","4","4","5","4","5","4","5","5","2","1","1","2","2","1","2","1","2","0","0","1","1","0","0","0","1","0","1","1","0","1","0","1","5","2","4","2","4","","2","3","4","4","2","768791430436229121","叶","403","","","","","","","","","","","","","","","","","","","true","4","4","ability","574","negative","无能","","","","","","","","","","","","","","","","",""
"null","","null","html-keyboard-response","156","260259","0.0-6.0-0.0-8.0-0.24","3","4","4","3","4","3","4","3","4","4","4","5","4","4","5","4","5","4","5","5","2","1","1","2","2","1","2","1","2","0","0","1","1","0","0","0","1","0","1","1","0","1","0","1","5","2","4","2","4","","2","3","4","4","2","768791430436229121","叶","403","","","","","","","","","","","","","","","","","","","","","","","","","","","","","","","","","","","","","","","","","",""
"759","<p style=""color:rgb(150, 250, 100); font-size: 35px;"">他人</p>","i","categorize-html","157","261019","0.0-6.0-0.0-8.0-1.24","3","4","4","3","4","3","4","3","4","4","4","5","4","4","5","4","5","4","5","5","2","1","1","2","2","1","2","1","2","0","0","1","1","0","0","0","1","0","1","1","0","1","0","1","5","2","4","2","4","","2","3","4","4","2","768791430436229121","叶","403","","","","","","","","","","","","","","","","","","","true","4","4","ability","759","other","他人","","","","","","","","","","","","","","","","",""
"null","","null","html-keyboard-response","158","261270","0.0-6.0-0.0-8.0-0.25","3","4","4","3","4","3","4","3","4","4","4","5","4","4","5","4","5","4","5","5","2","1","1","2","2","1","2","1","2","0","0","1","1","0","0","0","1","0","1","1","0","1","0","1","5","2","4","2","4","","2","3","4","4","2","768791430436229121","叶","403","","","","","","","","","","","","","","","","","","","","","","","","","","","","","","","","","","","","","","","","","",""
"613","<p style=""color:white; font-size: 35px;"">全才</p>","e","categorize-html","159","261884","0.0-6.0-0.0-8.0-1.25","3","4","4","3","4","3","4","3","4","4","4","5","4","4","5","4","5","4","5","5","2","1","1","2","2","1","2","1","2","0","0","1","1","0","0","0","1","0","1","1","0","1","0","1","5","2","4","2","4","","2","3","4","4","2","768791430436229121","叶","403","","","","","","","","","","","","","","","","","","","true","4","4","ability","613","positive","全才","","","","","","","","","","","","","","","","",""
"null","","null","html-keyboard-response","160","262136","0.0-6.0-0.0-8.0-0.26","3","4","4","3","4","3","4","3","4","4","4","5","4","4","5","4","5","4","5","5","2","1","1","2","2","1","2","1","2","0","0","1","1","0","0","0","1","0","1","1","0","1","0","1","5","2","4","2","4","","2","3","4","4","2","768791430436229121","叶","403","","","","","","","","","","","","","","","","","","","","","","","","","","","","","","","","","","","","","","","","","",""
"463","<p style=""color:rgb(150, 250, 100); font-size: 35px;"">自己</p>","e","categorize-html","161","262600","0.0-6.0-0.0-8.0-1.26","3","4","4","3","4","3","4","3","4","4","4","5","4","4","5","4","5","4","5","5","2","1","1","2","2","1","2","1","2","0","0","1","1","0","0","0","1","0","1","1","0","1","0","1","5","2","4","2","4","","2","3","4","4","2","768791430436229121","叶","403","","","","","","","","","","","","","","","","","","","true","4","4","ability","463","self","自己","","","","","","","","","","","","","","","","",""
"null","","null","html-keyboard-response","162","262852","0.0-6.0-0.0-8.0-0.27","3","4","4","3","4","3","4","3","4","4","4","5","4","4","5","4","5","4","5","5","2","1","1","2","2","1","2","1","2","0","0","1","1","0","0","0","1","0","1","1","0","1","0","1","5","2","4","2","4","","2","3","4","4","2","768791430436229121","叶","403","","","","","","","","","","","","","","","","","","","","","","","","","","","","","","","","","","","","","","","","","",""
"602","<p style=""color:white; font-size: 35px;"">愚钝</p>","i","categorize-html","163","263455","0.0-6.0-0.0-8.0-1.27","3","4","4","3","4","3","4","3","4","4","4","5","4","4","5","4","5","4","5","5","2","1","1","2","2","1","2","1","2","0","0","1","1","0","0","0","1","0","1","1","0","1","0","1","5","2","4","2","4","","2","3","4","4","2","768791430436229121","叶","403","","","","","","","","","","","","","","","","","","","true","4","4","ability","602","negative","愚钝","","","","","","","","","","","","","","","","",""
"null","","null","html-keyboard-response","164","263708","0.0-6.0-0.0-8.0-0.28","3","4","4","3","4","3","4","3","4","4","4","5","4","4","5","4","5","4","5","5","2","1","1","2","2","1","2","1","2","0","0","1","1","0","0","0","1","0","1","1","0","1","0","1","5","2","4","2","4","","2","3","4","4","2","768791430436229121","叶","403","","","","","","","","","","","","","","","","","","","","","","","","","","","","","","","","","","","","","","","","","",""
"619","<p style=""color:rgb(150, 250, 100); font-size: 35px;"">自己的</p>","e","categorize-html","165","264328","0.0-6.0-0.0-8.0-1.28","3","4","4","3","4","3","4","3","4","4","4","5","4","4","5","4","5","4","5","5","2","1","1","2","2","1","2","1","2","0","0","1","1","0","0","0","1","0","1","1","0","1","0","1","5","2","4","2","4","","2","3","4","4","2","768791430436229121","叶","403","","","","","","","","","","","","","","","","","","","true","4","4","ability","619","self","自己的","","","","","","","","","","","","","","","","",""
"null","","null","html-keyboard-response","166","264579","0.0-6.0-0.0-8.0-0.29","3","4","4","3","4","3","4","3","4","4","4","5","4","4","5","4","5","4","5","5","2","1","1","2","2","1","2","1","2","0","0","1","1","0","0","0","1","0","1","1","0","1","0","1","5","2","4","2","4","","2","3","4","4","2","768791430436229121","叶","403","","","","","","","","","","","","","","","","","","","","","","","","","","","","","","","","","","","","","","","","","",""
"709","<p style=""color:white; font-size: 35px;"">高效</p>","e","categorize-html","167","265289","0.0-6.0-0.0-8.0-1.29","3","4","4","3","4","3","4","3","4","4","4","5","4","4","5","4","5","4","5","5","2","1","1","2","2","1","2","1","2","0","0","1","1","0","0","0","1","0","1","1","0","1","0","1","5","2","4","2","4","","2","3","4","4","2","768791430436229121","叶","403","","","","","","","","","","","","","","","","","","","true","4","4","ability","709","positive","高效","","","","","","","","","","","","","","","","",""
"null","","null","html-keyboard-response","168","265539","0.0-6.0-0.0-8.0-0.30","3","4","4","3","4","3","4","3","4","4","4","5","4","4","5","4","5","4","5","5","2","1","1","2","2","1","2","1","2","0","0","1","1","0","0","0","1","0","1","1","0","1","0","1","5","2","4","2","4","","2","3","4","4","2","768791430436229121","叶","403","","","","","","","","","","","","","","","","","","","","","","","","","","","","","","","","","","","","","","","","","",""
"569","<p style=""color:rgb(150, 250, 100); font-size: 35px;"">他人</p>","i","categorize-html","169","266110","0.0-6.0-0.0-8.0-1.30","3","4","4","3","4","3","4","3","4","4","4","5","4","4","5","4","5","4","5","5","2","1","1","2","2","1","2","1","2","0","0","1","1","0","0","0","1","0","1","1","0","1","0","1","5","2","4","2","4","","2","3","4","4","2","768791430436229121","叶","403","","","","","","","","","","","","","","","","","","","true","4","4","ability","569","other","他人","","","","","","","","","","","","","","","","",""
"null","","null","html-keyboard-response","170","266361","0.0-6.0-0.0-8.0-0.31","3","4","4","3","4","3","4","3","4","4","4","5","4","4","5","4","5","4","5","5","2","1","1","2","2","1","2","1","2","0","0","1","1","0","0","0","1","0","1","1","0","1","0","1","5","2","4","2","4","","2","3","4","4","2","768791430436229121","叶","403","","","","","","","","","","","","","","","","","","","","","","","","","","","","","","","","","","","","","","","","","",""
"453","<p style=""color:white; font-size: 35px;"">拙笨</p>","i","categorize-html","171","266816","0.0-6.0-0.0-8.0-1.31","3","4","4","3","4","3","4","3","4","4","4","5","4","4","5","4","5","4","5","5","2","1","1","2","2","1","2","1","2","0","0","1","1","0","0","0","1","0","1","1","0","1","0","1","5","2","4","2","4","","2","3","4","4","2","768791430436229121","叶","403","","","","","","","","","","","","","","","","","","","true","4","4","ability","453","negative","拙笨","","","","","","","","","","","","","","","","",""
"null","","null","html-keyboard-response","172","267068","0.0-6.0-0.0-8.0-0.32","3","4","4","3","4","3","4","3","4","4","4","5","4","4","5","4","5","4","5","5","2","1","1","2","2","1","2","1","2","0","0","1","1","0","0","0","1","0","1","1","0","1","0","1","5","2","4","2","4","","2","3","4","4","2","768791430436229121","叶","403","","","","","","","","","","","","","","","","","","","","","","","","","","","","","","","","","","","","","","","","","",""
"512","<p style=""color:rgb(150, 250, 100); font-size: 35px;"">他人的</p>","i","categorize-html","173","267580","0.0-6.0-0.0-8.0-1.32","3","4","4","3","4","3","4","3","4","4","4","5","4","4","5","4","5","4","5","5","2","1","1","2","2","1","2","1","2","0","0","1","1","0","0","0","1","0","1","1","0","1","0","1","5","2","4","2","4","","2","3","4","4","2","768791430436229121","叶","403","","","","","","","","","","","","","","","","","","","true","4","4","ability","512","other","他人的","","","","","","","","","","","","","","","","",""
"null","","null","html-keyboard-response","174","267831","0.0-6.0-0.0-8.0-0.33","3","4","4","3","4","3","4","3","4","4","4","5","4","4","5","4","5","4","5","5","2","1","1","2","2","1","2","1","2","0","0","1","1","0","0","0","1","0","1","1","0","1","0","1","5","2","4","2","4","","2","3","4","4","2","768791430436229121","叶","403","","","","","","","","","","","","","","","","","","","","","","","","","","","","","","","","","","","","","","","","","",""
"556","<p style=""color:white; font-size: 35px;"">全才</p>","e","categorize-html","175","268388","0.0-6.0-0.0-8.0-1.33","3","4","4","3","4","3","4","3","4","4","4","5","4","4","5","4","5","4","5","5","2","1","1","2","2","1","2","1","2","0","0","1","1","0","0","0","1","0","1","1","0","1","0","1","5","2","4","2","4","","2","3","4","4","2","768791430436229121","叶","403","","","","","","","","","","","","","","","","","","","true","4","4","ability","556","positive","全才","","","","","","","","","","","","","","","","",""
"null","","null","html-keyboard-response","176","268649","0.0-6.0-0.0-8.0-0.34","3","4","4","3","4","3","4","3","4","4","4","5","4","4","5","4","5","4","5","5","2","1","1","2","2","1","2","1","2","0","0","1","1","0","0","0","1","0","1","1","0","1","0","1","5","2","4","2","4","","2","3","4","4","2","768791430436229121","叶","403","","","","","","","","","","","","","","","","","","","","","","","","","","","","","","","","","","","","","","","","","",""
"2684","<p style=""color:rgb(150, 250, 100); font-size: 35px;"">我的</p>","e","categorize-html","177","271334","0.0-6.0-0.0-8.0-1.34","3","4","4","3","4","3","4","3","4","4","4","5","4","4","5","4","5","4","5","5","2","1","1","2","2","1","2","1","2","0","0","1","1","0","0","0","1","0","1","1","0","1","0","1","5","2","4","2","4","","2","3","4","4","2","768791430436229121","叶","403","","","","","","","","","","","","","","","","","","","true","4","4","ability","2684","self","我的","","","","","","","","","","","","","","","","",""
"null","","null","html-keyboard-response","178","271585","0.0-6.0-0.0-8.0-0.35","3","4","4","3","4","3","4","3","4","4","4","5","4","4","5","4","5","4","5","5","2","1","1","2","2","1","2","1","2","0","0","1","1","0","0","0","1","0","1","1","0","1","0","1","5","2","4","2","4","","2","3","4","4","2","768791430436229121","叶","403","","","","","","","","","","","","","","","","","","","","","","","","","","","","","","","","","","","","","","","","","",""
"1373","<p style=""color:white; font-size: 35px;"">低能</p>","i","categorize-html","179","272961","0.0-6.0-0.0-8.0-1.35","3","4","4","3","4","3","4","3","4","4","4","5","4","4","5","4","5","4","5","5","2","1","1","2","2","1","2","1","2","0","0","1","1","0","0","0","1","0","1","1","0","1","0","1","5","2","4","2","4","","2","3","4","4","2","768791430436229121","叶","403","","","","","","","","","","","","","","","","","","","true","4","4","ability","1373","negative","低能","","","","","","","","","","","","","","","","",""
"null","","null","html-keyboard-response","180","273211","0.0-6.0-0.0-8.0-0.36","3","4","4","3","4","3","4","3","4","4","4","5","4","4","5","4","5","4","5","5","2","1","1","2","2","1","2","1","2","0","0","1","1","0","0","0","1","0","1","1","0","1","0","1","5","2","4","2","4","","2","3","4","4","2","768791430436229121","叶","403","","","","","","","","","","","","","","","","","","","","","","","","","","","","","","","","","","","","","","","","","",""
"509","<p style=""color:rgb(150, 250, 100); font-size: 35px;"">本人</p>","e","categorize-html","181","273721","0.0-6.0-0.0-8.0-1.36","3","4","4","3","4","3","4","3","4","4","4","5","4","4","5","4","5","4","5","5","2","1","1","2","2","1","2","1","2","0","0","1","1","0","0","0","1","0","1","1","0","1","0","1","5","2","4","2","4","","2","3","4","4","2","768791430436229121","叶","403","","","","","","","","","","","","","","","","","","","true","4","4","ability","509","self","本人","","","","","","","","","","","","","","","","",""
"null","","null","html-keyboard-response","182","273973","0.0-6.0-0.0-8.0-0.37","3","4","4","3","4","3","4","3","4","4","4","5","4","4","5","4","5","4","5","5","2","1","1","2","2","1","2","1","2","0","0","1","1","0","0","0","1","0","1","1","0","1","0","1","5","2","4","2","4","","2","3","4","4","2","768791430436229121","叶","403","","","","","","","","","","","","","","","","","","","","","","","","","","","","","","","","","","","","","","","","","",""
"543","<p style=""color:white; font-size: 35px;"">蠢笨</p>","i","categorize-html","183","274517","0.0-6.0-0.0-8.0-1.37","3","4","4","3","4","3","4","3","4","4","4","5","4","4","5","4","5","4","5","5","2","1","1","2","2","1","2","1","2","0","0","1","1","0","0","0","1","0","1","1","0","1","0","1","5","2","4","2","4","","2","3","4","4","2","768791430436229121","叶","403","","","","","","","","","","","","","","","","","","","true","4","4","ability","543","negative","蠢笨","","","","","","","","","","","","","","","","",""
"null","","null","html-keyboard-response","184","274768","0.0-6.0-0.0-8.0-0.38","3","4","4","3","4","3","4","3","4","4","4","5","4","4","5","4","5","4","5","5","2","1","1","2","2","1","2","1","2","0","0","1","1","0","0","0","1","0","1","1","0","1","0","1","5","2","4","2","4","","2","3","4","4","2","768791430436229121","叶","403","","","","","","","","","","","","","","","","","","","","","","","","","","","","","","","","","","","","","","","","","",""
"510","<p style=""color:rgb(150, 250, 100); font-size: 35px;"">别人的</p>","i","categorize-html","185","275280","0.0-6.0-0.0-8.0-1.38","3","4","4","3","4","3","4","3","4","4","4","5","4","4","5","4","5","4","5","5","2","1","1","2","2","1","2","1","2","0","0","1","1","0","0","0","1","0","1","1","0","1","0","1","5","2","4","2","4","","2","3","4","4","2","768791430436229121","叶","403","","","","","","","","","","","","","","","","","","","true","4","4","ability","510","other","别人的","","","","","","","","","","","","","","","","",""
"null","","null","html-keyboard-response","186","275532","0.0-6.0-0.0-8.0-0.39","3","4","4","3","4","3","4","3","4","4","4","5","4","4","5","4","5","4","5","5","2","1","1","2","2","1","2","1","2","0","0","1","1","0","0","0","1","0","1","1","0","1","0","1","5","2","4","2","4","","2","3","4","4","2","768791430436229121","叶","403","","","","","","","","","","","","","","","","","","","","","","","","","","","","","","","","","","","","","","","","","",""
"576","<p style=""color:white; font-size: 35px;"">天才</p>","e","categorize-html","187","276109","0.0-6.0-0.0-8.0-1.39","3","4","4","3","4","3","4","3","4","4","4","5","4","4","5","4","5","4","5","5","2","1","1","2","2","1","2","1","2","0","0","1","1","0","0","0","1","0","1","1","0","1","0","1","5","2","4","2","4","","2","3","4","4","2","768791430436229121","叶","403","","","","","","","","","","","","","","","","","","","true","4","4","ability","576","positive","天才","","","","","","","","","","","","","","","","",""
"null","","null","html-keyboard-response","188","276360","0.0-6.0-0.0-8.0-0.40","3","4","4","3","4","3","4","3","4","4","4","5","4","4","5","4","5","4","5","5","2","1","1","2","2","1","2","1","2","0","0","1","1","0","0","0","1","0","1","1","0","1","0","1","5","2","4","2","4","","2","3","4","4","2","768791430436229121","叶","403","","","","","","","","","","","","","","","","","","","","","","","","","","","","","","","","","","","","","","","","","",""
"774","<p style=""color:rgb(150, 250, 100); font-size: 35px;"">他</p>","i","categorize-html","189","277135","0.0-6.0-0.0-8.0-1.40","3","4","4","3","4","3","4","3","4","4","4","5","4","4","5","4","5","4","5","5","2","1","1","2","2","1","2","1","2","0","0","1","1","0","0","0","1","0","1","1","0","1","0","1","5","2","4","2","4","","2","3","4","4","2","768791430436229121","叶","403","","","","","","","","","","","","","","","","","","","true","4","4","ability","774","other","他","","","","","","","","","","","","","","","","",""
"null","","null","html-keyboard-response","190","277388","0.0-6.0-0.0-8.0-0.41","3","4","4","3","4","3","4","3","4","4","4","5","4","4","5","4","5","4","5","5","2","1","1","2","2","1","2","1","2","0","0","1","1","0","0","0","1","0","1","1","0","1","0","1","5","2","4","2","4","","2","3","4","4","2","768791430436229121","叶","403","","","","","","","","","","","","","","","","","","","","","","","","","","","","","","","","","","","","","","","","","",""
"651","<p style=""color:white; font-size: 35px;"">精干</p>","e","categorize-html","191","278040","0.0-6.0-0.0-8.0-1.41","3","4","4","3","4","3","4","3","4","4","4","5","4","4","5","4","5","4","5","5","2","1","1","2","2","1","2","1","2","0","0","1","1","0","0","0","1","0","1","1","0","1","0","1","5","2","4","2","4","","2","3","4","4","2","768791430436229121","叶","403","","","","","","","","","","","","","","","","","","","true","4","4","ability","651","positive","精干","","","","","","","","","","","","","","","","",""
"null","","null","html-keyboard-response","192","278291","0.0-6.0-0.0-8.0-0.42","3","4","4","3","4","3","4","3","4","4","4","5","4","4","5","4","5","4","5","5","2","1","1","2","2","1","2","1","2","0","0","1","1","0","0","0","1","0","1","1","0","1","0","1","5","2","4","2","4","","2","3","4","4","2","768791430436229121","叶","403","","","","","","","","","","","","","","","","","","","","","","","","","","","","","","","","","","","","","","","","","",""
"593","<p style=""color:rgb(150, 250, 100); font-size: 35px;"">本人</p>","e","categorize-html","193","278885","0.0-6.0-0.0-8.0-1.42","3","4","4","3","4","3","4","3","4","4","4","5","4","4","5","4","5","4","5","5","2","1","1","2","2","1","2","1","2","0","0","1","1","0","0","0","1","0","1","1","0","1","0","1","5","2","4","2","4","","2","3","4","4","2","768791430436229121","叶","403","","","","","","","","","","","","","","","","","","","true","4","4","ability","593","self","本人","","","","","","","","","","","","","","","","",""
