"rt","stimulus","response","trial_type","trial_index","time_elapsed","internal_node_id","ses_1","ses_2","ses_3","ses_4","ses_5","ses_6","ses_7","ses_8","ses_9","ses_10","coreself_1","coreself_2","coreself_3","coreself_4","coreself_5","coreself_6","coreself_7","coreself_8","coreself_9","coreself_10","SGPS_1","SGPS_2","SGPS_3","SGPS_4","SGPS_5","SGPS_6","SGPS_7","SGPS_8","SGPS_9","NPI1","NPI2","NPI3","NPI4","NPI5","NPI6","NPI7","NPI8","NPI9","NPI10","NPI11","NPI12","NPI13","NPI14","NPI15","hsns_1","hsns_2","hsns_3","hsns_4","hsns_5","trap1","hsns_6","hsns_7","hsns_8","hsns_9","hsns_10","subj_idx","friend_name","ParticipantID","value","success","user_agent","responses","item_order","radio_event_ids","radio_event_times","key_event_times","mouse_event_times","straightlining","zigzagging","honeypot","timeout","failed_images","failed_audio","failed_video","view_history","response_type","key_press","avg_frame_time","center_x","center_y","correct_response","correct","identity","Image","word","condition","task_id","screen_id","time_stamp","version_attrib","version_target","IAT","RT","varname","summary","version_attrib2","version_target2","question_order","correct_answer","trap1_item"
"14468","
   <p><div style = ""color: white;font-size:25px;"">您好，欢迎参加本次实验。</div> </p>
   <p><div style = ""color: white;font-size:25px;"">为充分保障您的权利，请确保您已经知晓并同意《参与实验同意书》以及《数据公开知情同意书》。</div></p>
   <p><div style = ""color: white;font-size:25px;"">如果您未见过上述内容，请咨询实验员。</div></p>
   <p><div style = ""color: white;font-size:25px;"">如果您选择继续实验，则表示您已经清楚两份知情同意书的内容并同意。</div></p>
   <p><div style = ""color: pink;font-size:30px;"">请确保您记得day0的实验编号，您将在本次实验输入该编号，若您忘记，请咨询实验员后作答。</div></p>
   <p><div style = ""color: lightblue;font-size:25px;"">请您尽可能认真地作答，我们将依据您在各问卷和按键任务中的作答质量发放报酬。</div></p>
   <p> <div style = ""color: green;font-size:25px;""><按空格键至下页></div> </p>
   "," ","html-keyboard-response","0","14470","0.0-0.0","3","3","4","3","3","4","4","3","4","4","4","4","3","4","4","5","5","4","4","4","2","2","2","2","2","2","3","4","2","1","0","1","1","0","0","0","1","0","1","1","0","0","0","1","4","2","2","2","1","1","3","3","2","4","3","745687953166307329","王","24","","","","","","","","","","","","","","","","","","","","","","","","","","","","","","","","","","","","","","","","","",""
"","","","call-function","1","14471","0.0-1.0-0.0","3","3","4","3","3","4","4","3","4","4","4","4","3","4","4","5","5","4","4","4","2","2","2","2","2","2","3","4","2","1","0","1","1","0","0","0","1","0","1","1","0","0","0","1","4","2","2","2","1","1","3","3","2","4","3","745687953166307329","王","24","","","","","","","","","","","","","","","","","","","","","","","","","","","","","","","","","","","","","","","","","",""
"74641","","{""friend_name"":""王"",""ParticipantID"":""24""}","survey-html-form","2","89113","0.0-1.0-1.0","3","3","4","3","3","4","4","3","4","4","4","4","3","4","4","5","5","4","4","4","2","2","2","2","2","2","3","4","2","1","0","1","1","0","0","0","1","0","1","1","0","0","0","1","4","2","2","2","1","1","3","3","2","4","3","745687953166307329","王","24","","","","","","","","","","","","","","","","","","","","","","","","","","","","","","","","","","","","","","","","","",""
"","","","fullscreen","3","95357","0.0-2.0","3","3","4","3","3","4","4","3","4","4","4","4","3","4","4","5","5","4","4","4","2","2","2","2","2","2","3","4","2","1","0","1","1","0","0","0","1","0","1","1","0","0","0","1","4","2","2","2","1","1","3","3","2","4","3","745687953166307329","王","24","","true","{}","","","","","","","","","","","","","","","","","","","","","","","","","","","","","","","","","","","","","","",""
"27401","","{""Q01"":""3"",""Q02"":""3"",""Q03"":""4"",""Q04"":""3"",""Q05"":""3"",""Q06"":""4"",""Q07"":""4"",""Q08"":""3"",""Q09"":""4"",""Q10"":""4""}","survey-template","4","122760","0.0-3.0","3","3","4","3","3","4","4","3","4","4","4","4","3","4","4","5","5","4","4","4","2","2","2","2","2","2","3","4","2","1","0","1","1","0","0","0","1","0","1","1","0","0","0","1","4","2","2","2","1","1","3","3","2","4","3","745687953166307329","王","24","","","","{""Q01"":""3"",""Q02"":""3"",""Q03"":""4"",""Q04"":""3"",""Q05"":""3"",""Q06"":""4"",""Q07"":""4"",""Q08"":""3"",""Q09"":""4"",""Q10"":""4""}","[0,1,2,3,4,5,6,7,8,9]","[""Q01"",""Q02"",""Q03"",""Q04"",""Q05"",""Q06"",""Q07"",""Q07"",""Q08"",""Q09"",""Q10""]","[3584.5,4520.20000000298,6768.20000000298,7648.20000000298,9240.10000000894,11912.10000000894,16384.20000000298,20264.10000000894,21528.40000000596,23135.90000000596,24631.90000000596]","[]","[3584.5,4520.20000000298,6768.20000000298,7648.20000000298,9240.10000000894,11912.10000000894,13320.10000000894,16384.20000000298,20264.10000000894,21528.40000000596,23135.90000000596,24631.90000000596,27400.10000000894]","0.3","0.2222222222222222","0","","","","","","","","","","","","","","","","","","","","","","","","","","","","","",""
"21803.29999999702","","{""Q01"":""4"",""Q02"":""4"",""Q03"":""3"",""Q04"":""4"",""Q05"":""4"",""Q06"":""5"",""Q07"":""5"",""Q08"":""4"",""Q09"":""4"",""Q10"":""4""}","survey-template","5","144570","0.0-4.0","3","3","4","3","3","4","4","3","4","4","4","4","3","4","4","5","5","4","4","4","2","2","2","2","2","2","3","4","2","1","0","1","1","0","0","0","1","0","1","1","0","0","0","1","4","2","2","2","1","1","3","3","2","4","3","745687953166307329","王","24","","","","{""Q01"":""4"",""Q02"":""4"",""Q03"":""3"",""Q04"":""4"",""Q05"":""4"",""Q06"":""5"",""Q07"":""5"",""Q08"":""4"",""Q09"":""4"",""Q10"":""4""}","[0,1,2,3,4,5,6,7,8,9]","[""Q01"",""Q02"",""Q03"",""Q04"",""Q05"",""Q06"",""Q07"",""Q08"",""Q07"",""Q09"",""Q10""]","[3601,4777.100000008941,7297.100000008941,9729.10000000894,11785.10000000894,13889,15432.90000000596,16833,17929,19193.10000000894,21040.90000000596]","[]","[3601,4777.100000008941,7297.100000008941,9729.10000000894,11785.10000000894,13889,15432.90000000596,16833,17929,19193.10000000894,21040.90000000596,21801.90000000596]","0.4","0.4444444444444444","0","","","","","","","","","","","","","","","","","","","","","","","","","","","","","",""
"","","","preload","6","144738","0.0-5.0","3","3","4","3","3","4","4","3","4","4","4","4","3","4","4","5","5","4","4","4","2","2","2","2","2","2","3","4","2","1","0","1","1","0","0","0","1","0","1","1","0","0","0","1","4","2","2","2","1","1","3","3","2","4","3","745687953166307329","王","24","","true","","","","","","","","","","","false","[]","[]","[]","","","","","","","","","","","","","","","","","","","","","","","","","",""
"25253","","","instructions","7","169991","0.0-6.0","3","3","4","3","3","4","4","3","4","4","4","4","3","4","4","5","5","4","4","4","2","2","2","2","2","2","3","4","2","1","0","1","1","0","0","0","1","0","1","1","0","0","0","1","4","2","2","2","1","1","3","3","2","4","3","745687953166307329","王","24","","","","","","","","","","","","","","","","","[{""page_index"":0,""viewing_time"":25253}]","","","","","","","","","","","","","","","","","","","","","","","","",""
"31166","","","instructions","8","201159","0.0-7.0-1.0-0.0","3","3","4","3","3","4","4","3","4","4","4","4","3","4","4","5","5","4","4","4","2","2","2","2","2","2","3","4","2","1","0","1","1","0","0","0","1","0","1","1","0","0","0","1","4","2","2","2","1","1","3","3","2","4","3","745687953166307329","王","24","","","","","","","","","","","","","","","","","[{""page_index"":0,""viewing_time"":18478},{""page_index"":1,""viewing_time"":10383},{""page_index"":2,""viewing_time"":2304}]","","","","","","","","","","","","","","","","","","","","","","","","",""
"null","","null","psychophysics","9","203366","0.0-7.0-1.0-1.0-0.0-0.0","3","3","4","3","3","4","4","3","4","4","4","4","3","4","4","5","5","4","4","4","2","2","2","2","2","2","3","4","2","1","0","1","1","0","0","0","1","0","1","1","0","0","0","1","4","2","2","2","1","1","3","3","2","4","3","745687953166307329","王","24","","","","null","","","","","","","","","","","","","","key","null","16.707633587786127","768","428","j","false","nonmatch","img/square.png","梯形","方形","ALT1_2","prac_ALT1_2","","","","","","","","","","","",""
"null","<span class='add_' style='color:yellow; font-size: 70px;'> 太慢! </span>","null","html-keyboard-response","10","203868","0.0-7.0-1.0-1.0-0.0-1.0","3","3","4","3","3","4","4","3","4","4","4","4","3","4","4","5","5","4","4","4","2","2","2","2","2","2","3","4","2","1","0","1","1","0","0","0","1","0","1","1","0","0","0","1","4","2","2","2","1","1","3","3","2","4","3","745687953166307329","王","24","","","","","","","","","","","","","","","","","","","","","","","","","","","","","","feedback_test","","","","","","","","","","","",""
"898","","j","psychophysics","11","205767","0.0-7.0-1.0-1.0-0.0-0.1","3","3","4","3","3","4","4","3","4","4","4","4","3","4","4","5","5","4","4","4","2","2","2","2","2","2","3","4","2","1","0","1","1","0","0","0","1","0","1","1","0","0","0","1","4","2","2","2","1","1","3","3","2","4","3","745687953166307329","王","24","","","","nonmatch","","","","","","","","","","","","","","key","j","16.664601769911556","768","428","f","false","match","img/ellipse.png","椭圆","椭圆","ALT1_2","prac_ALT1_2","","","","","","","","","","","",""
"null","<span style='color:red; font-size: 70px;'>错误! </span>","null","html-keyboard-response","12","206268","0.0-7.0-1.0-1.0-0.0-1.1","3","3","4","3","3","4","4","3","4","4","4","4","3","4","4","5","5","4","4","4","2","2","2","2","2","2","3","4","2","1","0","1","1","0","0","0","1","0","1","1","0","0","0","1","4","2","2","2","1","1","3","3","2","4","3","745687953166307329","王","24","","","","","","","","","","","","","","","","","","","","","","","","","","","","","","feedback_test","","","","","","","","","","","",""
"857","","f","psychophysics","13","208127","0.0-7.0-1.0-1.0-0.0-0.2","3","3","4","3","3","4","4","3","4","4","4","4","3","4","4","5","5","4","4","4","2","2","2","2","2","2","3","4","2","1","0","1","1","0","0","0","1","0","1","1","0","0","0","1","4","2","2","2","1","1","3","3","2","4","3","745687953166307329","王","24","","","","match","","","","","","","","","","","","","","key","f","16.645045045045098","768","428","j","false","nonmatch","img/trapezoid.png","五边","梯形","ALT1_2","prac_ALT1_2","","","","","","","","","","","",""
"null","<span style='color:red; font-size: 70px;'>错误! </span>","null","html-keyboard-response","14","208629","0.0-7.0-1.0-1.0-0.0-1.2","3","3","4","3","3","4","4","3","4","4","4","4","3","4","4","5","5","4","4","4","2","2","2","2","2","2","3","4","2","1","0","1","1","0","0","0","1","0","1","1","0","0","0","1","4","2","2","2","1","1","3","3","2","4","3","745687953166307329","王","24","","","","","","","","","","","","","","","","","","","","","","","","","","","","","","feedback_test","","","","","","","","","","","",""
"793","","f","psychophysics","15","210424","0.0-7.0-1.0-1.0-0.0-0.3","3","3","4","3","3","4","4","3","4","4","4","4","3","4","4","5","5","4","4","4","2","2","2","2","2","2","3","4","2","1","0","1","1","0","0","0","1","0","1","1","0","0","0","1","4","2","2","2","1","1","3","3","2","4","3","745687953166307329","王","24","","","","match","","","","","","","","","","","","","","key","f","16.600934579439414","768","428","f","true","match","img/ellipse.png","椭圆","椭圆","ALT1_2","prac_ALT1_2","","","","","","","","","","","",""
"null","<span style='color:GreenYellow; font-size: 70px;'>正确! </span>","null","html-keyboard-response","16","210925","0.0-7.0-1.0-1.0-0.0-1.3","3","3","4","3","3","4","4","3","4","4","4","4","3","4","4","5","5","4","4","4","2","2","2","2","2","2","3","4","2","1","0","1","1","0","0","0","1","0","1","1","0","0","0","1","4","2","2","2","1","1","3","3","2","4","3","745687953166307329","王","24","","","","","","","","","","","","","","","","","","","","","","","","","","","","","","feedback_test","","","","","","","","","","","",""
"663","","f","psychophysics","17","212591","0.0-7.0-1.0-1.0-0.0-0.4","3","3","4","3","3","4","4","3","4","4","4","4","3","4","4","5","5","4","4","4","2","2","2","2","2","2","3","4","2","1","0","1","1","0","0","0","1","0","1","1","0","0","0","1","4","2","2","2","1","1","3","3","2","4","3","745687953166307329","王","24","","","","match","","","","","","","","","","","","","","key","f","16.63232323232329","768","428","f","true","match","img/pentagon.png","五边","五边","ALT1_2","prac_ALT1_2","","","","","","","","","","","",""
"null","<span style='color:GreenYellow; font-size: 70px;'>正确! </span>","null","html-keyboard-response","18","213092","0.0-7.0-1.0-1.0-0.0-1.4","3","3","4","3","3","4","4","3","4","4","4","4","3","4","4","5","5","4","4","4","2","2","2","2","2","2","3","4","2","1","0","1","1","0","0","0","1","0","1","1","0","0","0","1","4","2","2","2","1","1","3","3","2","4","3","745687953166307329","王","24","","","","","","","","","","","","","","","","","","","","","","","","","","","","","","feedback_test","","","","","","","","","","","",""
"810","","j","psychophysics","19","214903","0.0-7.0-1.0-1.0-0.0-0.5","3","3","4","3","3","4","4","3","4","4","4","4","3","4","4","5","5","4","4","4","2","2","2","2","2","2","3","4","2","1","0","1","1","0","0","0","1","0","1","1","0","0","0","1","4","2","2","2","1","1","3","3","2","4","3","745687953166307329","王","24","","","","nonmatch","","","","","","","","","","","","","","key","j","16.666666666666668","768","428","j","true","nonmatch","img/pentagon.png","椭圆","五边","ALT1_2","prac_ALT1_2","","","","","","","","","","","",""
"null","<span style='color:GreenYellow; font-size: 70px;'>正确! </span>","null","html-keyboard-response","20","215404","0.0-7.0-1.0-1.0-0.0-1.5","3","3","4","3","3","4","4","3","4","4","4","4","3","4","4","5","5","4","4","4","2","2","2","2","2","2","3","4","2","1","0","1","1","0","0","0","1","0","1","1","0","0","0","1","4","2","2","2","1","1","3","3","2","4","3","745687953166307329","王","24","","","","","","","","","","","","","","","","","","","","","","","","","","","","","","feedback_test","","","","","","","","","","","",""
"698","","f","psychophysics","21","217103","0.0-7.0-1.0-1.0-0.0-0.6","3","3","4","3","3","4","4","3","4","4","4","4","3","4","4","5","5","4","4","4","2","2","2","2","2","2","3","4","2","1","0","1","1","0","0","0","1","0","1","1","0","0","0","1","4","2","2","2","1","1","3","3","2","4","3","745687953166307329","王","24","","","","match","","","","","","","","","","","","","","key","f","16.66534653465358","768","428","f","true","match","img/trapezoid.png","梯形","梯形","ALT1_2","prac_ALT1_2","","","","","","","","","","","",""
"null","<span style='color:GreenYellow; font-size: 70px;'>正确! </span>","null","html-keyboard-response","22","217604","0.0-7.0-1.0-1.0-0.0-1.6","3","3","4","3","3","4","4","3","4","4","4","4","3","4","4","5","5","4","4","4","2","2","2","2","2","2","3","4","2","1","0","1","1","0","0","0","1","0","1","1","0","0","0","1","4","2","2","2","1","1","3","3","2","4","3","745687953166307329","王","24","","","","","","","","","","","","","","","","","","","","","","","","","","","","","","feedback_test","","","","","","","","","","","",""
"745","","j","psychophysics","23","219351","0.0-7.0-1.0-1.0-0.0-0.7","3","3","4","3","3","4","4","3","4","4","4","4","3","4","4","5","5","4","4","4","2","2","2","2","2","2","3","4","2","1","0","1","1","0","0","0","1","0","1","1","0","0","0","1","4","2","2","2","1","1","3","3","2","4","3","745687953166307329","王","24","","","","nonmatch","","","","","","","","","","","","","","key","j","16.66346153846154","768","428","j","true","nonmatch","img/ellipse.png","五边","椭圆","ALT1_2","prac_ALT1_2","","","","","","","","","","","",""
"null","<span style='color:GreenYellow; font-size: 70px;'>正确! </span>","null","html-keyboard-response","24","219852","0.0-7.0-1.0-1.0-0.0-1.7","3","3","4","3","3","4","4","3","4","4","4","4","3","4","4","5","5","4","4","4","2","2","2","2","2","2","3","4","2","1","0","1","1","0","0","0","1","0","1","1","0","0","0","1","4","2","2","2","1","1","3","3","2","4","3","745687953166307329","王","24","","","","","","","","","","","","","","","","","","","","","","","","","","","","","","feedback_test","","","","","","","","","","","",""
"594","","f","psychophysics","25","221448","0.0-7.0-1.0-1.0-0.0-0.8","3","3","4","3","3","4","4","3","4","4","4","4","3","4","4","5","5","4","4","4","2","2","2","2","2","2","3","4","2","1","0","1","1","0","0","0","1","0","1","1","0","0","0","1","4","2","2","2","1","1","3","3","2","4","3","745687953166307329","王","24","","","","match","","","","","","","","","","","","","","key","f","16.65368421052638","768","428","f","true","match","img/ellipse.png","椭圆","椭圆","ALT1_2","prac_ALT1_2","","","","","","","","","","","",""
"null","<span style='color:GreenYellow; font-size: 70px;'>正确! </span>","null","html-keyboard-response","26","221948","0.0-7.0-1.0-1.0-0.0-1.8","3","3","4","3","3","4","4","3","4","4","4","4","3","4","4","5","5","4","4","4","2","2","2","2","2","2","3","4","2","1","0","1","1","0","0","0","1","0","1","1","0","0","0","1","4","2","2","2","1","1","3","3","2","4","3","745687953166307329","王","24","","","","","","","","","","","","","","","","","","","","","","","","","","","","","","feedback_test","","","","","","","","","","","",""
"785","","j","psychophysics","27","223735","0.0-7.0-1.0-1.0-0.0-0.9","3","3","4","3","3","4","4","3","4","4","4","4","3","4","4","5","5","4","4","4","2","2","2","2","2","2","3","4","2","1","0","1","1","0","0","0","1","0","1","1","0","0","0","1","4","2","2","2","1","1","3","3","2","4","3","745687953166307329","王","24","","","","nonmatch","","","","","","","","","","","","","","key","j","16.66509433962264","768","428","j","true","nonmatch","img/trapezoid.png","方形","梯形","ALT1_2","prac_ALT1_2","","","","","","","","","","","",""
"null","<span style='color:GreenYellow; font-size: 70px;'>正确! </span>","null","html-keyboard-response","28","224236","0.0-7.0-1.0-1.0-0.0-1.9","3","3","4","3","3","4","4","3","4","4","4","4","3","4","4","5","5","4","4","4","2","2","2","2","2","2","3","4","2","1","0","1","1","0","0","0","1","0","1","1","0","0","0","1","4","2","2","2","1","1","3","3","2","4","3","745687953166307329","王","24","","","","","","","","","","","","","","","","","","","","","","","","","","","","","","feedback_test","","","","","","","","","","","",""
"571","","f","psychophysics","29","225808","0.0-7.0-1.0-1.0-0.0-0.10","3","3","4","3","3","4","4","3","4","4","4","4","3","4","4","5","5","4","4","4","2","2","2","2","2","2","3","4","2","1","0","1","1","0","0","0","1","0","1","1","0","0","0","1","4","2","2","2","1","1","3","3","2","4","3","745687953166307329","王","24","","","","match","","","","","","","","","","","","","","key","f","16.664516129032133","768","428","f","true","match","img/square.png","方形","方形","ALT1_2","prac_ALT1_2","","","","","","","","","","","",""
"null","<span style='color:GreenYellow; font-size: 70px;'>正确! </span>","null","html-keyboard-response","30","226308","0.0-7.0-1.0-1.0-0.0-1.10","3","3","4","3","3","4","4","3","4","4","4","4","3","4","4","5","5","4","4","4","2","2","2","2","2","2","3","4","2","1","0","1","1","0","0","0","1","0","1","1","0","0","0","1","4","2","2","2","1","1","3","3","2","4","3","745687953166307329","王","24","","","","","","","","","","","","","","","","","","","","","","","","","","","","","","feedback_test","","","","","","","","","","","",""
"931","","j","psychophysics","31","228241","0.0-7.0-1.0-1.0-0.0-0.11","3","3","4","3","3","4","4","3","4","4","4","4","3","4","4","5","5","4","4","4","2","2","2","2","2","2","3","4","2","1","0","1","1","0","0","0","1","0","1","1","0","0","0","1","4","2","2","2","1","1","3","3","2","4","3","745687953166307329","王","24","","","","nonmatch","","","","","","","","","","","","","","key","j","16.66521739130435","768","428","j","true","nonmatch","img/trapezoid.png","椭圆","梯形","ALT1_2","prac_ALT1_2","","","","","","","","","","","",""
"null","<span style='color:GreenYellow; font-size: 70px;'>正确! </span>","null","html-keyboard-response","32","228742","0.0-7.0-1.0-1.0-0.0-1.11","3","3","4","3","3","4","4","3","4","4","4","4","3","4","4","5","5","4","4","4","2","2","2","2","2","2","3","4","2","1","0","1","1","0","0","0","1","0","1","1","0","0","0","1","4","2","2","2","1","1","3","3","2","4","3","745687953166307329","王","24","","","","","","","","","","","","","","","","","","","","","","","","","","","","","","feedback_test","","","","","","","","","","","",""
"631","","f","psychophysics","33","230375","0.0-7.0-1.0-1.0-0.0-0.12","3","3","4","3","3","4","4","3","4","4","4","4","3","4","4","5","5","4","4","4","2","2","2","2","2","2","3","4","2","1","0","1","1","0","0","0","1","0","1","1","0","0","0","1","4","2","2","2","1","1","3","3","2","4","3","745687953166307329","王","24","","","","match","","","","","","","","","","","","","","key","f","16.664948453608247","768","428","f","true","match","img/trapezoid.png","梯形","梯形","ALT1_2","prac_ALT1_2","","","","","","","","","","","",""
"null","<span style='color:GreenYellow; font-size: 70px;'>正确! </span>","null","html-keyboard-response","34","230875","0.0-7.0-1.0-1.0-0.0-1.12","3","3","4","3","3","4","4","3","4","4","4","4","3","4","4","5","5","4","4","4","2","2","2","2","2","2","3","4","2","1","0","1","1","0","0","0","1","0","1","1","0","0","0","1","4","2","2","2","1","1","3","3","2","4","3","745687953166307329","王","24","","","","","","","","","","","","","","","","","","","","","","","","","","","","","","feedback_test","","","","","","","","","","","",""
"650","","f","psychophysics","35","232527","0.0-7.0-1.0-1.0-0.0-0.13","3","3","4","3","3","4","4","3","4","4","4","4","3","4","4","5","5","4","4","4","2","2","2","2","2","2","3","4","2","1","0","1","1","0","0","0","1","0","1","1","0","0","0","1","4","2","2","2","1","1","3","3","2","4","3","745687953166307329","王","24","","","","match","","","","","","","","","","","","","","key","f","16.668367346938776","768","428","f","true","match","img/square.png","方形","方形","ALT1_2","prac_ALT1_2","","","","","","","","","","","",""
"null","<span style='color:GreenYellow; font-size: 70px;'>正确! </span>","null","html-keyboard-response","36","233028","0.0-7.0-1.0-1.0-0.0-1.13","3","3","4","3","3","4","4","3","4","4","4","4","3","4","4","5","5","4","4","4","2","2","2","2","2","2","3","4","2","1","0","1","1","0","0","0","1","0","1","1","0","0","0","1","4","2","2","2","1","1","3","3","2","4","3","745687953166307329","王","24","","","","","","","","","","","","","","","","","","","","","","","","","","","","","","feedback_test","","","","","","","","","","","",""
"826","","j","psychophysics","37","234855","0.0-7.0-1.0-1.0-0.0-0.14","3","3","4","3","3","4","4","3","4","4","4","4","3","4","4","5","5","4","4","4","2","2","2","2","2","2","3","4","2","1","0","1","1","0","0","0","1","0","1","1","0","0","0","1","4","2","2","2","1","1","3","3","2","4","3","745687953166307329","王","24","","","","nonmatch","","","","","","","","","","","","","","key","j","16.666055045871612","768","428","j","true","nonmatch","img/pentagon.png","方形","五边","ALT1_2","prac_ALT1_2","","","","","","","","","","","",""
"null","<span style='color:GreenYellow; font-size: 70px;'>正确! </span>","null","html-keyboard-response","38","235356","0.0-7.0-1.0-1.0-0.0-1.14","3","3","4","3","3","4","4","3","4","4","4","4","3","4","4","5","5","4","4","4","2","2","2","2","2","2","3","4","2","1","0","1","1","0","0","0","1","0","1","1","0","0","0","1","4","2","2","2","1","1","3","3","2","4","3","745687953166307329","王","24","","","","","","","","","","","","","","","","","","","","","","","","","","","","","","feedback_test","","","","","","","","","","","",""
"765","","f","psychophysics","39","237122","0.0-7.0-1.0-1.0-0.0-0.15","3","3","4","3","3","4","4","3","4","4","4","4","3","4","4","5","5","4","4","4","2","2","2","2","2","2","3","4","2","1","0","1","1","0","0","0","1","0","1","1","0","0","0","1","4","2","2","2","1","1","3","3","2","4","3","745687953166307329","王","24","","","","match","","","","","","","","","","","","","","key","f","16.66571428571423","768","428","f","true","match","img/pentagon.png","五边","五边","ALT1_2","prac_ALT1_2","","","","","","","","","","","",""
"null","<span style='color:GreenYellow; font-size: 70px;'>正确! </span>","null","html-keyboard-response","40","237628","0.0-7.0-1.0-1.0-0.0-1.15","3","3","4","3","3","4","4","3","4","4","4","4","3","4","4","5","5","4","4","4","2","2","2","2","2","2","3","4","2","1","0","1","1","0","0","0","1","0","1","1","0","0","0","1","4","2","2","2","1","1","3","3","2","4","3","745687953166307329","王","24","","","","","","","","","","","","","","","","","","","","","","","","","","","","","","feedback_test","","","","","","","","","","","",""
"586","","f","psychophysics","41","239217","0.0-7.0-1.0-1.0-0.0-0.16","3","3","4","3","3","4","4","3","4","4","4","4","3","4","4","5","5","4","4","4","2","2","2","2","2","2","3","4","2","1","0","1","1","0","0","0","1","0","1","1","0","0","0","1","4","2","2","2","1","1","3","3","2","4","3","745687953166307329","王","24","","","","match","","","","","","","","","","","","","","key","f","16.555789473684086","768","428","f","true","match","img/pentagon.png","五边","五边","ALT1_2","prac_ALT1_2","","","","","","","","","","","",""
"null","<span style='color:GreenYellow; font-size: 70px;'>正确! </span>","null","html-keyboard-response","42","239719","0.0-7.0-1.0-1.0-0.0-1.16","3","3","4","3","3","4","4","3","4","4","4","4","3","4","4","5","5","4","4","4","2","2","2","2","2","2","3","4","2","1","0","1","1","0","0","0","1","0","1","1","0","0","0","1","4","2","2","2","1","1","3","3","2","4","3","745687953166307329","王","24","","","","","","","","","","","","","","","","","","","","","","","","","","","","","","feedback_test","","","","","","","","","","","",""
"577","","f","psychophysics","43","241297","0.0-7.0-1.0-1.0-0.0-0.17","3","3","4","3","3","4","4","3","4","4","4","4","3","4","4","5","5","4","4","4","2","2","2","2","2","2","3","4","2","1","0","1","1","0","0","0","1","0","1","1","0","0","0","1","4","2","2","2","1","1","3","3","2","4","3","745687953166307329","王","24","","","","match","","","","","","","","","","","","","","key","f","16.64787234042547","768","428","j","false","nonmatch","img/pentagon.png","梯形","五边","ALT1_2","prac_ALT1_2","","","","","","","","","","","",""
"null","<span style='color:red; font-size: 70px;'>错误! </span>","null","html-keyboard-response","44","241798","0.0-7.0-1.0-1.0-0.0-1.17","3","3","4","3","3","4","4","3","4","4","4","4","3","4","4","5","5","4","4","4","2","2","2","2","2","2","3","4","2","1","0","1","1","0","0","0","1","0","1","1","0","0","0","1","4","2","2","2","1","1","3","3","2","4","3","745687953166307329","王","24","","","","","","","","","","","","","","","","","","","","","","","","","","","","","","feedback_test","","","","","","","","","","","",""
"584","","f","psychophysics","45","243383","0.0-7.0-1.0-1.0-0.0-0.18","3","3","4","3","3","4","4","3","4","4","4","4","3","4","4","5","5","4","4","4","2","2","2","2","2","2","3","4","2","1","0","1","1","0","0","0","1","0","1","1","0","0","0","1","4","2","2","2","1","1","3","3","2","4","3","745687953166307329","王","24","","","","match","","","","","","","","","","","","","","key","f","16.643617021276597","768","428","f","true","match","img/square.png","方形","方形","ALT1_2","prac_ALT1_2","","","","","","","","","","","",""
"null","<span style='color:GreenYellow; font-size: 70px;'>正确! </span>","null","html-keyboard-response","46","243884","0.0-7.0-1.0-1.0-0.0-1.18","3","3","4","3","3","4","4","3","4","4","4","4","3","4","4","5","5","4","4","4","2","2","2","2","2","2","3","4","2","1","0","1","1","0","0","0","1","0","1","1","0","0","0","1","4","2","2","2","1","1","3","3","2","4","3","745687953166307329","王","24","","","","","","","","","","","","","","","","","","","","","","","","","","","","","","feedback_test","","","","","","","","","","","",""
"570","","j","psychophysics","47","245455","0.0-7.0-1.0-1.0-0.0-0.19","3","3","4","3","3","4","4","3","4","4","4","4","3","4","4","5","5","4","4","4","2","2","2","2","2","2","3","4","2","1","0","1","1","0","0","0","1","0","1","1","0","0","0","1","4","2","2","2","1","1","3","3","2","4","3","745687953166307329","王","24","","","","nonmatch","","","","","","","","","","","","","","key","j","16.669892473118466","768","428","j","true","nonmatch","img/ellipse.png","方形","椭圆","ALT1_2","prac_ALT1_2","","","","","","","","","","","",""
"null","<span style='color:GreenYellow; font-size: 70px;'>正确! </span>","null","html-keyboard-response","48","245956","0.0-7.0-1.0-1.0-0.0-1.19","3","3","4","3","3","4","4","3","4","4","4","4","3","4","4","5","5","4","4","4","2","2","2","2","2","2","3","4","2","1","0","1","1","0","0","0","1","0","1","1","0","0","0","1","4","2","2","2","1","1","3","3","2","4","3","745687953166307329","王","24","","","","","","","","","","","","","","","","","","","","","","","","","","","","","","feedback_test","","","","","","","","","","","",""
"987","","f","psychophysics","49","247945","0.0-7.0-1.0-1.0-0.0-0.20","3","3","4","3","3","4","4","3","4","4","4","4","3","4","4","5","5","4","4","4","2","2","2","2","2","2","3","4","2","1","0","1","1","0","0","0","1","0","1","1","0","0","0","1","4","2","2","2","1","1","3","3","2","4","3","745687953166307329","王","24","","","","match","","","","","","","","","","","","","","key","f","16.666101694915305","768","428","j","false","nonmatch","img/ellipse.png","梯形","椭圆","ALT1_2","prac_ALT1_2","","","","","","","","","","","",""
"null","<span style='color:red; font-size: 70px;'>错误! </span>","null","html-keyboard-response","50","248448","0.0-7.0-1.0-1.0-0.0-1.20","3","3","4","3","3","4","4","3","4","4","4","4","3","4","4","5","5","4","4","4","2","2","2","2","2","2","3","4","2","1","0","1","1","0","0","0","1","0","1","1","0","0","0","1","4","2","2","2","1","1","3","3","2","4","3","745687953166307329","王","24","","","","","","","","","","","","","","","","","","","","","","","","","","","","","","feedback_test","","","","","","","","","","","",""
"664","","f","psychophysics","51","250112","0.0-7.0-1.0-1.0-0.0-0.21","3","3","4","3","3","4","4","3","4","4","4","4","3","4","4","5","5","4","4","4","2","2","2","2","2","2","3","4","2","1","0","1","1","0","0","0","1","0","1","1","0","0","0","1","4","2","2","2","1","1","3","3","2","4","3","745687953166307329","王","24","","","","match","","","","","","","","","","","","","","key","f","16.667676767676827","768","428","f","true","match","img/trapezoid.png","梯形","梯形","ALT1_2","prac_ALT1_2","","","","","","","","","","","",""
"null","<span style='color:GreenYellow; font-size: 70px;'>正确! </span>","null","html-keyboard-response","52","250619","0.0-7.0-1.0-1.0-0.0-1.21","3","3","4","3","3","4","4","3","4","4","4","4","3","4","4","5","5","4","4","4","2","2","2","2","2","2","3","4","2","1","0","1","1","0","0","0","1","0","1","1","0","0","0","1","4","2","2","2","1","1","3","3","2","4","3","745687953166307329","王","24","","","","","","","","","","","","","","","","","","","","","","","","","","","","","","feedback_test","","","","","","","","","","","",""
"890","","j","psychophysics","53","252511","0.0-7.0-1.0-1.0-0.0-0.22","3","3","4","3","3","4","4","3","4","4","4","4","3","4","4","5","5","4","4","4","2","2","2","2","2","2","3","4","2","1","0","1","1","0","0","0","1","0","1","1","0","0","0","1","4","2","2","2","1","1","3","3","2","4","3","745687953166307329","王","24","","","","nonmatch","","","","","","","","","","","","","","key","j","16.664601769911556","768","428","j","true","nonmatch","img/square.png","五边","方形","ALT1_2","prac_ALT1_2","","","","","","","","","","","",""
"null","<span style='color:GreenYellow; font-size: 70px;'>正确! </span>","null","html-keyboard-response","54","253011","0.0-7.0-1.0-1.0-0.0-1.22","3","3","4","3","3","4","4","3","4","4","4","4","3","4","4","5","5","4","4","4","2","2","2","2","2","2","3","4","2","1","0","1","1","0","0","0","1","0","1","1","0","0","0","1","4","2","2","2","1","1","3","3","2","4","3","745687953166307329","王","24","","","","","","","","","","","","","","","","","","","","","","","","","","","","","","feedback_test","","","","","","","","","","","",""
"687","","j","psychophysics","55","254704","0.0-7.0-1.0-1.0-0.0-0.23","3","3","4","3","3","4","4","3","4","4","4","4","3","4","4","5","5","4","4","4","2","2","2","2","2","2","3","4","2","1","0","1","1","0","0","0","1","0","1","1","0","0","0","1","4","2","2","2","1","1","3","3","2","4","3","745687953166307329","王","24","","","","nonmatch","","","","","","","","","","","","","","key","j","16.666336633663253","768","428","j","true","nonmatch","img/square.png","椭圆","方形","ALT1_2","prac_ALT1_2","","","","","","","","","","","",""
"null","<span style='color:GreenYellow; font-size: 70px;'>正确! </span>","null","html-keyboard-response","56","255205","0.0-7.0-1.0-1.0-0.0-1.23","3","3","4","3","3","4","4","3","4","4","4","4","3","4","4","5","5","4","4","4","2","2","2","2","2","2","3","4","2","1","0","1","1","0","0","0","1","0","1","1","0","0","0","1","4","2","2","2","1","1","3","3","2","4","3","745687953166307329","王","24","","","","","","","","","","","","","","","","","","","","","","","","","","","","","","feedback_test","","","","","","","","","","","",""
"664","","f","psychophysics","57","256871","0.0-7.0-1.0-1.0-0.0-0.24","3","3","4","3","3","4","4","3","4","4","4","4","3","4","4","5","5","4","4","4","2","2","2","2","2","2","3","4","2","1","0","1","1","0","0","0","1","0","1","1","0","0","0","1","4","2","2","2","1","1","3","3","2","4","3","745687953166307329","王","24","","","","match","","","","","","","","","","","","","","key","f","16.663636363636186","768","428","j","false","nonmatch","img/trapezoid.png","五边","梯形","ALT1_2","prac_ALT1_2","","","","","","","","","","","",""
"null","<span style='color:red; font-size: 70px;'>错误! </span>","null","html-keyboard-response","58","257372","0.0-7.0-1.0-1.0-0.0-1.24","3","3","4","3","3","4","4","3","4","4","4","4","3","4","4","5","5","4","4","4","2","2","2","2","2","2","3","4","2","1","0","1","1","0","0","0","1","0","1","1","0","0","0","1","4","2","2","2","1","1","3","3","2","4","3","745687953166307329","王","24","","","","","","","","","","","","","","","","","","","","","","","","","","","","","","feedback_test","","","","","","","","","","","",""
"707","","f","psychophysics","59","259080","0.0-7.0-1.0-1.0-0.0-0.25","3","3","4","3","3","4","4","3","4","4","4","4","3","4","4","5","5","4","4","4","2","2","2","2","2","2","3","4","2","1","0","1","1","0","0","0","1","0","1","1","0","0","0","1","4","2","2","2","1","1","3","3","2","4","3","745687953166307329","王","24","","","","match","","","","","","","","","","","","","","key","f","16.66470588235311","768","428","f","true","match","img/square.png","方形","方形","ALT1_2","prac_ALT1_2","","","","","","","","","","","",""
"null","<span style='color:GreenYellow; font-size: 70px;'>正确! </span>","null","html-keyboard-response","60","259581","0.0-7.0-1.0-1.0-0.0-1.25","3","3","4","3","3","4","4","3","4","4","4","4","3","4","4","5","5","4","4","4","2","2","2","2","2","2","3","4","2","1","0","1","1","0","0","0","1","0","1","1","0","0","0","1","4","2","2","2","1","1","3","3","2","4","3","745687953166307329","王","24","","","","","","","","","","","","","","","","","","","","","","","","","","","","","","feedback_test","","","","","","","","","","","",""
"712","","j","psychophysics","61","261295","0.0-7.0-1.0-1.0-0.0-0.26","3","3","4","3","3","4","4","3","4","4","4","4","3","4","4","5","5","4","4","4","2","2","2","2","2","2","3","4","2","1","0","1","1","0","0","0","1","0","1","1","0","0","0","1","4","2","2","2","1","1","3","3","2","4","3","745687953166307329","王","24","","","","nonmatch","","","","","","","","","","","","","","key","j","16.66470588235311","768","428","j","true","nonmatch","img/ellipse.png","五边","椭圆","ALT1_2","prac_ALT1_2","","","","","","","","","","","",""
"null","<span style='color:GreenYellow; font-size: 70px;'>正确! </span>","null","html-keyboard-response","62","261796","0.0-7.0-1.0-1.0-0.0-1.26","3","3","4","3","3","4","4","3","4","4","4","4","3","4","4","5","5","4","4","4","2","2","2","2","2","2","3","4","2","1","0","1","1","0","0","0","1","0","1","1","0","0","0","1","4","2","2","2","1","1","3","3","2","4","3","745687953166307329","王","24","","","","","","","","","","","","","","","","","","","","","","","","","","","","","","feedback_test","","","","","","","","","","","",""
"714","","f","psychophysics","63","263511","0.0-7.0-1.0-1.0-0.0-0.27","3","3","4","3","3","4","4","3","4","4","4","4","3","4","4","5","5","4","4","4","2","2","2","2","2","2","3","4","2","1","0","1","1","0","0","0","1","0","1","1","0","0","0","1","4","2","2","2","1","1","3","3","2","4","3","745687953166307329","王","24","","","","match","","","","","","","","","","","","","","key","f","16.6647058823534","768","428","j","false","nonmatch","img/ellipse.png","方形","椭圆","ALT1_2","prac_ALT1_2","","","","","","","","","","","",""
"null","<span style='color:red; font-size: 70px;'>错误! </span>","null","html-keyboard-response","64","264013","0.0-7.0-1.0-1.0-0.0-1.27","3","3","4","3","3","4","4","3","4","4","4","4","3","4","4","5","5","4","4","4","2","2","2","2","2","2","3","4","2","1","0","1","1","0","0","0","1","0","1","1","0","0","0","1","4","2","2","2","1","1","3","3","2","4","3","745687953166307329","王","24","","","","","","","","","","","","","","","","","","","","","","","","","","","","","","feedback_test","","","","","","","","","","","",""
"625","","f","psychophysics","65","265639","0.0-7.0-1.0-1.0-0.0-0.28","3","3","4","3","3","4","4","3","4","4","4","4","3","4","4","5","5","4","4","4","2","2","2","2","2","2","3","4","2","1","0","1","1","0","0","0","1","0","1","1","0","0","0","1","4","2","2","2","1","1","3","3","2","4","3","745687953166307329","王","24","","","","match","","","","","","","","","","","","","","key","f","16.66597938144366","768","428","f","true","match","img/trapezoid.png","梯形","梯形","ALT1_2","prac_ALT1_2","","","","","","","","","","","",""
"null","<span style='color:GreenYellow; font-size: 70px;'>正确! </span>","null","html-keyboard-response","66","266145","0.0-7.0-1.0-1.0-0.0-1.28","3","3","4","3","3","4","4","3","4","4","4","4","3","4","4","5","5","4","4","4","2","2","2","2","2","2","3","4","2","1","0","1","1","0","0","0","1","0","1","1","0","0","0","1","4","2","2","2","1","1","3","3","2","4","3","745687953166307329","王","24","","","","","","","","","","","","","","","","","","","","","","","","","","","","","","feedback_test","","","","","","","","","","","",""
"692","","j","psychophysics","67","267839","0.0-7.0-1.0-1.0-0.0-0.29","3","3","4","3","3","4","4","3","4","4","4","4","3","4","4","5","5","4","4","4","2","2","2","2","2","2","3","4","2","1","0","1","1","0","0","0","1","0","1","1","0","0","0","1","4","2","2","2","1","1","3","3","2","4","3","745687953166307329","王","24","","","","nonmatch","","","","","","","","","","","","","","key","j","16.64950495049482","768","428","f","false","match","img/ellipse.png","椭圆","椭圆","ALT1_2","prac_ALT1_2","","","","","","","","","","","",""
"null","<span style='color:red; font-size: 70px;'>错误! </span>","null","html-keyboard-response","68","268339","0.0-7.0-1.0-1.0-0.0-1.29","3","3","4","3","3","4","4","3","4","4","4","4","3","4","4","5","5","4","4","4","2","2","2","2","2","2","3","4","2","1","0","1","1","0","0","0","1","0","1","1","0","0","0","1","4","2","2","2","1","1","3","3","2","4","3","745687953166307329","王","24","","","","","","","","","","","","","","","","","","","","","","","","","","","","","","feedback_test","","","","","","","","","","","",""
"731","","f","psychophysics","69","270071","0.0-7.0-1.0-1.0-0.0-0.30","3","3","4","3","3","4","4","3","4","4","4","4","3","4","4","5","5","4","4","4","2","2","2","2","2","2","3","4","2","1","0","1","1","0","0","0","1","0","1","1","0","0","0","1","4","2","2","2","1","1","3","3","2","4","3","745687953166307329","王","24","","","","match","","","","","","","","","","","","","","key","f","16.66504854368932","768","428","f","true","match","img/trapezoid.png","梯形","梯形","ALT1_2","prac_ALT1_2","","","","","","","","","","","",""
"null","<span style='color:GreenYellow; font-size: 70px;'>正确! </span>","null","html-keyboard-response","70","270573","0.0-7.0-1.0-1.0-0.0-1.30","3","3","4","3","3","4","4","3","4","4","4","4","3","4","4","5","5","4","4","4","2","2","2","2","2","2","3","4","2","1","0","1","1","0","0","0","1","0","1","1","0","0","0","1","4","2","2","2","1","1","3","3","2","4","3","745687953166307329","王","24","","","","","","","","","","","","","","","","","","","","","","","","","","","","","","feedback_test","","","","","","","","","","","",""
"746","","f","psychophysics","71","272320","0.0-7.0-1.0-1.0-0.0-0.31","3","3","4","3","3","4","4","3","4","4","4","4","3","4","4","5","5","4","4","4","2","2","2","2","2","2","3","4","2","1","0","1","1","0","0","0","1","0","1","1","0","0","0","1","4","2","2","2","1","1","3","3","2","4","3","745687953166307329","王","24","","","","match","","","","","","","","","","","","","","key","f","16.666346153846042","768","428","f","true","match","img/ellipse.png","椭圆","椭圆","ALT1_2","prac_ALT1_2","","","","","","","","","","","",""
"null","<span style='color:GreenYellow; font-size: 70px;'>正确! </span>","null","html-keyboard-response","72","272820","0.0-7.0-1.0-1.0-0.0-1.31","3","3","4","3","3","4","4","3","4","4","4","4","3","4","4","5","5","4","4","4","2","2","2","2","2","2","3","4","2","1","0","1","1","0","0","0","1","0","1","1","0","0","0","1","4","2","2","2","1","1","3","3","2","4","3","745687953166307329","王","24","","","","","","","","","","","","","","","","","","","","","","","","","","","","","","feedback_test","","","","","","","","","","","",""
"872","","j","psychophysics","73","274695","0.0-7.0-1.0-1.0-0.0-0.32","3","3","4","3","3","4","4","3","4","4","4","4","3","4","4","5","5","4","4","4","2","2","2","2","2","2","3","4","2","1","0","1","1","0","0","0","1","0","1","1","0","0","0","1","4","2","2","2","1","1","3","3","2","4","3","745687953166307329","王","24","","","","nonmatch","","","","","","","","","","","","","","key","j","16.638392857142858","768","428","j","true","nonmatch","img/trapezoid.png","方形","梯形","ALT1_2","prac_ALT1_2","","","","","","","","","","","",""
"null","<span style='color:GreenYellow; font-size: 70px;'>正确! </span>","null","html-keyboard-response","74","275195","0.0-7.0-1.0-1.0-0.0-1.32","3","3","4","3","3","4","4","3","4","4","4","4","3","4","4","5","5","4","4","4","2","2","2","2","2","2","3","4","2","1","0","1","1","0","0","0","1","0","1","1","0","0","0","1","4","2","2","2","1","1","3","3","2","4","3","745687953166307329","王","24","","","","","","","","","","","","","","","","","","","","","","","","","","","","","","feedback_test","","","","","","","","","","","",""
"763","","j","psychophysics","75","276959","0.0-7.0-1.0-1.0-0.0-0.33","3","3","4","3","3","4","4","3","4","4","4","4","3","4","4","5","5","4","4","4","2","2","2","2","2","2","3","4","2","1","0","1","1","0","0","0","1","0","1","1","0","0","0","1","4","2","2","2","1","1","3","3","2","4","3","745687953166307329","王","24","","","","nonmatch","","","","","","","","","","","","","","key","j","16.664761904761793","768","428","j","true","nonmatch","img/square.png","梯形","方形","ALT1_2","prac_ALT1_2","","","","","","","","","","","",""
"null","<span style='color:GreenYellow; font-size: 70px;'>正确! </span>","null","html-keyboard-response","76","277460","0.0-7.0-1.0-1.0-0.0-1.33","3","3","4","3","3","4","4","3","4","4","4","4","3","4","4","5","5","4","4","4","2","2","2","2","2","2","3","4","2","1","0","1","1","0","0","0","1","0","1","1","0","0","0","1","4","2","2","2","1","1","3","3","2","4","3","745687953166307329","王","24","","","","","","","","","","","","","","","","","","","","","","","","","","","","","","feedback_test","","","","","","","","","","","",""
"850","","j","psychophysics","77","279311","0.0-7.0-1.0-1.0-0.0-0.34","3","3","4","3","3","4","4","3","4","4","4","4","3","4","4","5","5","4","4","4","2","2","2","2","2","2","3","4","2","1","0","1","1","0","0","0","1","0","1","1","0","0","0","1","4","2","2","2","1","1","3","3","2","4","3","745687953166307329","王","24","","","","nonmatch","","","","","","","","","","","","","","key","j","16.667272727272938","768","428","j","true","nonmatch","img/pentagon.png","椭圆","五边","ALT1_2","prac_ALT1_2","","","","","","","","","","","",""
"null","<span style='color:GreenYellow; font-size: 70px;'>正确! </span>","null","html-keyboard-response","78","279812","0.0-7.0-1.0-1.0-0.0-1.34","3","3","4","3","3","4","4","3","4","4","4","4","3","4","4","5","5","4","4","4","2","2","2","2","2","2","3","4","2","1","0","1","1","0","0","0","1","0","1","1","0","0","0","1","4","2","2","2","1","1","3","3","2","4","3","745687953166307329","王","24","","","","","","","","","","","","","","","","","","","","","","","","","","","","","","feedback_test","","","","","","","","","","","",""
"847","","j","psychophysics","79","281663","0.0-7.0-1.0-1.0-0.0-0.35","3","3","4","3","3","4","4","3","4","4","4","4","3","4","4","5","5","4","4","4","2","2","2","2","2","2","3","4","2","1","0","1","1","0","0","0","1","0","1","1","0","0","0","1","4","2","2","2","1","1","3","3","2","4","3","745687953166307329","王","24","","","","nonmatch","","","","","","","","","","","","","","key","j","16.664545454545244","768","428","j","true","nonmatch","img/pentagon.png","方形","五边","ALT1_2","prac_ALT1_2","","","","","","","","","","","",""
"null","<span style='color:GreenYellow; font-size: 70px;'>正确! </span>","null","html-keyboard-response","80","282164","0.0-7.0-1.0-1.0-0.0-1.35","3","3","4","3","3","4","4","3","4","4","4","4","3","4","4","5","5","4","4","4","2","2","2","2","2","2","3","4","2","1","0","1","1","0","0","0","1","0","1","1","0","0","0","1","4","2","2","2","1","1","3","3","2","4","3","745687953166307329","王","24","","","","","","","","","","","","","","","","","","","","","","","","","","","","","","feedback_test","","","","","","","","","","","",""
"null","","null","psychophysics","81","284366","0.0-7.0-1.0-1.0-0.0-0.36","3","3","4","3","3","4","4","3","4","4","4","4","3","4","4","5","5","4","4","4","2","2","2","2","2","2","3","4","2","1","0","1","1","0","0","0","1","0","1","1","0","0","0","1","4","2","2","2","1","1","3","3","2","4","3","745687953166307329","王","24","","","","null","","","","","","","","","","","","","","key","null","16.664885496183473","768","428","j","false","nonmatch","img/pentagon.png","梯形","五边","ALT1_2","prac_ALT1_2","","","","","","","","","","","",""
"null","<span class='add_' style='color:yellow; font-size: 70px;'> 太慢! </span>","null","html-keyboard-response","82","284867","0.0-7.0-1.0-1.0-0.0-1.36","3","3","4","3","3","4","4","3","4","4","4","4","3","4","4","5","5","4","4","4","2","2","2","2","2","2","3","4","2","1","0","1","1","0","0","0","1","0","1","1","0","0","0","1","4","2","2","2","1","1","3","3","2","4","3","745687953166307329","王","24","","","","","","","","","","","","","","","","","","","","","","","","","","","","","","feedback_test","","","","","","","","","","","",""
"746","","j","psychophysics","83","286615","0.0-7.0-1.0-1.0-0.0-0.37","3","3","4","3","3","4","4","3","4","4","4","4","3","4","4","5","5","4","4","4","2","2","2","2","2","2","3","4","2","1","0","1","1","0","0","0","1","0","1","1","0","0","0","1","4","2","2","2","1","1","3","3","2","4","3","745687953166307329","王","24","","","","nonmatch","","","","","","","","","","","","","","key","j","16.66346153846154","768","428","j","true","nonmatch","img/square.png","椭圆","方形","ALT1_2","prac_ALT1_2","","","","","","","","","","","",""
"null","<span style='color:GreenYellow; font-size: 70px;'>正确! </span>","null","html-keyboard-response","84","287115","0.0-7.0-1.0-1.0-0.0-1.37","3","3","4","3","3","4","4","3","4","4","4","4","3","4","4","5","5","4","4","4","2","2","2","2","2","2","3","4","2","1","0","1","1","0","0","0","1","0","1","1","0","0","0","1","4","2","2","2","1","1","3","3","2","4","3","745687953166307329","王","24","","","","","","","","","","","","","","","","","","","","","","","","","","","","","","feedback_test","","","","","","","","","","","",""
"779","","f","psychophysics","85","288895","0.0-7.0-1.0-1.0-0.0-0.38","3","3","4","3","3","4","4","3","4","4","4","4","3","4","4","5","5","4","4","4","2","2","2","2","2","2","3","4","2","1","0","1","1","0","0","0","1","0","1","1","0","0","0","1","4","2","2","2","1","1","3","3","2","4","3","745687953166307329","王","24","","","","match","","","","","","","","","","","","","","key","f","16.667924528302326","768","428","f","true","match","img/pentagon.png","五边","五边","ALT1_2","prac_ALT1_2","","","","","","","","","","","",""
"null","<span style='color:GreenYellow; font-size: 70px;'>正确! </span>","null","html-keyboard-response","86","289396","0.0-7.0-1.0-1.0-0.0-1.38","3","3","4","3","3","4","4","3","4","4","4","4","3","4","4","5","5","4","4","4","2","2","2","2","2","2","3","4","2","1","0","1","1","0","0","0","1","0","1","1","0","0","0","1","4","2","2","2","1","1","3","3","2","4","3","745687953166307329","王","24","","","","","","","","","","","","","","","","","","","","","","","","","","","","","","feedback_test","","","","","","","","","","","",""
"754","","j","psychophysics","87","291151","0.0-7.0-1.0-1.0-0.0-0.39","3","3","4","3","3","4","4","3","4","4","4","4","3","4","4","5","5","4","4","4","2","2","2","2","2","2","3","4","2","1","0","1","1","0","0","0","1","0","1","1","0","0","0","1","4","2","2","2","1","1","3","3","2","4","3","745687953166307329","王","24","","","","nonmatch","","","","","","","","","","","","","","key","j","16.664423076923413","768","428","j","true","nonmatch","img/trapezoid.png","椭圆","梯形","ALT1_2","prac_ALT1_2","","","","","","","","","","","",""
"null","<span style='color:GreenYellow; font-size: 70px;'>正确! </span>","null","html-keyboard-response","88","291651","0.0-7.0-1.0-1.0-0.0-1.39","3","3","4","3","3","4","4","3","4","4","4","4","3","4","4","5","5","4","4","4","2","2","2","2","2","2","3","4","2","1","0","1","1","0","0","0","1","0","1","1","0","0","0","1","4","2","2","2","1","1","3","3","2","4","3","745687953166307329","王","24","","","","","","","","","","","","","","","","","","","","","","","","","","","","","","feedback_test","","","","","","","","","","","",""
"699","","f","psychophysics","89","293352","0.0-7.0-1.0-1.0-0.0-0.40","3","3","4","3","3","4","4","3","4","4","4","4","3","4","4","5","5","4","4","4","2","2","2","2","2","2","3","4","2","1","0","1","1","0","0","0","1","0","1","1","0","0","0","1","4","2","2","2","1","1","3","3","2","4","3","745687953166307329","王","24","","","","match","","","","","","","","","","","","","","key","f","16.643564356435643","768","428","f","true","match","img/square.png","方形","方形","ALT1_2","prac_ALT1_2","","","","","","","","","","","",""
"null","<span style='color:GreenYellow; font-size: 70px;'>正确! </span>","null","html-keyboard-response","90","293853","0.0-7.0-1.0-1.0-0.0-1.40","3","3","4","3","3","4","4","3","4","4","4","4","3","4","4","5","5","4","4","4","2","2","2","2","2","2","3","4","2","1","0","1","1","0","0","0","1","0","1","1","0","0","0","1","4","2","2","2","1","1","3","3","2","4","3","745687953166307329","王","24","","","","","","","","","","","","","","","","","","","","","","","","","","","","","","feedback_test","","","","","","","","","","","",""
"648","","f","psychophysics","91","295502","0.0-7.0-1.0-1.0-0.0-0.41","3","3","4","3","3","4","4","3","4","4","4","4","3","4","4","5","5","4","4","4","2","2","2","2","2","2","3","4","2","1","0","1","1","0","0","0","1","0","1","1","0","0","0","1","4","2","2","2","1","1","3","3","2","4","3","745687953166307329","王","24","","","","match","","","","","","","","","","","","","","key","f","16.6653061224491","768","428","f","true","match","img/ellipse.png","椭圆","椭圆","ALT1_2","prac_ALT1_2","","","","","","","","","","","",""
"null","<span style='color:GreenYellow; font-size: 70px;'>正确! </span>","null","html-keyboard-response","92","296003","0.0-7.0-1.0-1.0-0.0-1.41","3","3","4","3","3","4","4","3","4","4","4","4","3","4","4","5","5","4","4","4","2","2","2","2","2","2","3","4","2","1","0","1","1","0","0","0","1","0","1","1","0","0","0","1","4","2","2","2","1","1","3","3","2","4","3","745687953166307329","王","24","","","","","","","","","","","","","","","","","","","","","","","","","","","","","","feedback_test","","","","","","","","","","","",""
"923","","f","psychophysics","93","297928","0.0-7.0-1.0-1.0-0.0-0.42","3","3","4","3","3","4","4","3","4","4","4","4","3","4","4","5","5","4","4","4","2","2","2","2","2","2","3","4","2","1","0","1","1","0","0","0","1","0","1","1","0","0","0","1","4","2","2","2","1","1","3","3","2","4","3","745687953166307329","王","24","","","","match","","","","","","","","","","","","","","key","f","16.666086956521536","768","428","f","true","match","img/pentagon.png","五边","五边","ALT1_2","prac_ALT1_2","","","","","","","","","","","",""
"null","<span style='color:GreenYellow; font-size: 70px;'>正确! </span>","null","html-keyboard-response","94","298430","0.0-7.0-1.0-1.0-0.0-1.42","3","3","4","3","3","4","4","3","4","4","4","4","3","4","4","5","5","4","4","4","2","2","2","2","2","2","3","4","2","1","0","1","1","0","0","0","1","0","1","1","0","0","0","1","4","2","2","2","1","1","3","3","2","4","3","745687953166307329","王","24","","","","","","","","","","","","","","","","","","","","","","","","","","","","","","feedback_test","","","","","","","","","","","",""
"567","","f","psychophysics","95","299999","0.0-7.0-1.0-1.0-0.0-0.43","3","3","4","3","3","4","4","3","4","4","4","4","3","4","4","5","5","4","4","4","2","2","2","2","2","2","3","4","2","1","0","1","1","0","0","0","1","0","1","1","0","0","0","1","4","2","2","2","1","1","3","3","2","4","3","745687953166307329","王","24","","","","match","","","","","","","","","","","","","","key","f","16.665591397849088","768","428","f","true","match","img/pentagon.png","五边","五边","ALT1_2","prac_ALT1_2","","","","","","","","","","","",""
"null","<span style='color:GreenYellow; font-size: 70px;'>正确! </span>","null","html-keyboard-response","96","300501","0.0-7.0-1.0-1.0-0.0-1.43","3","3","4","3","3","4","4","3","4","4","4","4","3","4","4","5","5","4","4","4","2","2","2","2","2","2","3","4","2","1","0","1","1","0","0","0","1","0","1","1","0","0","0","1","4","2","2","2","1","1","3","3","2","4","3","745687953166307329","王","24","","","","","","","","","","","","","","","","","","","","","","","","","","","","","","feedback_test","","","","","","","","","","","",""
"743","","j","psychophysics","97","302247","0.0-7.0-1.0-1.0-0.0-0.44","3","3","4","3","3","4","4","3","4","4","4","4","3","4","4","5","5","4","4","4","2","2","2","2","2","2","3","4","2","1","0","1","1","0","0","0","1","0","1","1","0","0","0","1","4","2","2","2","1","1","3","3","2","4","3","745687953166307329","王","24","","","","nonmatch","","","","","","","","","","","","","","key","j","16.664423076923413","768","428","j","true","nonmatch","img/square.png","五边","方形","ALT1_2","prac_ALT1_2","","","","","","","","","","","",""
"null","<span style='color:GreenYellow; font-size: 70px;'>正确! </span>","null","html-keyboard-response","98","302748","0.0-7.0-1.0-1.0-0.0-1.44","3","3","4","3","3","4","4","3","4","4","4","4","3","4","4","5","5","4","4","4","2","2","2","2","2","2","3","4","2","1","0","1","1","0","0","0","1","0","1","1","0","0","0","1","4","2","2","2","1","1","3","3","2","4","3","745687953166307329","王","24","","","","","","","","","","","","","","","","","","","","","","","","","","","","","","feedback_test","","","","","","","","","","","",""
"643","","f","psychophysics","99","304393","0.0-7.0-1.0-1.0-0.0-0.45","3","3","4","3","3","4","4","3","4","4","4","4","3","4","4","5","5","4","4","4","2","2","2","2","2","2","3","4","2","1","0","1","1","0","0","0","1","0","1","1","0","0","0","1","4","2","2","2","1","1","3","3","2","4","3","745687953166307329","王","24","","","","match","","","","","","","","","","","","","","key","f","16.661616161616163","768","428","f","true","match","img/trapezoid.png","梯形","梯形","ALT1_2","prac_ALT1_2","","","","","","","","","","","",""
"null","<span style='color:GreenYellow; font-size: 70px;'>正确! </span>","null","html-keyboard-response","100","304893","0.0-7.0-1.0-1.0-0.0-1.45","3","3","4","3","3","4","4","3","4","4","4","4","3","4","4","5","5","4","4","4","2","2","2","2","2","2","3","4","2","1","0","1","1","0","0","0","1","0","1","1","0","0","0","1","4","2","2","2","1","1","3","3","2","4","3","745687953166307329","王","24","","","","","","","","","","","","","","","","","","","","","","","","","","","","","","feedback_test","","","","","","","","","","","",""
"785","","f","psychophysics","101","306679","0.0-7.0-1.0-1.0-0.0-0.46","3","3","4","3","3","4","4","3","4","4","4","4","3","4","4","5","5","4","4","4","2","2","2","2","2","2","3","4","2","1","0","1","1","0","0","0","1","0","1","1","0","0","0","1","4","2","2","2","1","1","3","3","2","4","3","745687953166307329","王","24","","","","match","","","","","","","","","","","","","","key","f","16.66792452830178","768","428","j","false","nonmatch","img/ellipse.png","梯形","椭圆","ALT1_2","prac_ALT1_2","","","","","","","","","","","",""
"null","<span style='color:red; font-size: 70px;'>错误! </span>","null","html-keyboard-response","102","307196","0.0-7.0-1.0-1.0-0.0-1.46","3","3","4","3","3","4","4","3","4","4","4","4","3","4","4","5","5","4","4","4","2","2","2","2","2","2","3","4","2","1","0","1","1","0","0","0","1","0","1","1","0","0","0","1","4","2","2","2","1","1","3","3","2","4","3","745687953166307329","王","24","","","","","","","","","","","","","","","","","","","","","","","","","","","","","","feedback_test","","","","","","","","","","","",""
"605","","f","psychophysics","103","308802","0.0-7.0-1.0-1.0-0.0-0.47","3","3","4","3","3","4","4","3","4","4","4","4","3","4","4","5","5","4","4","4","2","2","2","2","2","2","3","4","2","1","0","1","1","0","0","0","1","0","1","1","0","0","0","1","4","2","2","2","1","1","3","3","2","4","3","745687953166307329","王","24","","","","match","","","","","","","","","","","","","","key","f","16.66526315789425","768","428","f","true","match","img/square.png","方形","方形","ALT1_2","prac_ALT1_2","","","","","","","","","","","",""
"null","<span style='color:GreenYellow; font-size: 70px;'>正确! </span>","null","html-keyboard-response","104","309303","0.0-7.0-1.0-1.0-0.0-1.47","3","3","4","3","3","4","4","3","4","4","4","4","3","4","4","5","5","4","4","4","2","2","2","2","2","2","3","4","2","1","0","1","1","0","0","0","1","0","1","1","0","0","0","1","4","2","2","2","1","1","3","3","2","4","3","745687953166307329","王","24","","","","","","","","","","","","","","","","","","","","","","","","","","","","","","feedback_test","","","","","","","","","","","",""
"26926","<style>.context{color:white; font-size: 35px; line-height:40px}</style>                          <div><p class='context'>您正确回答了79% 的试次。</p><p class='context'>您的平均反应时为721毫秒。</p><p class='context'>恭喜您完成练习。按空格键进入正式实验。</p><p class='footer' style='font-size: 35px; line-height:40px;'>请在进入正式实验实验之前将您的<span style='color: lightgreen;'>食指</span>放在电脑键盘的相应键位上进行按键。</p>"," ","html-keyboard-response","105","336231","0.0-7.0-1.0-2.0","3","3","4","3","3","4","4","3","4","4","4","4","3","4","4","5","5","4","4","4","2","2","2","2","2","2","3","4","2","1","0","1","1","0","0","0","1","0","1","1","0","0","0","1","4","2","2","2","1","1","3","3","2","4","3","745687953166307329","王","24","","","","","","","","","","","","","","","","","","","","","","","","","","","","","","","","","","","","","","","","","",""
"1325","
  <p style='color: white; font-size: 22px'>请您将手指放在按键上，准备进入正式的匹配任务。</p>
  <p> <div style = ""color: green""><按空格键进入下一阶段的匹配任务></div></p>
  "," ","html-keyboard-response","106","337559","0.0-7.0-1.0-3.0","3","3","4","3","3","4","4","3","4","4","4","4","3","4","4","5","5","4","4","4","2","2","2","2","2","2","3","4","2","1","0","1","1","0","0","0","1","0","1","1","0","0","0","1","4","2","2","2","1","1","3","3","2","4","3","745687953166307329","王","24","","","","","","","","","","","","","","","","","","","","","","","","","","","","","","","","","","","","","","","","","",""
"663","","f","psychophysics","107","339223","0.0-7.0-1.0-4.0-0.0-0.0","3","3","4","3","3","4","4","3","4","4","4","4","3","4","4","5","5","4","4","4","2","2","2","2","2","2","3","4","2","1","0","1","1","0","0","0","1","0","1","1","0","0","0","1","4","2","2","2","1","1","3","3","2","4","3","745687953166307329","王","24","","","","match","","","","","","","","","","","","","","key","f","16.666666666666668","768","428","f","true","match","img/ellipse.png","椭圆","椭圆","ALT1","formal_ALT1_2","","","","","","","","","","","",""
"null","<span style='color:GreenYellow; font-size: 70px;'>正确! </span>","null","html-keyboard-response","108","339723","0.0-7.0-1.0-4.0-0.0-1.0","3","3","4","3","3","4","4","3","4","4","4","4","3","4","4","5","5","4","4","4","2","2","2","2","2","2","3","4","2","1","0","1","1","0","0","0","1","0","1","1","0","0","0","1","4","2","2","2","1","1","3","3","2","4","3","745687953166307329","王","24","","","","","","","","","","","","","","","","","","","","","","","","","","","","","","feedback_test","","","","","","","","","","","",""
"738","","j","psychophysics","109","341463","0.0-7.0-1.0-4.0-0.0-0.1","3","3","4","3","3","4","4","3","4","4","4","4","3","4","4","5","5","4","4","4","2","2","2","2","2","2","3","4","2","1","0","1","1","0","0","0","1","0","1","1","0","0","0","1","4","2","2","2","1","1","3","3","2","4","3","745687953166307329","王","24","","","","nonmatch","","","","","","","","","","","","","","key","j","16.66504854368932","768","428","j","true","nonmatch","img/ellipse.png","梯形","椭圆","ALT1","formal_ALT1_2","","","","","","","","","","","",""
"null","<span style='color:GreenYellow; font-size: 70px;'>正确! </span>","null","html-keyboard-response","110","341964","0.0-7.0-1.0-4.0-0.0-1.1","3","3","4","3","3","4","4","3","4","4","4","4","3","4","4","5","5","4","4","4","2","2","2","2","2","2","3","4","2","1","0","1","1","0","0","0","1","0","1","1","0","0","0","1","4","2","2","2","1","1","3","3","2","4","3","745687953166307329","王","24","","","","","","","","","","","","","","","","","","","","","","","","","","","","","","feedback_test","","","","","","","","","","","",""
"713","","f","psychophysics","111","343678","0.0-7.0-1.0-4.0-0.0-0.2","3","3","4","3","3","4","4","3","4","4","4","4","3","4","4","5","5","4","4","4","2","2","2","2","2","2","3","4","2","1","0","1","1","0","0","0","1","0","1","1","0","0","0","1","4","2","2","2","1","1","3","3","2","4","3","745687953166307329","王","24","","","","match","","","","","","","","","","","","","","key","f","16.666666666666668","768","428","f","true","match","img/square.png","方形","方形","ALT1","formal_ALT1_2","","","","","","","","","","","",""
"null","<span style='color:GreenYellow; font-size: 70px;'>正确! </span>","null","html-keyboard-response","112","344179","0.0-7.0-1.0-4.0-0.0-1.2","3","3","4","3","3","4","4","3","4","4","4","4","3","4","4","5","5","4","4","4","2","2","2","2","2","2","3","4","2","1","0","1","1","0","0","0","1","0","1","1","0","0","0","1","4","2","2","2","1","1","3","3","2","4","3","745687953166307329","王","24","","","","","","","","","","","","","","","","","","","","","","","","","","","","","","feedback_test","","","","","","","","","","","",""
"675","","j","psychophysics","113","345856","0.0-7.0-1.0-4.0-0.0-0.3","3","3","4","3","3","4","4","3","4","4","4","4","3","4","4","5","5","4","4","4","2","2","2","2","2","2","3","4","2","1","0","1","1","0","0","0","1","0","1","1","0","0","0","1","4","2","2","2","1","1","3","3","2","4","3","745687953166307329","王","24","","","","nonmatch","","","","","","","","","","","","","","key","j","16.66600000000035","768","428","j","true","nonmatch","img/ellipse.png","五边","椭圆","ALT1","formal_ALT1_2","","","","","","","","","","","",""
"null","<span style='color:GreenYellow; font-size: 70px;'>正确! </span>","null","html-keyboard-response","114","346357","0.0-7.0-1.0-4.0-0.0-1.3","3","3","4","3","3","4","4","3","4","4","4","4","3","4","4","5","5","4","4","4","2","2","2","2","2","2","3","4","2","1","0","1","1","0","0","0","1","0","1","1","0","0","0","1","4","2","2","2","1","1","3","3","2","4","3","745687953166307329","王","24","","","","","","","","","","","","","","","","","","","","","","","","","","","","","","feedback_test","","","","","","","","","","","",""
"696","","j","psychophysics","115","348055","0.0-7.0-1.0-4.0-0.0-0.4","3","3","4","3","3","4","4","3","4","4","4","4","3","4","4","5","5","4","4","4","2","2","2","2","2","2","3","4","2","1","0","1","1","0","0","0","1","0","1","1","0","0","0","1","4","2","2","2","1","1","3","3","2","4","3","745687953166307329","王","24","","","","nonmatch","","","","","","","","","","","","","","key","j","16.657425742573913","768","428","j","true","nonmatch","img/square.png","椭圆","方形","ALT1","formal_ALT1_2","","","","","","","","","","","",""
"null","<span style='color:GreenYellow; font-size: 70px;'>正确! </span>","null","html-keyboard-response","116","348556","0.0-7.0-1.0-4.0-0.0-1.4","3","3","4","3","3","4","4","3","4","4","4","4","3","4","4","5","5","4","4","4","2","2","2","2","2","2","3","4","2","1","0","1","1","0","0","0","1","0","1","1","0","0","0","1","4","2","2","2","1","1","3","3","2","4","3","745687953166307329","王","24","","","","","","","","","","","","","","","","","","","","","","","","","","","","","","feedback_test","","","","","","","","","","","",""
"625","","f","psychophysics","117","350182","0.0-7.0-1.0-4.0-0.0-0.5","3","3","4","3","3","4","4","3","4","4","4","4","3","4","4","5","5","4","4","4","2","2","2","2","2","2","3","4","2","1","0","1","1","0","0","0","1","0","1","1","0","0","0","1","4","2","2","2","1","1","3","3","2","4","3","745687953166307329","王","24","","","","match","","","","","","","","","","","","","","key","f","16.663917525773435","768","428","f","true","match","img/trapezoid.png","梯形","梯形","ALT1","formal_ALT1_2","","","","","","","","","","","",""
"null","<span style='color:GreenYellow; font-size: 70px;'>正确! </span>","null","html-keyboard-response","118","350683","0.0-7.0-1.0-4.0-0.0-1.5","3","3","4","3","3","4","4","3","4","4","4","4","3","4","4","5","5","4","4","4","2","2","2","2","2","2","3","4","2","1","0","1","1","0","0","0","1","0","1","1","0","0","0","1","4","2","2","2","1","1","3","3","2","4","3","745687953166307329","王","24","","","","","","","","","","","","","","","","","","","","","","","","","","","","","","feedback_test","","","","","","","","","","","",""
"560","","f","psychophysics","119","352246","0.0-7.0-1.0-4.0-0.0-0.6","3","3","4","3","3","4","4","3","4","4","4","4","3","4","4","5","5","4","4","4","2","2","2","2","2","2","3","4","2","1","0","1","1","0","0","0","1","0","1","1","0","0","0","1","4","2","2","2","1","1","3","3","2","4","3","745687953166307329","王","24","","","","match","","","","","","","","","","","","","","key","f","16.66344086021518","768","428","f","true","match","img/pentagon.png","五边","五边","ALT1","formal_ALT1_2","","","","","","","","","","","",""
"null","<span style='color:GreenYellow; font-size: 70px;'>正确! </span>","null","html-keyboard-response","120","352747","0.0-7.0-1.0-4.0-0.0-1.6","3","3","4","3","3","4","4","3","4","4","4","4","3","4","4","5","5","4","4","4","2","2","2","2","2","2","3","4","2","1","0","1","1","0","0","0","1","0","1","1","0","0","0","1","4","2","2","2","1","1","3","3","2","4","3","745687953166307329","王","24","","","","","","","","","","","","","","","","","","","","","","","","","","","","","","feedback_test","","","","","","","","","","","",""
"770","","f","psychophysics","121","354518","0.0-7.0-1.0-4.0-0.0-0.7","3","3","4","3","3","4","4","3","4","4","4","4","3","4","4","5","5","4","4","4","2","2","2","2","2","2","3","4","2","1","0","1","1","0","0","0","1","0","1","1","0","0","0","1","4","2","2","2","1","1","3","3","2","4","3","745687953166307329","王","24","","","","match","","","","","","","","","","","","","","key","f","16.665714285714508","768","428","f","true","match","img/trapezoid.png","梯形","梯形","ALT1","formal_ALT1_2","","","","","","","","","","","",""
"null","<span style='color:GreenYellow; font-size: 70px;'>正确! </span>","null","html-keyboard-response","122","355020","0.0-7.0-1.0-4.0-0.0-1.7","3","3","4","3","3","4","4","3","4","4","4","4","3","4","4","5","5","4","4","4","2","2","2","2","2","2","3","4","2","1","0","1","1","0","0","0","1","0","1","1","0","0","0","1","4","2","2","2","1","1","3","3","2","4","3","745687953166307329","王","24","","","","","","","","","","","","","","","","","","","","","","","","","","","","","","feedback_test","","","","","","","","","","","",""
"601","","j","psychophysics","123","356622","0.0-7.0-1.0-4.0-0.0-0.8","3","3","4","3","3","4","4","3","4","4","4","4","3","4","4","5","5","4","4","4","2","2","2","2","2","2","3","4","2","1","0","1","1","0","0","0","1","0","1","1","0","0","0","1","4","2","2","2","1","1","3","3","2","4","3","745687953166307329","王","24","","","","nonmatch","","","","","","","","","","","","","","key","j","16.66526315789486","768","428","j","true","nonmatch","img/ellipse.png","方形","椭圆","ALT1","formal_ALT1_2","","","","","","","","","","","",""
"null","<span style='color:GreenYellow; font-size: 70px;'>正确! </span>","null","html-keyboard-response","124","357124","0.0-7.0-1.0-4.0-0.0-1.8","3","3","4","3","3","4","4","3","4","4","4","4","3","4","4","5","5","4","4","4","2","2","2","2","2","2","3","4","2","1","0","1","1","0","0","0","1","0","1","1","0","0","0","1","4","2","2","2","1","1","3","3","2","4","3","745687953166307329","王","24","","","","","","","","","","","","","","","","","","","","","","","","","","","","","","feedback_test","","","","","","","","","","","",""
"578","","f","psychophysics","125","358703","0.0-7.0-1.0-4.0-0.0-0.9","3","3","4","3","3","4","4","3","4","4","4","4","3","4","4","5","5","4","4","4","2","2","2","2","2","2","3","4","2","1","0","1","1","0","0","0","1","0","1","1","0","0","0","1","4","2","2","2","1","1","3","3","2","4","3","745687953166307329","王","24","","","","match","","","","","","","","","","","","","","key","f","16.665957446808264","768","428","f","true","match","img/pentagon.png","五边","五边","ALT1","formal_ALT1_2","","","","","","","","","","","",""
"null","<span style='color:GreenYellow; font-size: 70px;'>正确! </span>","null","html-keyboard-response","126","359204","0.0-7.0-1.0-4.0-0.0-1.9","3","3","4","3","3","4","4","3","4","4","4","4","3","4","4","5","5","4","4","4","2","2","2","2","2","2","3","4","2","1","0","1","1","0","0","0","1","0","1","1","0","0","0","1","4","2","2","2","1","1","3","3","2","4","3","745687953166307329","王","24","","","","","","","","","","","","","","","","","","","","","","","","","","","","","","feedback_test","","","","","","","","","","","",""
"569","","f","psychophysics","127","360774","0.0-7.0-1.0-4.0-0.0-0.10","3","3","4","3","3","4","4","3","4","4","4","4","3","4","4","5","5","4","4","4","2","2","2","2","2","2","3","4","2","1","0","1","1","0","0","0","1","0","1","1","0","0","0","1","4","2","2","2","1","1","3","3","2","4","3","745687953166307329","王","24","","","","match","","","","","","","","","","","","","","key","f","16.664516129032133","768","428","f","true","match","img/trapezoid.png","梯形","梯形","ALT1","formal_ALT1_2","","","","","","","","","","","",""
"null","<span style='color:GreenYellow; font-size: 70px;'>正确! </span>","null","html-keyboard-response","128","361276","0.0-7.0-1.0-4.0-0.0-1.10","3","3","4","3","3","4","4","3","4","4","4","4","3","4","4","5","5","4","4","4","2","2","2","2","2","2","3","4","2","1","0","1","1","0","0","0","1","0","1","1","0","0","0","1","4","2","2","2","1","1","3","3","2","4","3","745687953166307329","王","24","","","","","","","","","","","","","","","","","","","","","","","","","","","","","","feedback_test","","","","","","","","","","","",""
"683","","f","psychophysics","129","362959","0.0-7.0-1.0-4.0-0.0-0.11","3","3","4","3","3","4","4","3","4","4","4","4","3","4","4","5","5","4","4","4","2","2","2","2","2","2","3","4","2","1","0","1","1","0","0","0","1","0","1","1","0","0","0","1","4","2","2","2","1","1","3","3","2","4","3","745687953166307329","王","24","","","","match","","","","","","","","","","","","","","key","f","16.66600000000035","768","428","f","true","match","img/ellipse.png","椭圆","椭圆","ALT1","formal_ALT1_2","","","","","","","","","","","",""
"null","<span style='color:GreenYellow; font-size: 70px;'>正确! </span>","null","html-keyboard-response","130","363460","0.0-7.0-1.0-4.0-0.0-1.11","3","3","4","3","3","4","4","3","4","4","4","4","3","4","4","5","5","4","4","4","2","2","2","2","2","2","3","4","2","1","0","1","1","0","0","0","1","0","1","1","0","0","0","1","4","2","2","2","1","1","3","3","2","4","3","745687953166307329","王","24","","","","","","","","","","","","","","","","","","","","","","","","","","","","","","feedback_test","","","","","","","","","","","",""
"561","","f","psychophysics","131","365022","0.0-7.0-1.0-4.0-0.0-0.12","3","3","4","3","3","4","4","3","4","4","4","4","3","4","4","5","5","4","4","4","2","2","2","2","2","2","3","4","2","1","0","1","1","0","0","0","1","0","1","1","0","0","0","1","4","2","2","2","1","1","3","3","2","4","3","745687953166307329","王","24","","","","match","","","","","","","","","","","","","","key","f","16.664516129032133","768","428","j","false","nonmatch","img/trapezoid.png","椭圆","梯形","ALT1","formal_ALT1_2","","","","","","","","","","","",""
"null","<span style='color:red; font-size: 70px;'>错误! </span>","null","html-keyboard-response","132","365523","0.0-7.0-1.0-4.0-0.0-1.12","3","3","4","3","3","4","4","3","4","4","4","4","3","4","4","5","5","4","4","4","2","2","2","2","2","2","3","4","2","1","0","1","1","0","0","0","1","0","1","1","0","0","0","1","4","2","2","2","1","1","3","3","2","4","3","745687953166307329","王","24","","","","","","","","","","","","","","","","","","","","","","","","","","","","","","feedback_test","","","","","","","","","","","",""
"593","","f","psychophysics","133","367118","0.0-7.0-1.0-4.0-0.0-0.13","3","3","4","3","3","4","4","3","4","4","4","4","3","4","4","5","5","4","4","4","2","2","2","2","2","2","3","4","2","1","0","1","1","0","0","0","1","0","1","1","0","0","0","1","4","2","2","2","1","1","3","3","2","4","3","745687953166307329","王","24","","","","match","","","","","","","","","","","","","","key","f","16.66526315789486","768","428","j","false","nonmatch","img/pentagon.png","方形","五边","ALT1","formal_ALT1_2","","","","","","","","","","","",""
"null","<span style='color:red; font-size: 70px;'>错误! </span>","null","html-keyboard-response","134","367619","0.0-7.0-1.0-4.0-0.0-1.13","3","3","4","3","3","4","4","3","4","4","4","4","3","4","4","5","5","4","4","4","2","2","2","2","2","2","3","4","2","1","0","1","1","0","0","0","1","0","1","1","0","0","0","1","4","2","2","2","1","1","3","3","2","4","3","745687953166307329","王","24","","","","","","","","","","","","","","","","","","","","","","","","","","","","","","feedback_test","","","","","","","","","","","",""
"606","","f","psychophysics","135","369226","0.0-7.0-1.0-4.0-0.0-0.14","3","3","4","3","3","4","4","3","4","4","4","4","3","4","4","5","5","4","4","4","2","2","2","2","2","2","3","4","2","1","0","1","1","0","0","0","1","0","1","1","0","0","0","1","4","2","2","2","1","1","3","3","2","4","3","745687953166307329","王","24","","","","match","","","","","","","","","","","","","","key","f","16.665625000000244","768","428","f","true","match","img/square.png","方形","方形","ALT1","formal_ALT1_2","","","","","","","","","","","",""
"null","<span style='color:GreenYellow; font-size: 70px;'>正确! </span>","null","html-keyboard-response","136","369727","0.0-7.0-1.0-4.0-0.0-1.14","3","3","4","3","3","4","4","3","4","4","4","4","3","4","4","5","5","4","4","4","2","2","2","2","2","2","3","4","2","1","0","1","1","0","0","0","1","0","1","1","0","0","0","1","4","2","2","2","1","1","3","3","2","4","3","745687953166307329","王","24","","","","","","","","","","","","","","","","","","","","","","","","","","","","","","feedback_test","","","","","","","","","","","",""
"759","","j","psychophysics","137","371487","0.0-7.0-1.0-4.0-0.0-0.15","3","3","4","3","3","4","4","3","4","4","4","4","3","4","4","5","5","4","4","4","2","2","2","2","2","2","3","4","2","1","0","1","1","0","0","0","1","0","1","1","0","0","0","1","4","2","2","2","1","1","3","3","2","4","3","745687953166307329","王","24","","","","nonmatch","","","","","","","","","","","","","","key","j","16.667307692307915","768","428","j","true","nonmatch","img/pentagon.png","椭圆","五边","ALT1","formal_ALT1_2","","","","","","","","","","","",""
"null","<span style='color:GreenYellow; font-size: 70px;'>正确! </span>","null","html-keyboard-response","138","371988","0.0-7.0-1.0-4.0-0.0-1.15","3","3","4","3","3","4","4","3","4","4","4","4","3","4","4","5","5","4","4","4","2","2","2","2","2","2","3","4","2","1","0","1","1","0","0","0","1","0","1","1","0","0","0","1","4","2","2","2","1","1","3","3","2","4","3","745687953166307329","王","24","","","","","","","","","","","","","","","","","","","","","","","","","","","","","","feedback_test","","","","","","","","","","","",""
"672","","f","psychophysics","139","373662","0.0-7.0-1.0-4.0-0.0-0.16","3","3","4","3","3","4","4","3","4","4","4","4","3","4","4","5","5","4","4","4","2","2","2","2","2","2","3","4","2","1","0","1","1","0","0","0","1","0","1","1","0","0","0","1","4","2","2","2","1","1","3","3","2","4","3","745687953166307329","王","24","","","","match","","","","","","","","","","","","","","key","f","16.665","768","428","f","true","match","img/pentagon.png","五边","五边","ALT1","formal_ALT1_2","","","","","","","","","","","",""
"null","<span style='color:GreenYellow; font-size: 70px;'>正确! </span>","null","html-keyboard-response","140","374164","0.0-7.0-1.0-4.0-0.0-1.16","3","3","4","3","3","4","4","3","4","4","4","4","3","4","4","5","5","4","4","4","2","2","2","2","2","2","3","4","2","1","0","1","1","0","0","0","1","0","1","1","0","0","0","1","4","2","2","2","1","1","3","3","2","4","3","745687953166307329","王","24","","","","","","","","","","","","","","","","","","","","","","","","","","","","","","feedback_test","","","","","","","","","","","",""
"593","","f","psychophysics","141","375758","0.0-7.0-1.0-4.0-0.0-0.17","3","3","4","3","3","4","4","3","4","4","4","4","3","4","4","5","5","4","4","4","2","2","2","2","2","2","3","4","2","1","0","1","1","0","0","0","1","0","1","1","0","0","0","1","4","2","2","2","1","1","3","3","2","4","3","745687953166307329","王","24","","","","match","","","","","","","","","","","","","","key","f","16.652631578947368","768","428","f","true","match","img/square.png","方形","方形","ALT1","formal_ALT1_2","","","","","","","","","","","",""
"null","<span style='color:GreenYellow; font-size: 70px;'>正确! </span>","null","html-keyboard-response","142","376260","0.0-7.0-1.0-4.0-0.0-1.17","3","3","4","3","3","4","4","3","4","4","4","4","3","4","4","5","5","4","4","4","2","2","2","2","2","2","3","4","2","1","0","1","1","0","0","0","1","0","1","1","0","0","0","1","4","2","2","2","1","1","3","3","2","4","3","745687953166307329","王","24","","","","","","","","","","","","","","","","","","","","","","","","","","","","","","feedback_test","","","","","","","","","","","",""
"747","","j","psychophysics","143","378007","0.0-7.0-1.0-4.0-0.0-0.18","3","3","4","3","3","4","4","3","4","4","4","4","3","4","4","5","5","4","4","4","2","2","2","2","2","2","3","4","2","1","0","1","1","0","0","0","1","0","1","1","0","0","0","1","4","2","2","2","1","1","3","3","2","4","3","745687953166307329","王","24","","","","nonmatch","","","","","","","","","","","","","","key","j","16.6663461538466","768","428","j","true","nonmatch","img/trapezoid.png","方形","梯形","ALT1","formal_ALT1_2","","","","","","","","","","","",""
"null","<span style='color:GreenYellow; font-size: 70px;'>正确! </span>","null","html-keyboard-response","144","378507","0.0-7.0-1.0-4.0-0.0-1.18","3","3","4","3","3","4","4","3","4","4","4","4","3","4","4","5","5","4","4","4","2","2","2","2","2","2","3","4","2","1","0","1","1","0","0","0","1","0","1","1","0","0","0","1","4","2","2","2","1","1","3","3","2","4","3","745687953166307329","王","24","","","","","","","","","","","","","","","","","","","","","","","","","","","","","","feedback_test","","","","","","","","","","","",""
"652","","j","psychophysics","145","380160","0.0-7.0-1.0-4.0-0.0-0.19","3","3","4","3","3","4","4","3","4","4","4","4","3","4","4","5","5","4","4","4","2","2","2","2","2","2","3","4","2","1","0","1","1","0","0","0","1","0","1","1","0","0","0","1","4","2","2","2","1","1","3","3","2","4","3","745687953166307329","王","24","","","","nonmatch","","","","","","","","","","","","","","key","j","16.666326530612125","768","428","f","false","match","img/ellipse.png","椭圆","椭圆","ALT1","formal_ALT1_2","","","","","","","","","","","",""
"null","<span style='color:red; font-size: 70px;'>错误! </span>","null","html-keyboard-response","146","380661","0.0-7.0-1.0-4.0-0.0-1.19","3","3","4","3","3","4","4","3","4","4","4","4","3","4","4","5","5","4","4","4","2","2","2","2","2","2","3","4","2","1","0","1","1","0","0","0","1","0","1","1","0","0","0","1","4","2","2","2","1","1","3","3","2","4","3","745687953166307329","王","24","","","","","","","","","","","","","","","","","","","","","","","","","","","","","","feedback_test","","","","","","","","","","","",""
"815","","j","psychophysics","147","382478","0.0-7.0-1.0-4.0-0.0-0.20","3","3","4","3","3","4","4","3","4","4","4","4","3","4","4","5","5","4","4","4","2","2","2","2","2","2","3","4","2","1","0","1","1","0","0","0","1","0","1","1","0","0","0","1","4","2","2","2","1","1","3","3","2","4","3","745687953166307329","王","24","","","","nonmatch","","","","","","","","","","","","","","key","j","16.664814814815244","768","428","j","true","nonmatch","img/pentagon.png","梯形","五边","ALT1","formal_ALT1_2","","","","","","","","","","","",""
"null","<span style='color:GreenYellow; font-size: 70px;'>正确! </span>","null","html-keyboard-response","148","382981","0.0-7.0-1.0-4.0-0.0-1.20","3","3","4","3","3","4","4","3","4","4","4","4","3","4","4","5","5","4","4","4","2","2","2","2","2","2","3","4","2","1","0","1","1","0","0","0","1","0","1","1","0","0","0","1","4","2","2","2","1","1","3","3","2","4","3","745687953166307329","王","24","","","","","","","","","","","","","","","","","","","","","","","","","","","","","","feedback_test","","","","","","","","","","","",""
"712","","j","psychophysics","149","384695","0.0-7.0-1.0-4.0-0.0-0.21","3","3","4","3","3","4","4","3","4","4","4","4","3","4","4","5","5","4","4","4","2","2","2","2","2","2","3","4","2","1","0","1","1","0","0","0","1","0","1","1","0","0","0","1","4","2","2","2","1","1","3","3","2","4","3","745687953166307329","王","24","","","","nonmatch","","","","","","","","","","","","","","key","j","16.664705882352827","768","428","j","true","nonmatch","img/square.png","梯形","方形","ALT1","formal_ALT1_2","","","","","","","","","","","",""
"null","<span style='color:GreenYellow; font-size: 70px;'>正确! </span>","null","html-keyboard-response","150","385196","0.0-7.0-1.0-4.0-0.0-1.21","3","3","4","3","3","4","4","3","4","4","4","4","3","4","4","5","5","4","4","4","2","2","2","2","2","2","3","4","2","1","0","1","1","0","0","0","1","0","1","1","0","0","0","1","4","2","2","2","1","1","3","3","2","4","3","745687953166307329","王","24","","","","","","","","","","","","","","","","","","","","","","","","","","","","","","feedback_test","","","","","","","","","","","",""
"713","","j","psychophysics","151","386910","0.0-7.0-1.0-4.0-0.0-0.22","3","3","4","3","3","4","4","3","4","4","4","4","3","4","4","5","5","4","4","4","2","2","2","2","2","2","3","4","2","1","0","1","1","0","0","0","1","0","1","1","0","0","0","1","4","2","2","2","1","1","3","3","2","4","3","745687953166307329","王","24","","","","nonmatch","","","","","","","","","","","","","","key","j","16.664705882352827","768","428","j","true","nonmatch","img/trapezoid.png","五边","梯形","ALT1","formal_ALT1_2","","","","","","","","","","","",""
"null","<span style='color:GreenYellow; font-size: 70px;'>正确! </span>","null","html-keyboard-response","152","387411","0.0-7.0-1.0-4.0-0.0-1.22","3","3","4","3","3","4","4","3","4","4","4","4","3","4","4","5","5","4","4","4","2","2","2","2","2","2","3","4","2","1","0","1","1","0","0","0","1","0","1","1","0","0","0","1","4","2","2","2","1","1","3","3","2","4","3","745687953166307329","王","24","","","","","","","","","","","","","","","","","","","","","","","","","","","","","","feedback_test","","","","","","","","","","","",""
"681","","j","psychophysics","153","389095","0.0-7.0-1.0-4.0-0.0-0.23","3","3","4","3","3","4","4","3","4","4","4","4","3","4","4","5","5","4","4","4","2","2","2","2","2","2","3","4","2","1","0","1","1","0","0","0","1","0","1","1","0","0","0","1","4","2","2","2","1","1","3","3","2","4","3","745687953166307329","王","24","","","","nonmatch","","","","","","","","","","","","","","key","j","16.66600000000035","768","428","j","true","nonmatch","img/square.png","五边","方形","ALT1","formal_ALT1_2","","","","","","","","","","","",""
"null","<span style='color:GreenYellow; font-size: 70px;'>正确! </span>","null","html-keyboard-response","154","389596","0.0-7.0-1.0-4.0-0.0-1.23","3","3","4","3","3","4","4","3","4","4","4","4","3","4","4","5","5","4","4","4","2","2","2","2","2","2","3","4","2","1","0","1","1","0","0","0","1","0","1","1","0","0","0","1","4","2","2","2","1","1","3","3","2","4","3","745687953166307329","王","24","","","","","","","","","","","","","","","","","","","","","","","","","","","","","","feedback_test","","","","","","","","","","","",""
"553","","f","psychophysics","155","391151","0.0-7.0-1.0-4.0-0.0-0.24","3","3","4","3","3","4","4","3","4","4","4","4","3","4","4","5","5","4","4","4","2","2","2","2","2","2","3","4","2","1","0","1","1","0","0","0","1","0","1","1","0","0","0","1","4","2","2","2","1","1","3","3","2","4","3","745687953166307329","王","24","","","","match","","","","","","","","","","","","","","key","f","16.664130434782354","768","428","f","true","match","img/square.png","方形","方形","ALT1","formal_ALT1_2","","","","","","","","","","","",""
"null","<span style='color:GreenYellow; font-size: 70px;'>正确! </span>","null","html-keyboard-response","156","391652","0.0-7.0-1.0-4.0-0.0-1.24","3","3","4","3","3","4","4","3","4","4","4","4","3","4","4","5","5","4","4","4","2","2","2","2","2","2","3","4","2","1","0","1","1","0","0","0","1","0","1","1","0","0","0","1","4","2","2","2","1","1","3","3","2","4","3","745687953166307329","王","24","","","","","","","","","","","","","","","","","","","","","","","","","","","","","","feedback_test","","","","","","","","","","","",""
"696","","j","psychophysics","157","393350","0.0-7.0-1.0-4.0-0.0-0.25","3","3","4","3","3","4","4","3","4","4","4","4","3","4","4","5","5","4","4","4","2","2","2","2","2","2","3","4","2","1","0","1","1","0","0","0","1","0","1","1","0","0","0","1","4","2","2","2","1","1","3","3","2","4","3","745687953166307329","王","24","","","","nonmatch","","","","","","","","","","","","","","key","j","16.636633663366798","768","428","j","true","nonmatch","img/trapezoid.png","椭圆","梯形","ALT1","formal_ALT1_2","","","","","","","","","","","",""
"null","<span style='color:GreenYellow; font-size: 70px;'>正确! </span>","null","html-keyboard-response","158","393851","0.0-7.0-1.0-4.0-0.0-1.25","3","3","4","3","3","4","4","3","4","4","4","4","3","4","4","5","5","4","4","4","2","2","2","2","2","2","3","4","2","1","0","1","1","0","0","0","1","0","1","1","0","0","0","1","4","2","2","2","1","1","3","3","2","4","3","745687953166307329","王","24","","","","","","","","","","","","","","","","","","","","","","","","","","","","","","feedback_test","","","","","","","","","","","",""
"721","","j","psychophysics","159","395579","0.0-7.0-1.0-4.0-0.0-0.26","3","3","4","3","3","4","4","3","4","4","4","4","3","4","4","5","5","4","4","4","2","2","2","2","2","2","3","4","2","1","0","1","1","0","0","0","1","0","1","1","0","0","0","1","4","2","2","2","1","1","3","3","2","4","3","745687953166307329","王","24","","","","nonmatch","","","","","","","","","","","","","","key","j","16.66601941747607","768","428","j","true","nonmatch","img/pentagon.png","方形","五边","ALT1","formal_ALT1_2","","","","","","","","","","","",""
"null","<span style='color:GreenYellow; font-size: 70px;'>正确! </span>","null","html-keyboard-response","160","396080","0.0-7.0-1.0-4.0-0.0-1.26","3","3","4","3","3","4","4","3","4","4","4","4","3","4","4","5","5","4","4","4","2","2","2","2","2","2","3","4","2","1","0","1","1","0","0","0","1","0","1","1","0","0","0","1","4","2","2","2","1","1","3","3","2","4","3","745687953166307329","王","24","","","","","","","","","","","","","","","","","","","","","","","","","","","","","","feedback_test","","","","","","","","","","","",""
"621","","j","psychophysics","161","397703","0.0-7.0-1.0-4.0-0.0-0.27","3","3","4","3","3","4","4","3","4","4","4","4","3","4","4","5","5","4","4","4","2","2","2","2","2","2","3","4","2","1","0","1","1","0","0","0","1","0","1","1","0","0","0","1","4","2","2","2","1","1","3","3","2","4","3","745687953166307329","王","24","","","","nonmatch","","","","","","","","","","","","","","key","j","16.665625000000244","768","428","j","true","nonmatch","img/trapezoid.png","五边","梯形","ALT1","formal_ALT1_2","","","","","","","","","","","",""
"null","<span style='color:GreenYellow; font-size: 70px;'>正确! </span>","null","html-keyboard-response","162","398204","0.0-7.0-1.0-4.0-0.0-1.27","3","3","4","3","3","4","4","3","4","4","4","4","3","4","4","5","5","4","4","4","2","2","2","2","2","2","3","4","2","1","0","1","1","0","0","0","1","0","1","1","0","0","0","1","4","2","2","2","1","1","3","3","2","4","3","745687953166307329","王","24","","","","","","","","","","","","","","","","","","","","","","","","","","","","","","feedback_test","","","","","","","","","","","",""
"979","","f","psychophysics","163","400184","0.0-7.0-1.0-4.0-0.0-0.28","3","3","4","3","3","4","4","3","4","4","4","4","3","4","4","5","5","4","4","4","2","2","2","2","2","2","3","4","2","1","0","1","1","0","0","0","1","0","1","1","0","0","0","1","4","2","2","2","1","1","3","3","2","4","3","745687953166307329","王","24","","","","match","","","","","","","","","","","","","","key","f","16.666949152542472","768","428","f","true","match","img/pentagon.png","五边","五边","ALT1","formal_ALT1_2","","","","","","","","","","","",""
"null","<span style='color:GreenYellow; font-size: 70px;'>正确! </span>","null","html-keyboard-response","164","400685","0.0-7.0-1.0-4.0-0.0-1.28","3","3","4","3","3","4","4","3","4","4","4","4","3","4","4","5","5","4","4","4","2","2","2","2","2","2","3","4","2","1","0","1","1","0","0","0","1","0","1","1","0","0","0","1","4","2","2","2","1","1","3","3","2","4","3","745687953166307329","王","24","","","","","","","","","","","","","","","","","","","","","","","","","","","","","","feedback_test","","","","","","","","","","","",""
"904","","j","psychophysics","165","402591","0.0-7.0-1.0-4.0-0.0-0.29","3","3","4","3","3","4","4","3","4","4","4","4","3","4","4","5","5","4","4","4","2","2","2","2","2","2","3","4","2","1","0","1","1","0","0","0","1","0","1","1","0","0","0","1","4","2","2","2","1","1","3","3","2","4","3","745687953166307329","王","24","","","","nonmatch","","","","","","","","","","","","","","key","j","16.66548672566382","768","428","j","true","nonmatch","img/ellipse.png","梯形","椭圆","ALT1","formal_ALT1_2","","","","","","","","","","","",""
"null","<span style='color:GreenYellow; font-size: 70px;'>正确! </span>","null","html-keyboard-response","166","403092","0.0-7.0-1.0-4.0-0.0-1.29","3","3","4","3","3","4","4","3","4","4","4","4","3","4","4","5","5","4","4","4","2","2","2","2","2","2","3","4","2","1","0","1","1","0","0","0","1","0","1","1","0","0","0","1","4","2","2","2","1","1","3","3","2","4","3","745687953166307329","王","24","","","","","","","","","","","","","","","","","","","","","","","","","","","","","","feedback_test","","","","","","","","","","","",""
"697","","f","psychophysics","167","404790","0.0-7.0-1.0-4.0-0.0-0.30","3","3","4","3","3","4","4","3","4","4","4","4","3","4","4","5","5","4","4","4","2","2","2","2","2","2","3","4","2","1","0","1","1","0","0","0","1","0","1","1","0","0","0","1","4","2","2","2","1","1","3","3","2","4","3","745687953166307329","王","24","","","","match","","","","","","","","","","","","","","key","f","16.66534653465358","768","428","f","true","match","img/pentagon.png","五边","五边","ALT1","formal_ALT1_2","","","","","","","","","","","",""
"null","<span style='color:GreenYellow; font-size: 70px;'>正确! </span>","null","html-keyboard-response","168","405291","0.0-7.0-1.0-4.0-0.0-1.30","3","3","4","3","3","4","4","3","4","4","4","4","3","4","4","5","5","4","4","4","2","2","2","2","2","2","3","4","2","1","0","1","1","0","0","0","1","0","1","1","0","0","0","1","4","2","2","2","1","1","3","3","2","4","3","745687953166307329","王","24","","","","","","","","","","","","","","","","","","","","","","","","","","","","","","feedback_test","","","","","","","","","","","",""
"884","","j","psychophysics","169","407177","0.0-7.0-1.0-4.0-0.0-0.31","3","3","4","3","3","4","4","3","4","4","4","4","3","4","4","5","5","4","4","4","2","2","2","2","2","2","3","4","2","1","0","1","1","0","0","0","1","0","1","1","0","0","0","1","4","2","2","2","1","1","3","3","2","4","3","745687953166307329","王","24","","","","nonmatch","","","","","","","","","","","","","","key","j","16.66428571428592","768","428","j","true","nonmatch","img/pentagon.png","椭圆","五边","ALT1","formal_ALT1_2","","","","","","","","","","","",""
"null","<span style='color:GreenYellow; font-size: 70px;'>正确! </span>","null","html-keyboard-response","170","407678","0.0-7.0-1.0-4.0-0.0-1.31","3","3","4","3","3","4","4","3","4","4","4","4","3","4","4","5","5","4","4","4","2","2","2","2","2","2","3","4","2","1","0","1","1","0","0","0","1","0","1","1","0","0","0","1","4","2","2","2","1","1","3","3","2","4","3","745687953166307329","王","24","","","","","","","","","","","","","","","","","","","","","","","","","","","","","","feedback_test","","","","","","","","","","","",""
"703","","j","psychophysics","171","409383","0.0-7.0-1.0-4.0-0.0-0.32","3","3","4","3","3","4","4","3","4","4","4","4","3","4","4","5","5","4","4","4","2","2","2","2","2","2","3","4","2","1","0","1","1","0","0","0","1","0","1","1","0","0","0","1","4","2","2","2","1","1","3","3","2","4","3","745687953166307329","王","24","","","","nonmatch","","","","","","","","","","","","","","key","j","16.667326732672922","768","428","j","true","nonmatch","img/ellipse.png","五边","椭圆","ALT1","formal_ALT1_2","","","","","","","","","","","",""
"null","<span style='color:GreenYellow; font-size: 70px;'>正确! </span>","null","html-keyboard-response","172","409884","0.0-7.0-1.0-4.0-0.0-1.32","3","3","4","3","3","4","4","3","4","4","4","4","3","4","4","5","5","4","4","4","2","2","2","2","2","2","3","4","2","1","0","1","1","0","0","0","1","0","1","1","0","0","0","1","4","2","2","2","1","1","3","3","2","4","3","745687953166307329","王","24","","","","","","","","","","","","","","","","","","","","","","","","","","","","","","feedback_test","","","","","","","","","","","",""
"697","","f","psychophysics","173","411582","0.0-7.0-1.0-4.0-0.0-0.33","3","3","4","3","3","4","4","3","4","4","4","4","3","4","4","5","5","4","4","4","2","2","2","2","2","2","3","4","2","1","0","1","1","0","0","0","1","0","1","1","0","0","0","1","4","2","2","2","1","1","3","3","2","4","3","745687953166307329","王","24","","","","match","","","","","","","","","","","","","","key","f","16.66435643564391","768","428","f","true","match","img/pentagon.png","五边","五边","ALT1","formal_ALT1_2","","","","","","","","","","","",""
"null","<span style='color:GreenYellow; font-size: 70px;'>正确! </span>","null","html-keyboard-response","174","412083","0.0-7.0-1.0-4.0-0.0-1.33","3","3","4","3","3","4","4","3","4","4","4","4","3","4","4","5","5","4","4","4","2","2","2","2","2","2","3","4","2","1","0","1","1","0","0","0","1","0","1","1","0","0","0","1","4","2","2","2","1","1","3","3","2","4","3","745687953166307329","王","24","","","","","","","","","","","","","","","","","","","","","","","","","","","","","","feedback_test","","","","","","","","","","","",""
"974","","f","psychophysics","175","414058","0.0-7.0-1.0-4.0-0.0-0.34","3","3","4","3","3","4","4","3","4","4","4","4","3","4","4","5","5","4","4","4","2","2","2","2","2","2","3","4","2","1","0","1","1","0","0","0","1","0","1","1","0","0","0","1","4","2","2","2","1","1","3","3","2","4","3","745687953166307329","王","24","","","","match","","","","","","","","","","","","","","key","f","16.665254237288135","768","428","f","true","match","img/square.png","方形","方形","ALT1","formal_ALT1_2","","","","","","","","","","","",""
"null","<span style='color:GreenYellow; font-size: 70px;'>正确! </span>","null","html-keyboard-response","176","414560","0.0-7.0-1.0-4.0-0.0-1.34","3","3","4","3","3","4","4","3","4","4","4","4","3","4","4","5","5","4","4","4","2","2","2","2","2","2","3","4","2","1","0","1","1","0","0","0","1","0","1","1","0","0","0","1","4","2","2","2","1","1","3","3","2","4","3","745687953166307329","王","24","","","","","","","","","","","","","","","","","","","","","","","","","","","","","","feedback_test","","","","","","","","","","","",""
"1073","","f","psychophysics","177","416633","0.0-7.0-1.0-4.0-0.0-0.35","3","3","4","3","3","4","4","3","4","4","4","4","3","4","4","5","5","4","4","4","2","2","2","2","2","2","3","4","2","1","0","1","1","0","0","0","1","0","1","1","0","0","0","1","4","2","2","2","1","1","3","3","2","4","3","745687953166307329","王","24","","","","match","","","","","","","","","","","","","","key","f","16.66532258064516","768","428","f","true","match","img/trapezoid.png","梯形","梯形","ALT1","formal_ALT1_2","","","","","","","","","","","",""
"null","<span style='color:GreenYellow; font-size: 70px;'>正确! </span>","null","html-keyboard-response","178","417134","0.0-7.0-1.0-4.0-0.0-1.35","3","3","4","3","3","4","4","3","4","4","4","4","3","4","4","5","5","4","4","4","2","2","2","2","2","2","3","4","2","1","0","1","1","0","0","0","1","0","1","1","0","0","0","1","4","2","2","2","1","1","3","3","2","4","3","745687953166307329","王","24","","","","","","","","","","","","","","","","","","","","","","","","","","","","","","feedback_test","","","","","","","","","","","",""
"719","","j","psychophysics","179","418854","0.0-7.0-1.0-4.0-0.0-0.36","3","3","4","3","3","4","4","3","4","4","4","4","3","4","4","5","5","4","4","4","2","2","2","2","2","2","3","4","2","1","0","1","1","0","0","0","1","0","1","1","0","0","0","1","4","2","2","2","1","1","3","3","2","4","3","745687953166307329","王","24","","","","nonmatch","","","","","","","","","","","","","","key","j","16.665686274510033","768","428","j","true","nonmatch","img/square.png","五边","方形","ALT1","formal_ALT1_2","","","","","","","","","","","",""
"null","<span style='color:GreenYellow; font-size: 70px;'>正确! </span>","null","html-keyboard-response","180","419355","0.0-7.0-1.0-4.0-0.0-1.36","3","3","4","3","3","4","4","3","4","4","4","4","3","4","4","5","5","4","4","4","2","2","2","2","2","2","3","4","2","1","0","1","1","0","0","0","1","0","1","1","0","0","0","1","4","2","2","2","1","1","3","3","2","4","3","745687953166307329","王","24","","","","","","","","","","","","","","","","","","","","","","","","","","","","","","feedback_test","","","","","","","","","","","",""
"699","","j","psychophysics","181","421054","0.0-7.0-1.0-4.0-0.0-0.37","3","3","4","3","3","4","4","3","4","4","4","4","3","4","4","5","5","4","4","4","2","2","2","2","2","2","3","4","2","1","0","1","1","0","0","0","1","0","1","1","0","0","0","1","4","2","2","2","1","1","3","3","2","4","3","745687953166307329","王","24","","","","nonmatch","","","","","","","","","","","","","","key","j","16.667326732672922","768","428","j","true","nonmatch","img/square.png","椭圆","方形","ALT1","formal_ALT1_2","","","","","","","","","","","",""
