"rt","stimulus","response","trial_type","trial_index","time_elapsed","internal_node_id","ses_1","ses_2","ses_3","ses_4","ses_5","ses_6","ses_7","ses_8","ses_9","ses_10","coreself_1","coreself_2","coreself_3","coreself_4","coreself_5","coreself_6","coreself_7","coreself_8","coreself_9","coreself_10","SGPS_1","SGPS_2","SGPS_3","SGPS_4","SGPS_5","SGPS_6","SGPS_7","SGPS_8","SGPS_9","NPI1","NPI2","NPI3","NPI4","NPI5","NPI6","NPI7","NPI8","NPI9","NPI10","NPI11","NPI12","NPI13","NPI14","NPI15","hsns_1","hsns_2","hsns_3","hsns_4","hsns_5","trap1","hsns_6","hsns_7","hsns_8","hsns_9","hsns_10","subj_idx","friend_name","ParticipantID","value","success","user_agent","responses","item_order","radio_event_ids","radio_event_times","key_event_times","mouse_event_times","straightlining","zigzagging","honeypot","timeout","failed_images","failed_audio","failed_video","view_history","response_type","key_press","avg_frame_time","center_x","center_y","correct_response","correct","identity","Image","word","condition","task_id","screen_id","time_stamp","version_attrib2","version_target2","IAT","RT","varname","summary","version_attrib","version_target","question_order","correct_answer","trap1_item"
"18303","
   <p><div style = ""color: white;font-size:25px;"">您好，欢迎参加本次实验。</div> </p>
   <p><div style = ""color: white;font-size:25px;"">为充分保障您的权利，请确保您已经知晓并同意《参与实验同意书》以及《数据公开知情同意书》。</div></p>
   <p><div style = ""color: white;font-size:25px;"">如果您未见过上述内容，请咨询实验员。</div></p>
   <p><div style = ""color: white;font-size:25px;"">如果您选择继续实验，则表示您已经清楚两份知情同意书的内容并同意。</div></p>
   <p><div style = ""color: pink;font-size:30px;"">请确保您记得day0的实验编号，您将在本次实验输入该编号，若您忘记，请咨询实验员后作答。</div></p>
   <p><div style = ""color: lightblue;font-size:25px;"">请您尽可能认真地作答，我们将依据您在各问卷和按键任务中的作答质量发放报酬。</div></p>
   <p> <div style = ""color: green;font-size:25px;""><按空格键至下页></div> </p>
   "," ","html-keyboard-response","0","18305","0.0-0.0","4","4","4","4","4","4","4","4","4","4","5","5","5","5","5","5","5","5","5","5","1","1","1","1","1","1","1","1","1","1","0","1","1","0","0","1","0","0","1","1","0","1","0","1","5","1","1","2","1","","2","2","1","4","1","738059457485082626","付","523","","","","","","","","","","","","","","","","","","","","","","","","","","","","","","","","","","","","","","","","","",""
"","","","call-function","1","18305","0.0-1.0-0.0","4","4","4","4","4","4","4","4","4","4","5","5","5","5","5","5","5","5","5","5","1","1","1","1","1","1","1","1","1","1","0","1","1","0","0","1","0","0","1","1","0","1","0","1","5","1","1","2","1","","2","2","1","4","1","738059457485082626","付","523","","","","","","","","","","","","","","","","","","","","","","","","","","","","","","","","","","","","","","","","","",""
"11590","","{""friend_name"":""付"",""ParticipantID"":""523""}","survey-html-form","2","29896","0.0-1.0-1.0","4","4","4","4","4","4","4","4","4","4","5","5","5","5","5","5","5","5","5","5","1","1","1","1","1","1","1","1","1","1","0","1","1","0","0","1","0","0","1","1","0","1","0","1","5","1","1","2","1","","2","2","1","4","1","738059457485082626","付","523","","","","","","","","","","","","","","","","","","","","","","","","","","","","","","","","","","","","","","","","","",""
"","","","fullscreen","3","31917","0.0-2.0","4","4","4","4","4","4","4","4","4","4","5","5","5","5","5","5","5","5","5","5","1","1","1","1","1","1","1","1","1","1","0","1","1","0","0","1","0","0","1","1","0","1","0","1","5","1","1","2","1","","2","2","1","4","1","738059457485082626","付","523","","true","{}","","","","","","","","","","","","","","","","","","","","","","","","","","","","","","","","","","","","","","",""
"23873.800000190735","","{""Q01"":""4"",""Q02"":""4"",""Q03"":""4"",""Q04"":""4"",""Q05"":""4"",""Q06"":""4"",""Q07"":""4"",""Q08"":""4"",""Q09"":""4"",""Q10"":""4""}","survey-template","4","55793","0.0-3.0","4","4","4","4","4","4","4","4","4","4","5","5","5","5","5","5","5","5","5","5","1","1","1","1","1","1","1","1","1","1","0","1","1","0","0","1","0","0","1","1","0","1","0","1","5","1","1","2","1","","2","2","1","4","1","738059457485082626","付","523","","","","{""Q01"":""4"",""Q02"":""4"",""Q03"":""4"",""Q04"":""4"",""Q05"":""4"",""Q06"":""4"",""Q07"":""4"",""Q08"":""4"",""Q09"":""4"",""Q10"":""4""}","[0,1,2,3,4,5,6,7,8,9]","[""Q01"",""Q02"",""Q03"",""Q04"",""Q05"",""Q07"",""Q06"",""Q08"",""Q09"",""Q10"",""Q10""]","[1872.8000001907349,5576.700000047684,8224.600000143051,9200.800000190735,10368.700000047684,13088.700000047684,13768.600000143051,15297.5,15784.900000095367,16176.600000143051,16424.800000190735]","[]","[1872.8000001907349,5248.800000190735,5576.700000047684,6624.800000190735,6896.700000047684,7304.600000143051,7632.5,8224.600000143051,9200.800000190735,10368.700000047684,11496.800000190735,11936.700000047684,12832.400000095367,13088.700000047684,13768.600000143051,15297.5,15784.900000095367,16176.600000143051,16424.800000190735,23872.60000014305]","0.5","0.5555555555555556","0","","","","","","","","","","","","","","","","","","","","","","","","","","","","","",""
"19179.599999904633","","{""Q01"":""5"",""Q02"":""5"",""Q03"":""5"",""Q04"":""5"",""Q05"":""5"",""Q06"":""5"",""Q07"":""5"",""Q08"":""5"",""Q09"":""5"",""Q10"":""5""}","survey-template","5","74977","0.0-4.0","4","4","4","4","4","4","4","4","4","4","5","5","5","5","5","5","5","5","5","5","1","1","1","1","1","1","1","1","1","1","0","1","1","0","0","1","0","0","1","1","0","1","0","1","5","1","1","2","1","","2","2","1","4","1","738059457485082626","付","523","","","","{""Q01"":""5"",""Q02"":""5"",""Q03"":""5"",""Q04"":""5"",""Q05"":""5"",""Q06"":""5"",""Q07"":""5"",""Q08"":""5"",""Q09"":""5"",""Q10"":""5""}","[0,1,2,3,4,5,6,7,8,9]","[""Q01"",""Q02"",""Q03"",""Q04"",""Q05"",""Q06"",""Q07"",""Q08"",""Q09"",""Q10""]","[1610.2999999523163,3130.2999999523163,4922.299999952316,5754.400000095367,6970.299999952316,7922.299999952316,8810.299999952316,10522.299999952316,11330.299999952316,12578.299999952316]","[]","[1610.2999999523163,2490.4000000953674,3130.2999999523163,3722.4000000953674,4922.299999952316,5754.400000095367,6970.299999952316,7922.299999952316,8810.299999952316,9402.5,9786.400000095367,10522.299999952316,11330.299999952316,12578.299999952316,19178.400000095367]","0.6","0.7777777777777778","0","","","","","","","","","","","","","","","","","","","","","","","","","","","","","",""
"","","","preload","6","75056","0.0-5.0","4","4","4","4","4","4","4","4","4","4","5","5","5","5","5","5","5","5","5","5","1","1","1","1","1","1","1","1","1","1","0","1","1","0","0","1","0","0","1","1","0","1","0","1","5","1","1","2","1","","2","2","1","4","1","738059457485082626","付","523","","true","","","","","","","","","","","false","[]","[]","[]","","","","","","","","","","","","","","","","","","","","","","","","","",""
"59559","","","instructions","7","134616","0.0-6.0","4","4","4","4","4","4","4","4","4","4","5","5","5","5","5","5","5","5","5","5","1","1","1","1","1","1","1","1","1","1","0","1","1","0","0","1","0","0","1","1","0","1","0","1","5","1","1","2","1","","2","2","1","4","1","738059457485082626","付","523","","","","","","","","","","","","","","","","","[{""page_index"":0,""viewing_time"":59559}]","","","","","","","","","","","","","","","","","","","","","","","","",""
"39751","","","instructions","8","174368","0.0-7.0-1.0-0.0","4","4","4","4","4","4","4","4","4","4","5","5","5","5","5","5","5","5","5","5","1","1","1","1","1","1","1","1","1","1","0","1","1","0","0","1","0","0","1","1","0","1","0","1","5","1","1","2","1","","2","2","1","4","1","738059457485082626","付","523","","","","","","","","","","","","","","","","","[{""page_index"":0,""viewing_time"":38103},{""page_index"":1,""viewing_time"":936},{""page_index"":2,""viewing_time"":712}]","","","","","","","","","","","","","","","","","","","","","","","","",""
"597","","j","psychophysics","9","175968","0.0-7.0-1.0-1.0-0.0-0.0","4","4","4","4","4","4","4","4","4","4","5","5","5","5","5","5","5","5","5","5","1","1","1","1","1","1","1","1","1","1","0","1","1","0","0","1","0","0","1","1","0","1","0","1","5","1","1","2","1","","2","2","1","4","1","738059457485082626","付","523","","","","match","","","","","","","","","","","","","","key","j","16.66315789473684","768","428","j","true","match","img/diamond.png","菱形","菱形","ALT1_2","prac_ALT1_2","","","","","","","","","","","",""
"null","<span style='color:GreenYellow; font-size: 70px;'>正确! </span>","null","html-keyboard-response","10","176469","0.0-7.0-1.0-1.0-0.0-1.0","4","4","4","4","4","4","4","4","4","4","5","5","5","5","5","5","5","5","5","5","1","1","1","1","1","1","1","1","1","1","0","1","1","0","0","1","0","0","1","1","0","1","0","1","5","1","1","2","1","","2","2","1","4","1","738059457485082626","付","523","","","","","","","","","","","","","","","","","","","","","","","","","","","","","","feedback_test","","","","","","","","","","","",""
"776","","j","psychophysics","11","178248","0.0-7.0-1.0-1.0-0.0-0.1","4","4","4","4","4","4","4","4","4","4","5","5","5","5","5","5","5","5","5","5","1","1","1","1","1","1","1","1","1","1","0","1","1","0","0","1","0","0","1","1","0","1","0","1","5","1","1","2","1","","2","2","1","4","1","738059457485082626","付","523","","","","match","","","","","","","","","","","","","","key","j","16.664761904761793","768","428","j","true","match","img/hexagon.png","六边","六边","ALT1_2","prac_ALT1_2","","","","","","","","","","","",""
"null","<span style='color:GreenYellow; font-size: 70px;'>正确! </span>","null","html-keyboard-response","12","178749","0.0-7.0-1.0-1.0-0.0-1.1","4","4","4","4","4","4","4","4","4","4","5","5","5","5","5","5","5","5","5","5","1","1","1","1","1","1","1","1","1","1","0","1","1","0","0","1","0","0","1","1","0","1","0","1","5","1","1","2","1","","2","2","1","4","1","738059457485082626","付","523","","","","","","","","","","","","","","","","","","","","","","","","","","","","","","feedback_test","","","","","","","","","","","",""
"619","","f","psychophysics","13","180369","0.0-7.0-1.0-1.0-0.0-0.2","4","4","4","4","4","4","4","4","4","4","5","5","5","5","5","5","5","5","5","5","1","1","1","1","1","1","1","1","1","1","0","1","1","0","0","1","0","0","1","1","0","1","0","1","5","1","1","2","1","","2","2","1","4","1","738059457485082626","付","523","","","","nonmatch","","","","","","","","","","","","","","key","f","16.662886597938023","768","428","f","true","nonmatch","img/hexagon.png","梯形","六边","ALT1_2","prac_ALT1_2","","","","","","","","","","","",""
"null","<span style='color:GreenYellow; font-size: 70px;'>正确! </span>","null","html-keyboard-response","14","180870","0.0-7.0-1.0-1.0-0.0-1.2","4","4","4","4","4","4","4","4","4","4","5","5","5","5","5","5","5","5","5","5","1","1","1","1","1","1","1","1","1","1","0","1","1","0","0","1","0","0","1","1","0","1","0","1","5","1","1","2","1","","2","2","1","4","1","738059457485082626","付","523","","","","","","","","","","","","","","","","","","","","","","","","","","","","","","feedback_test","","","","","","","","","","","",""
"671","","f","psychophysics","15","182544","0.0-7.0-1.0-1.0-0.0-0.3","4","4","4","4","4","4","4","4","4","4","5","5","5","5","5","5","5","5","5","5","1","1","1","1","1","1","1","1","1","1","0","1","1","0","0","1","0","0","1","1","0","1","0","1","5","1","1","2","1","","2","2","1","4","1","738059457485082626","付","523","","","","nonmatch","","","","","","","","","","","","","","key","f","16.66565656565651","768","428","f","true","nonmatch","img/trapezoid.png","六边","梯形","ALT1_2","prac_ALT1_2","","","","","","","","","","","",""
"null","<span style='color:GreenYellow; font-size: 70px;'>正确! </span>","null","html-keyboard-response","16","183045","0.0-7.0-1.0-1.0-0.0-1.3","4","4","4","4","4","4","4","4","4","4","5","5","5","5","5","5","5","5","5","5","1","1","1","1","1","1","1","1","1","1","0","1","1","0","0","1","0","0","1","1","0","1","0","1","5","1","1","2","1","","2","2","1","4","1","738059457485082626","付","523","","","","","","","","","","","","","","","","","","","","","","","","","","","","","","feedback_test","","","","","","","","","","","",""
"592","","j","psychophysics","17","184640","0.0-7.0-1.0-1.0-0.0-0.4","4","4","4","4","4","4","4","4","4","4","5","5","5","5","5","5","5","5","5","5","1","1","1","1","1","1","1","1","1","1","0","1","1","0","0","1","0","0","1","1","0","1","0","1","5","1","1","2","1","","2","2","1","4","1","738059457485082626","付","523","","","","match","","","","","","","","","","","","","","key","j","16.66526315789486","768","428","j","true","match","img/circle.png","圆形","圆形","ALT1_2","prac_ALT1_2","","","","","","","","","","","",""
"null","<span style='color:GreenYellow; font-size: 70px;'>正确! </span>","null","html-keyboard-response","18","185141","0.0-7.0-1.0-1.0-0.0-1.4","4","4","4","4","4","4","4","4","4","4","5","5","5","5","5","5","5","5","5","5","1","1","1","1","1","1","1","1","1","1","0","1","1","0","0","1","0","0","1","1","0","1","0","1","5","1","1","2","1","","2","2","1","4","1","738059457485082626","付","523","","","","","","","","","","","","","","","","","","","","","","","","","","","","","","feedback_test","","","","","","","","","","","",""
"609","","j","psychophysics","19","186752","0.0-7.0-1.0-1.0-0.0-0.5","4","4","4","4","4","4","4","4","4","4","5","5","5","5","5","5","5","5","5","5","1","1","1","1","1","1","1","1","1","1","0","1","1","0","0","1","0","0","1","1","0","1","0","1","5","1","1","2","1","","2","2","1","4","1","738059457485082626","付","523","","","","match","","","","","","","","","","","","","","key","j","16.664583333333212","768","428","j","true","match","img/circle.png","圆形","圆形","ALT1_2","prac_ALT1_2","","","","","","","","","","","",""
"null","<span style='color:GreenYellow; font-size: 70px;'>正确! </span>","null","html-keyboard-response","20","187252","0.0-7.0-1.0-1.0-0.0-1.5","4","4","4","4","4","4","4","4","4","4","5","5","5","5","5","5","5","5","5","5","1","1","1","1","1","1","1","1","1","1","0","1","1","0","0","1","0","0","1","1","0","1","0","1","5","1","1","2","1","","2","2","1","4","1","738059457485082626","付","523","","","","","","","","","","","","","","","","","","","","","","","","","","","","","","feedback_test","","","","","","","","","","","",""
"625","","f","psychophysics","21","188880","0.0-7.0-1.0-1.0-0.0-0.6","4","4","4","4","4","4","4","4","4","4","5","5","5","5","5","5","5","5","5","5","1","1","1","1","1","1","1","1","1","1","0","1","1","0","0","1","0","0","1","1","0","1","0","1","5","1","1","2","1","","2","2","1","4","1","738059457485082626","付","523","","","","nonmatch","","","","","","","","","","","","","","key","f","16.664583333333514","768","428","f","true","nonmatch","img/circle.png","梯形","圆形","ALT1_2","prac_ALT1_2","","","","","","","","","","","",""
"null","<span style='color:GreenYellow; font-size: 70px;'>正确! </span>","null","html-keyboard-response","22","189381","0.0-7.0-1.0-1.0-0.0-1.6","4","4","4","4","4","4","4","4","4","4","5","5","5","5","5","5","5","5","5","5","1","1","1","1","1","1","1","1","1","1","0","1","1","0","0","1","0","0","1","1","0","1","0","1","5","1","1","2","1","","2","2","1","4","1","738059457485082626","付","523","","","","","","","","","","","","","","","","","","","","","","","","","","","","","","feedback_test","","","","","","","","","","","",""
"721","","f","psychophysics","23","191104","0.0-7.0-1.0-1.0-0.0-0.7","4","4","4","4","4","4","4","4","4","4","5","5","5","5","5","5","5","5","5","5","1","1","1","1","1","1","1","1","1","1","0","1","1","0","0","1","0","0","1","1","0","1","0","1","5","1","1","2","1","","2","2","1","4","1","738059457485082626","付","523","","","","nonmatch","","","","","","","","","","","","","","key","f","16.660784313725717","768","428","f","true","nonmatch","img/circle.png","六边","圆形","ALT1_2","prac_ALT1_2","","","","","","","","","","","",""
"null","<span style='color:GreenYellow; font-size: 70px;'>正确! </span>","null","html-keyboard-response","24","191606","0.0-7.0-1.0-1.0-0.0-1.7","4","4","4","4","4","4","4","4","4","4","5","5","5","5","5","5","5","5","5","5","1","1","1","1","1","1","1","1","1","1","0","1","1","0","0","1","0","0","1","1","0","1","0","1","5","1","1","2","1","","2","2","1","4","1","738059457485082626","付","523","","","","","","","","","","","","","","","","","","","","","","","","","","","","","","feedback_test","","","","","","","","","","","",""
"633","","j","psychophysics","25","193240","0.0-7.0-1.0-1.0-0.0-0.8","4","4","4","4","4","4","4","4","4","4","5","5","5","5","5","5","5","5","5","5","1","1","1","1","1","1","1","1","1","1","0","1","1","0","0","1","0","0","1","1","0","1","0","1","5","1","1","2","1","","2","2","1","4","1","738059457485082626","付","523","","","","match","","","","","","","","","","","","","","key","j","16.66597938144306","768","428","j","true","match","img/hexagon.png","六边","六边","ALT1_2","prac_ALT1_2","","","","","","","","","","","",""
"null","<span style='color:GreenYellow; font-size: 70px;'>正确! </span>","null","html-keyboard-response","26","193742","0.0-7.0-1.0-1.0-0.0-1.8","4","4","4","4","4","4","4","4","4","4","5","5","5","5","5","5","5","5","5","5","1","1","1","1","1","1","1","1","1","1","0","1","1","0","0","1","0","0","1","1","0","1","0","1","5","1","1","2","1","","2","2","1","4","1","738059457485082626","付","523","","","","","","","","","","","","","","","","","","","","","","","","","","","","","","feedback_test","","","","","","","","","","","",""
"680","","f","psychophysics","27","195424","0.0-7.0-1.0-1.0-0.0-0.9","4","4","4","4","4","4","4","4","4","4","5","5","5","5","5","5","5","5","5","5","1","1","1","1","1","1","1","1","1","1","0","1","1","0","0","1","0","0","1","1","0","1","0","1","5","1","1","2","1","","2","2","1","4","1","738059457485082626","付","523","","","","nonmatch","","","","","","","","","","","","","","key","f","16.666999999999824","768","428","f","true","nonmatch","img/hexagon.png","菱形","六边","ALT1_2","prac_ALT1_2","","","","","","","","","","","",""
"null","<span style='color:GreenYellow; font-size: 70px;'>正确! </span>","null","html-keyboard-response","28","195926","0.0-7.0-1.0-1.0-0.0-1.9","4","4","4","4","4","4","4","4","4","4","5","5","5","5","5","5","5","5","5","5","1","1","1","1","1","1","1","1","1","1","0","1","1","0","0","1","0","0","1","1","0","1","0","1","5","1","1","2","1","","2","2","1","4","1","738059457485082626","付","523","","","","","","","","","","","","","","","","","","","","","","","","","","","","","","feedback_test","","","","","","","","","","","",""
"640","","j","psychophysics","29","197568","0.0-7.0-1.0-1.0-0.0-0.10","4","4","4","4","4","4","4","4","4","4","5","5","5","5","5","5","5","5","5","5","1","1","1","1","1","1","1","1","1","1","0","1","1","0","0","1","0","0","1","1","0","1","0","1","5","1","1","2","1","","2","2","1","4","1","738059457485082626","付","523","","","","match","","","","","","","","","","","","","","key","j","16.6653061224491","768","428","j","true","match","img/diamond.png","菱形","菱形","ALT1_2","prac_ALT1_2","","","","","","","","","","","",""
"null","<span style='color:GreenYellow; font-size: 70px;'>正确! </span>","null","html-keyboard-response","30","198069","0.0-7.0-1.0-1.0-0.0-1.10","4","4","4","4","4","4","4","4","4","4","5","5","5","5","5","5","5","5","5","5","1","1","1","1","1","1","1","1","1","1","0","1","1","0","0","1","0","0","1","1","0","1","0","1","5","1","1","2","1","","2","2","1","4","1","738059457485082626","付","523","","","","","","","","","","","","","","","","","","","","","","","","","","","","","","feedback_test","","","","","","","","","","","",""
"489","","f","psychophysics","31","199559","0.0-7.0-1.0-1.0-0.0-0.11","4","4","4","4","4","4","4","4","4","4","5","5","5","5","5","5","5","5","5","5","1","1","1","1","1","1","1","1","1","1","0","1","1","0","0","1","0","0","1","1","0","1","0","1","5","1","1","2","1","","2","2","1","4","1","738059457485082626","付","523","","","","nonmatch","","","","","","","","","","","","","","key","f","16.665909090909157","768","428","f","true","nonmatch","img/diamond.png","圆形","菱形","ALT1_2","prac_ALT1_2","","","","","","","","","","","",""
"null","<span style='color:GreenYellow; font-size: 70px;'>正确! </span>","null","html-keyboard-response","32","200061","0.0-7.0-1.0-1.0-0.0-1.11","4","4","4","4","4","4","4","4","4","4","5","5","5","5","5","5","5","5","5","5","1","1","1","1","1","1","1","1","1","1","0","1","1","0","0","1","0","0","1","1","0","1","0","1","5","1","1","2","1","","2","2","1","4","1","738059457485082626","付","523","","","","","","","","","","","","","","","","","","","","","","","","","","","","","","feedback_test","","","","","","","","","","","",""
"482","","f","psychophysics","33","201544","0.0-7.0-1.0-1.0-0.0-0.12","4","4","4","4","4","4","4","4","4","4","5","5","5","5","5","5","5","5","5","5","1","1","1","1","1","1","1","1","1","1","0","1","1","0","0","1","0","0","1","1","0","1","0","1","5","1","1","2","1","","2","2","1","4","1","738059457485082626","付","523","","","","nonmatch","","","","","","","","","","","","","","key","f","16.665909090908826","768","428","j","false","match","img/trapezoid.png","梯形","梯形","ALT1_2","prac_ALT1_2","","","","","","","","","","","",""
"null","<span style='color:red; font-size: 70px;'>错误! </span>","null","html-keyboard-response","34","202045","0.0-7.0-1.0-1.0-0.0-1.12","4","4","4","4","4","4","4","4","4","4","5","5","5","5","5","5","5","5","5","5","1","1","1","1","1","1","1","1","1","1","0","1","1","0","0","1","0","0","1","1","0","1","0","1","5","1","1","2","1","","2","2","1","4","1","738059457485082626","付","523","","","","","","","","","","","","","","","","","","","","","","","","","","","","","","feedback_test","","","","","","","","","","","",""
"577","","j","psychophysics","35","203624","0.0-7.0-1.0-1.0-0.0-0.13","4","4","4","4","4","4","4","4","4","4","5","5","5","5","5","5","5","5","5","5","1","1","1","1","1","1","1","1","1","1","0","1","1","0","0","1","0","0","1","1","0","1","0","1","5","1","1","2","1","","2","2","1","4","1","738059457485082626","付","523","","","","match","","","","","","","","","","","","","","key","j","16.664893617021278","768","428","j","true","match","img/circle.png","圆形","圆形","ALT1_2","prac_ALT1_2","","","","","","","","","","","",""
"null","<span style='color:GreenYellow; font-size: 70px;'>正确! </span>","null","html-keyboard-response","36","204125","0.0-7.0-1.0-1.0-0.0-1.13","4","4","4","4","4","4","4","4","4","4","5","5","5","5","5","5","5","5","5","5","1","1","1","1","1","1","1","1","1","1","0","1","1","0","0","1","0","0","1","1","0","1","0","1","5","1","1","2","1","","2","2","1","4","1","738059457485082626","付","523","","","","","","","","","","","","","","","","","","","","","","","","","","","","","","feedback_test","","","","","","","","","","","",""
"626","","j","psychophysics","37","205752","0.0-7.0-1.0-1.0-0.0-0.14","4","4","4","4","4","4","4","4","4","4","5","5","5","5","5","5","5","5","5","5","1","1","1","1","1","1","1","1","1","1","0","1","1","0","0","1","0","0","1","1","0","1","0","1","5","1","1","2","1","","2","2","1","4","1","738059457485082626","付","523","","","","match","","","","","","","","","","","","","","key","j","16.66597938144336","768","428","f","false","nonmatch","img/circle.png","菱形","圆形","ALT1_2","prac_ALT1_2","","","","","","","","","","","",""
"null","<span style='color:red; font-size: 70px;'>错误! </span>","null","html-keyboard-response","38","206252","0.0-7.0-1.0-1.0-0.0-1.14","4","4","4","4","4","4","4","4","4","4","5","5","5","5","5","5","5","5","5","5","1","1","1","1","1","1","1","1","1","1","0","1","1","0","0","1","0","0","1","1","0","1","0","1","5","1","1","2","1","","2","2","1","4","1","738059457485082626","付","523","","","","","","","","","","","","","","","","","","","","","","","","","","","","","","feedback_test","","","","","","","","","","","",""
"698","","j","psychophysics","39","207952","0.0-7.0-1.0-1.0-0.0-0.15","4","4","4","4","4","4","4","4","4","4","5","5","5","5","5","5","5","5","5","5","1","1","1","1","1","1","1","1","1","1","0","1","1","0","0","1","0","0","1","1","0","1","0","1","5","1","1","2","1","","2","2","1","4","1","738059457485082626","付","523","","","","match","","","","","","","","","","","","","","key","j","16.666336633663253","768","428","j","true","match","img/trapezoid.png","梯形","梯形","ALT1_2","prac_ALT1_2","","","","","","","","","","","",""
"null","<span style='color:GreenYellow; font-size: 70px;'>正确! </span>","null","html-keyboard-response","40","208452","0.0-7.0-1.0-1.0-0.0-1.15","4","4","4","4","4","4","4","4","4","4","5","5","5","5","5","5","5","5","5","5","1","1","1","1","1","1","1","1","1","1","0","1","1","0","0","1","0","0","1","1","0","1","0","1","5","1","1","2","1","","2","2","1","4","1","738059457485082626","付","523","","","","","","","","","","","","","","","","","","","","","","","","","","","","","","feedback_test","","","","","","","","","","","",""
"689","","f","psychophysics","41","210144","0.0-7.0-1.0-1.0-0.0-0.16","4","4","4","4","4","4","4","4","4","4","5","5","5","5","5","5","5","5","5","5","1","1","1","1","1","1","1","1","1","1","0","1","1","0","0","1","0","0","1","1","0","1","0","1","5","1","1","2","1","","2","2","1","4","1","738059457485082626","付","523","","","","nonmatch","","","","","","","","","","","","","","key","f","16.666000000000057","768","428","f","true","nonmatch","img/hexagon.png","圆形","六边","ALT1_2","prac_ALT1_2","","","","","","","","","","","",""
"null","<span style='color:GreenYellow; font-size: 70px;'>正确! </span>","null","html-keyboard-response","42","210644","0.0-7.0-1.0-1.0-0.0-1.16","4","4","4","4","4","4","4","4","4","4","5","5","5","5","5","5","5","5","5","5","1","1","1","1","1","1","1","1","1","1","0","1","1","0","0","1","0","0","1","1","0","1","0","1","5","1","1","2","1","","2","2","1","4","1","738059457485082626","付","523","","","","","","","","","","","","","","","","","","","","","","","","","","","","","","feedback_test","","","","","","","","","","","",""
"770","","f","psychophysics","43","212416","0.0-7.0-1.0-1.0-0.0-0.17","4","4","4","4","4","4","4","4","4","4","5","5","5","5","5","5","5","5","5","5","1","1","1","1","1","1","1","1","1","1","0","1","1","0","0","1","0","0","1","1","0","1","0","1","5","1","1","2","1","","2","2","1","4","1","738059457485082626","付","523","","","","nonmatch","","","","","","","","","","","","","","key","f","16.6632075471697","768","428","f","true","nonmatch","img/diamond.png","六边","菱形","ALT1_2","prac_ALT1_2","","","","","","","","","","","",""
"null","<span style='color:GreenYellow; font-size: 70px;'>正确! </span>","null","html-keyboard-response","44","212919","0.0-7.0-1.0-1.0-0.0-1.17","4","4","4","4","4","4","4","4","4","4","5","5","5","5","5","5","5","5","5","5","1","1","1","1","1","1","1","1","1","1","0","1","1","0","0","1","0","0","1","1","0","1","0","1","5","1","1","2","1","","2","2","1","4","1","738059457485082626","付","523","","","","","","","","","","","","","","","","","","","","","","","","","","","","","","feedback_test","","","","","","","","","","","",""
"736","","f","psychophysics","45","214656","0.0-7.0-1.0-1.0-0.0-0.18","4","4","4","4","4","4","4","4","4","4","5","5","5","5","5","5","5","5","5","5","1","1","1","1","1","1","1","1","1","1","0","1","1","0","0","1","0","0","1","1","0","1","0","1","5","1","1","2","1","","2","2","1","4","1","738059457485082626","付","523","","","","nonmatch","","","","","","","","","","","","","","key","f","16.664077669902856","768","428","f","true","nonmatch","img/trapezoid.png","菱形","梯形","ALT1_2","prac_ALT1_2","","","","","","","","","","","",""
"null","<span style='color:GreenYellow; font-size: 70px;'>正确! </span>","null","html-keyboard-response","46","215158","0.0-7.0-1.0-1.0-0.0-1.18","4","4","4","4","4","4","4","4","4","4","5","5","5","5","5","5","5","5","5","5","1","1","1","1","1","1","1","1","1","1","0","1","1","0","0","1","0","0","1","1","0","1","0","1","5","1","1","2","1","","2","2","1","4","1","738059457485082626","付","523","","","","","","","","","","","","","","","","","","","","","","","","","","","","","","feedback_test","","","","","","","","","","","",""
"570","","j","psychophysics","47","216728","0.0-7.0-1.0-1.0-0.0-0.19","4","4","4","4","4","4","4","4","4","4","5","5","5","5","5","5","5","5","5","5","1","1","1","1","1","1","1","1","1","1","0","1","1","0","0","1","0","0","1","1","0","1","0","1","5","1","1","2","1","","2","2","1","4","1","738059457485082626","付","523","","","","match","","","","","","","","","","","","","","key","j","16.6655913978494","768","428","j","true","match","img/hexagon.png","六边","六边","ALT1_2","prac_ALT1_2","","","","","","","","","","","",""
"null","<span style='color:GreenYellow; font-size: 70px;'>正确! </span>","null","html-keyboard-response","48","217230","0.0-7.0-1.0-1.0-0.0-1.19","4","4","4","4","4","4","4","4","4","4","5","5","5","5","5","5","5","5","5","5","1","1","1","1","1","1","1","1","1","1","0","1","1","0","0","1","0","0","1","1","0","1","0","1","5","1","1","2","1","","2","2","1","4","1","738059457485082626","付","523","","","","","","","","","","","","","","","","","","","","","","","","","","","","","","feedback_test","","","","","","","","","","","",""
"665","","f","psychophysics","49","218897","0.0-7.0-1.0-1.0-0.0-0.20","4","4","4","4","4","4","4","4","4","4","5","5","5","5","5","5","5","5","5","5","1","1","1","1","1","1","1","1","1","1","0","1","1","0","0","1","0","0","1","1","0","1","0","1","5","1","1","2","1","","2","2","1","4","1","738059457485082626","付","523","","","","nonmatch","","","","","","","","","","","","","","key","f","16.664646464646346","768","428","f","true","nonmatch","img/trapezoid.png","圆形","梯形","ALT1_2","prac_ALT1_2","","","","","","","","","","","",""
"null","<span style='color:GreenYellow; font-size: 70px;'>正确! </span>","null","html-keyboard-response","50","219397","0.0-7.0-1.0-1.0-0.0-1.20","4","4","4","4","4","4","4","4","4","4","5","5","5","5","5","5","5","5","5","5","1","1","1","1","1","1","1","1","1","1","0","1","1","0","0","1","0","0","1","1","0","1","0","1","5","1","1","2","1","","2","2","1","4","1","738059457485082626","付","523","","","","","","","","","","","","","","","","","","","","","","","","","","","","","","feedback_test","","","","","","","","","","","",""
"706","","f","psychophysics","51","221104","0.0-7.0-1.0-1.0-0.0-0.21","4","4","4","4","4","4","4","4","4","4","5","5","5","5","5","5","5","5","5","5","1","1","1","1","1","1","1","1","1","1","0","1","1","0","0","1","0","0","1","1","0","1","0","1","5","1","1","2","1","","2","2","1","4","1","738059457485082626","付","523","","","","nonmatch","","","","","","","","","","","","","","key","f","16.664356435643622","768","428","j","false","match","img/diamond.png","菱形","菱形","ALT1_2","prac_ALT1_2","","","","","","","","","","","",""
"null","<span style='color:red; font-size: 70px;'>错误! </span>","null","html-keyboard-response","52","221605","0.0-7.0-1.0-1.0-0.0-1.21","4","4","4","4","4","4","4","4","4","4","5","5","5","5","5","5","5","5","5","5","1","1","1","1","1","1","1","1","1","1","0","1","1","0","0","1","0","0","1","1","0","1","0","1","5","1","1","2","1","","2","2","1","4","1","738059457485082626","付","523","","","","","","","","","","","","","","","","","","","","","","","","","","","","","","feedback_test","","","","","","","","","","","",""
"649","","j","psychophysics","53","223256","0.0-7.0-1.0-1.0-0.0-0.22","4","4","4","4","4","4","4","4","4","4","5","5","5","5","5","5","5","5","5","5","1","1","1","1","1","1","1","1","1","1","0","1","1","0","0","1","0","0","1","1","0","1","0","1","5","1","1","2","1","","2","2","1","4","1","738059457485082626","付","523","","","","match","","","","","","","","","","","","","","key","j","16.666326530612125","768","428","f","false","nonmatch","img/diamond.png","梯形","菱形","ALT1_2","prac_ALT1_2","","","","","","","","","","","",""
"null","<span style='color:red; font-size: 70px;'>错误! </span>","null","html-keyboard-response","54","223757","0.0-7.0-1.0-1.0-0.0-1.22","4","4","4","4","4","4","4","4","4","4","5","5","5","5","5","5","5","5","5","5","1","1","1","1","1","1","1","1","1","1","0","1","1","0","0","1","0","0","1","1","0","1","0","1","5","1","1","2","1","","2","2","1","4","1","738059457485082626","付","523","","","","","","","","","","","","","","","","","","","","","","","","","","","","","","feedback_test","","","","","","","","","","","",""
"675","","j","psychophysics","55","225433","0.0-7.0-1.0-1.0-0.0-0.23","4","4","4","4","4","4","4","4","4","4","5","5","5","5","5","5","5","5","5","5","1","1","1","1","1","1","1","1","1","1","0","1","1","0","0","1","0","0","1","1","0","1","0","1","5","1","1","2","1","","2","2","1","4","1","738059457485082626","付","523","","","","match","","","","","","","","","","","","","","key","j","16.666000000000057","768","428","j","true","match","img/trapezoid.png","梯形","梯形","ALT1_2","prac_ALT1_2","","","","","","","","","","","",""
"null","<span style='color:GreenYellow; font-size: 70px;'>正确! </span>","null","html-keyboard-response","56","225935","0.0-7.0-1.0-1.0-0.0-1.23","4","4","4","4","4","4","4","4","4","4","5","5","5","5","5","5","5","5","5","5","1","1","1","1","1","1","1","1","1","1","0","1","1","0","0","1","0","0","1","1","0","1","0","1","5","1","1","2","1","","2","2","1","4","1","738059457485082626","付","523","","","","","","","","","","","","","","","","","","","","","","","","","","","","","","feedback_test","","","","","","","","","","","",""
"792","","j","psychophysics","57","227729","0.0-7.0-1.0-1.0-0.0-0.24","4","4","4","4","4","4","4","4","4","4","5","5","5","5","5","5","5","5","5","5","1","1","1","1","1","1","1","1","1","1","0","1","1","0","0","1","0","0","1","1","0","1","0","1","5","1","1","2","1","","2","2","1","4","1","738059457485082626","付","523","","","","match","","","","","","","","","","","","","","key","j","16.6654205607475","768","428","j","true","match","img/trapezoid.png","梯形","梯形","ALT1_2","prac_ALT1_2","","","","","","","","","","","",""
"null","<span style='color:GreenYellow; font-size: 70px;'>正确! </span>","null","html-keyboard-response","58","228230","0.0-7.0-1.0-1.0-0.0-1.24","4","4","4","4","4","4","4","4","4","4","5","5","5","5","5","5","5","5","5","5","1","1","1","1","1","1","1","1","1","1","0","1","1","0","0","1","0","0","1","1","0","1","0","1","5","1","1","2","1","","2","2","1","4","1","738059457485082626","付","523","","","","","","","","","","","","","","","","","","","","","","","","","","","","","","feedback_test","","","","","","","","","","","",""
"793","","f","psychophysics","59","230024","0.0-7.0-1.0-1.0-0.0-0.25","4","4","4","4","4","4","4","4","4","4","5","5","5","5","5","5","5","5","5","5","1","1","1","1","1","1","1","1","1","1","0","1","1","0","0","1","0","0","1","1","0","1","0","1","5","1","1","2","1","","2","2","1","4","1","738059457485082626","付","523","","","","nonmatch","","","","","","","","","","","","","","key","f","16.664150943396173","768","428","f","true","nonmatch","img/hexagon.png","梯形","六边","ALT1_2","prac_ALT1_2","","","","","","","","","","","",""
"null","<span style='color:GreenYellow; font-size: 70px;'>正确! </span>","null","html-keyboard-response","60","230527","0.0-7.0-1.0-1.0-0.0-1.25","4","4","4","4","4","4","4","4","4","4","5","5","5","5","5","5","5","5","5","5","1","1","1","1","1","1","1","1","1","1","0","1","1","0","0","1","0","0","1","1","0","1","0","1","5","1","1","2","1","","2","2","1","4","1","738059457485082626","付","523","","","","","","","","","","","","","","","","","","","","","","","","","","","","","","feedback_test","","","","","","","","","","","",""
"672","","f","psychophysics","61","232200","0.0-7.0-1.0-1.0-0.0-0.26","4","4","4","4","4","4","4","4","4","4","5","5","5","5","5","5","5","5","5","5","1","1","1","1","1","1","1","1","1","1","0","1","1","0","0","1","0","0","1","1","0","1","0","1","5","1","1","2","1","","2","2","1","4","1","738059457485082626","付","523","","","","nonmatch","","","","","","","","","","","","","","key","f","16.66399999999994","768","428","f","true","nonmatch","img/circle.png","菱形","圆形","ALT1_2","prac_ALT1_2","","","","","","","","","","","",""
"null","<span style='color:GreenYellow; font-size: 70px;'>正确! </span>","null","html-keyboard-response","62","232701","0.0-7.0-1.0-1.0-0.0-1.26","4","4","4","4","4","4","4","4","4","4","5","5","5","5","5","5","5","5","5","5","1","1","1","1","1","1","1","1","1","1","0","1","1","0","0","1","0","0","1","1","0","1","0","1","5","1","1","2","1","","2","2","1","4","1","738059457485082626","付","523","","","","","","","","","","","","","","","","","","","","","","","","","","","","","","feedback_test","","","","","","","","","","","",""
"674","","j","psychophysics","63","234377","0.0-7.0-1.0-1.0-0.0-0.27","4","4","4","4","4","4","4","4","4","4","5","5","5","5","5","5","5","5","5","5","1","1","1","1","1","1","1","1","1","1","0","1","1","0","0","1","0","0","1","1","0","1","0","1","5","1","1","2","1","","2","2","1","4","1","738059457485082626","付","523","","","","match","","","","","","","","","","","","","","key","j","16.66565656565651","768","428","j","true","match","img/trapezoid.png","梯形","梯形","ALT1_2","prac_ALT1_2","","","","","","","","","","","",""
"null","<span style='color:GreenYellow; font-size: 70px;'>正确! </span>","null","html-keyboard-response","64","234877","0.0-7.0-1.0-1.0-0.0-1.27","4","4","4","4","4","4","4","4","4","4","5","5","5","5","5","5","5","5","5","5","1","1","1","1","1","1","1","1","1","1","0","1","1","0","0","1","0","0","1","1","0","1","0","1","5","1","1","2","1","","2","2","1","4","1","738059457485082626","付","523","","","","","","","","","","","","","","","","","","","","","","","","","","","","","","feedback_test","","","","","","","","","","","",""
"986","","f","psychophysics","65","236864","0.0-7.0-1.0-1.0-0.0-0.28","4","4","4","4","4","4","4","4","4","4","5","5","5","5","5","5","5","5","5","5","1","1","1","1","1","1","1","1","1","1","0","1","1","0","0","1","0","0","1","1","0","1","0","1","5","1","1","2","1","","2","2","1","4","1","738059457485082626","付","523","","","","nonmatch","","","","","","","","","","","","","","key","f","16.663559322033798","768","428","f","true","nonmatch","img/diamond.png","梯形","菱形","ALT1_2","prac_ALT1_2","","","","","","","","","","","",""
"null","<span style='color:GreenYellow; font-size: 70px;'>正确! </span>","null","html-keyboard-response","66","237366","0.0-7.0-1.0-1.0-0.0-1.28","4","4","4","4","4","4","4","4","4","4","5","5","5","5","5","5","5","5","5","5","1","1","1","1","1","1","1","1","1","1","0","1","1","0","0","1","0","0","1","1","0","1","0","1","5","1","1","2","1","","2","2","1","4","1","738059457485082626","付","523","","","","","","","","","","","","","","","","","","","","","","","","","","","","","","feedback_test","","","","","","","","","","","",""
"576","","j","psychophysics","67","238945","0.0-7.0-1.0-1.0-0.0-0.29","4","4","4","4","4","4","4","4","4","4","5","5","5","5","5","5","5","5","5","5","1","1","1","1","1","1","1","1","1","1","0","1","1","0","0","1","0","0","1","1","0","1","0","1","5","1","1","2","1","","2","2","1","4","1","738059457485082626","付","523","","","","match","","","","","","","","","","","","","","key","j","16.66702127659556","768","428","j","true","match","img/trapezoid.png","梯形","梯形","ALT1_2","prac_ALT1_2","","","","","","","","","","","",""
"null","<span style='color:GreenYellow; font-size: 70px;'>正确! </span>","null","html-keyboard-response","68","239454","0.0-7.0-1.0-1.0-0.0-1.29","4","4","4","4","4","4","4","4","4","4","5","5","5","5","5","5","5","5","5","5","1","1","1","1","1","1","1","1","1","1","0","1","1","0","0","1","0","0","1","1","0","1","0","1","5","1","1","2","1","","2","2","1","4","1","738059457485082626","付","523","","","","","","","","","","","","","","","","","","","","","","","","","","","","","","feedback_test","","","","","","","","","","","",""
"554","","f","psychophysics","69","241009","0.0-7.0-1.0-1.0-0.0-0.30","4","4","4","4","4","4","4","4","4","4","5","5","5","5","5","5","5","5","5","5","1","1","1","1","1","1","1","1","1","1","0","1","1","0","0","1","0","0","1","1","0","1","0","1","5","1","1","2","1","","2","2","1","4","1","738059457485082626","付","523","","","","nonmatch","","","","","","","","","","","","","","key","f","16.66630434782596","768","428","f","true","nonmatch","img/circle.png","六边","圆形","ALT1_2","prac_ALT1_2","","","","","","","","","","","",""
"null","<span style='color:GreenYellow; font-size: 70px;'>正确! </span>","null","html-keyboard-response","70","241511","0.0-7.0-1.0-1.0-0.0-1.30","4","4","4","4","4","4","4","4","4","4","5","5","5","5","5","5","5","5","5","5","1","1","1","1","1","1","1","1","1","1","0","1","1","0","0","1","0","0","1","1","0","1","0","1","5","1","1","2","1","","2","2","1","4","1","738059457485082626","付","523","","","","","","","","","","","","","","","","","","","","","","","","","","","","","","feedback_test","","","","","","","","","","","",""
"590","","j","psychophysics","71","243104","0.0-7.0-1.0-1.0-0.0-0.31","4","4","4","4","4","4","4","4","4","4","5","5","5","5","5","5","5","5","5","5","1","1","1","1","1","1","1","1","1","1","0","1","1","0","0","1","0","0","1","1","0","1","0","1","5","1","1","2","1","","2","2","1","4","1","738059457485082626","付","523","","","","match","","","","","","","","","","","","","","key","j","16.66382978723429","768","428","j","true","match","img/circle.png","圆形","圆形","ALT1_2","prac_ALT1_2","","","","","","","","","","","",""
"null","<span style='color:GreenYellow; font-size: 70px;'>正确! </span>","null","html-keyboard-response","72","243605","0.0-7.0-1.0-1.0-0.0-1.31","4","4","4","4","4","4","4","4","4","4","5","5","5","5","5","5","5","5","5","5","1","1","1","1","1","1","1","1","1","1","0","1","1","0","0","1","0","0","1","1","0","1","0","1","5","1","1","2","1","","2","2","1","4","1","738059457485082626","付","523","","","","","","","","","","","","","","","","","","","","","","","","","","","","","","feedback_test","","","","","","","","","","","",""
"906","","j","psychophysics","73","245513","0.0-7.0-1.0-1.0-0.0-0.32","4","4","4","4","4","4","4","4","4","4","5","5","5","5","5","5","5","5","5","5","1","1","1","1","1","1","1","1","1","1","0","1","1","0","0","1","0","0","1","1","0","1","0","1","5","1","1","2","1","","2","2","1","4","1","738059457485082626","付","523","","","","match","","","","","","","","","","","","","","key","j","16.66491228070191","768","428","f","false","nonmatch","img/hexagon.png","菱形","六边","ALT1_2","prac_ALT1_2","","","","","","","","","","","",""
"null","<span style='color:red; font-size: 70px;'>错误! </span>","null","html-keyboard-response","74","246020","0.0-7.0-1.0-1.0-0.0-1.32","4","4","4","4","4","4","4","4","4","4","5","5","5","5","5","5","5","5","5","5","1","1","1","1","1","1","1","1","1","1","0","1","1","0","0","1","0","0","1","1","0","1","0","1","5","1","1","2","1","","2","2","1","4","1","738059457485082626","付","523","","","","","","","","","","","","","","","","","","","","","","","","","","","","","","feedback_test","","","","","","","","","","","",""
"707","","j","psychophysics","75","247728","0.0-7.0-1.0-1.0-0.0-0.33","4","4","4","4","4","4","4","4","4","4","5","5","5","5","5","5","5","5","5","5","1","1","1","1","1","1","1","1","1","1","0","1","1","0","0","1","0","0","1","1","0","1","0","1","5","1","1","2","1","","2","2","1","4","1","738059457485082626","付","523","","","","match","","","","","","","","","","","","","","key","j","16.665686274509746","768","428","j","true","match","img/diamond.png","菱形","菱形","ALT1_2","prac_ALT1_2","","","","","","","","","","","",""
"null","<span style='color:GreenYellow; font-size: 70px;'>正确! </span>","null","html-keyboard-response","76","248229","0.0-7.0-1.0-1.0-0.0-1.33","4","4","4","4","4","4","4","4","4","4","5","5","5","5","5","5","5","5","5","5","1","1","1","1","1","1","1","1","1","1","0","1","1","0","0","1","0","0","1","1","0","1","0","1","5","1","1","2","1","","2","2","1","4","1","738059457485082626","付","523","","","","","","","","","","","","","","","","","","","","","","","","","","","","","","feedback_test","","","","","","","","","","","",""
"666","","f","psychophysics","77","249896","0.0-7.0-1.0-1.0-0.0-0.34","4","4","4","4","4","4","4","4","4","4","5","5","5","5","5","5","5","5","5","5","1","1","1","1","1","1","1","1","1","1","0","1","1","0","0","1","0","0","1","1","0","1","0","1","5","1","1","2","1","","2","2","1","4","1","738059457485082626","付","523","","","","nonmatch","","","","","","","","","","","","","","key","f","16.66565656565651","768","428","f","true","nonmatch","img/hexagon.png","圆形","六边","ALT1_2","prac_ALT1_2","","","","","","","","","","","",""
"null","<span style='color:GreenYellow; font-size: 70px;'>正确! </span>","null","html-keyboard-response","78","250398","0.0-7.0-1.0-1.0-0.0-1.34","4","4","4","4","4","4","4","4","4","4","5","5","5","5","5","5","5","5","5","5","1","1","1","1","1","1","1","1","1","1","0","1","1","0","0","1","0","0","1","1","0","1","0","1","5","1","1","2","1","","2","2","1","4","1","738059457485082626","付","523","","","","","","","","","","","","","","","","","","","","","","","","","","","","","","feedback_test","","","","","","","","","","","",""
"594","","j","psychophysics","79","251993","0.0-7.0-1.0-1.0-0.0-0.35","4","4","4","4","4","4","4","4","4","4","5","5","5","5","5","5","5","5","5","5","1","1","1","1","1","1","1","1","1","1","0","1","1","0","0","1","0","0","1","1","0","1","0","1","5","1","1","2","1","","2","2","1","4","1","738059457485082626","付","523","","","","match","","","","","","","","","","","","","","key","j","16.66526315789486","768","428","j","true","match","img/hexagon.png","六边","六边","ALT1_2","prac_ALT1_2","","","","","","","","","","","",""
"null","<span style='color:GreenYellow; font-size: 70px;'>正确! </span>","null","html-keyboard-response","80","252494","0.0-7.0-1.0-1.0-0.0-1.35","4","4","4","4","4","4","4","4","4","4","5","5","5","5","5","5","5","5","5","5","1","1","1","1","1","1","1","1","1","1","0","1","1","0","0","1","0","0","1","1","0","1","0","1","5","1","1","2","1","","2","2","1","4","1","738059457485082626","付","523","","","","","","","","","","","","","","","","","","","","","","","","","","","","","","feedback_test","","","","","","","","","","","",""
"560","","j","psychophysics","81","254056","0.0-7.0-1.0-1.0-0.0-0.36","4","4","4","4","4","4","4","4","4","4","5","5","5","5","5","5","5","5","5","5","1","1","1","1","1","1","1","1","1","1","0","1","1","0","0","1","0","0","1","1","0","1","0","1","5","1","1","2","1","","2","2","1","4","1","738059457485082626","付","523","","","","match","","","","","","","","","","","","","","key","j","16.66630434782596","768","428","j","true","match","img/circle.png","圆形","圆形","ALT1_2","prac_ALT1_2","","","","","","","","","","","",""
"null","<span style='color:GreenYellow; font-size: 70px;'>正确! </span>","null","html-keyboard-response","82","254557","0.0-7.0-1.0-1.0-0.0-1.36","4","4","4","4","4","4","4","4","4","4","5","5","5","5","5","5","5","5","5","5","1","1","1","1","1","1","1","1","1","1","0","1","1","0","0","1","0","0","1","1","0","1","0","1","5","1","1","2","1","","2","2","1","4","1","738059457485082626","付","523","","","","","","","","","","","","","","","","","","","","","","","","","","","","","","feedback_test","","","","","","","","","","","",""
"641","","f","psychophysics","83","256200","0.0-7.0-1.0-1.0-0.0-0.37","4","4","4","4","4","4","4","4","4","4","5","5","5","5","5","5","5","5","5","5","1","1","1","1","1","1","1","1","1","1","0","1","1","0","0","1","0","0","1","1","0","1","0","1","5","1","1","2","1","","2","2","1","4","1","738059457485082626","付","523","","","","nonmatch","","","","","","","","","","","","","","key","f","16.664285714285775","768","428","f","true","nonmatch","img/trapezoid.png","圆形","梯形","ALT1_2","prac_ALT1_2","","","","","","","","","","","",""
"null","<span style='color:GreenYellow; font-size: 70px;'>正确! </span>","null","html-keyboard-response","84","256702","0.0-7.0-1.0-1.0-0.0-1.37","4","4","4","4","4","4","4","4","4","4","5","5","5","5","5","5","5","5","5","5","1","1","1","1","1","1","1","1","1","1","0","1","1","0","0","1","0","0","1","1","0","1","0","1","5","1","1","2","1","","2","2","1","4","1","738059457485082626","付","523","","","","","","","","","","","","","","","","","","","","","","","","","","","","","","feedback_test","","","","","","","","","","","",""
"537","","j","psychophysics","85","258240","0.0-7.0-1.0-1.0-0.0-0.38","4","4","4","4","4","4","4","4","4","4","5","5","5","5","5","5","5","5","5","5","1","1","1","1","1","1","1","1","1","1","0","1","1","0","0","1","0","0","1","1","0","1","0","1","5","1","1","2","1","","2","2","1","4","1","738059457485082626","付","523","","","","match","","","","","","","","","","","","","","key","j","16.667032967032775","768","428","j","true","match","img/hexagon.png","六边","六边","ALT1_2","prac_ALT1_2","","","","","","","","","","","",""
"null","<span style='color:GreenYellow; font-size: 70px;'>正确! </span>","null","html-keyboard-response","86","258742","0.0-7.0-1.0-1.0-0.0-1.38","4","4","4","4","4","4","4","4","4","4","5","5","5","5","5","5","5","5","5","5","1","1","1","1","1","1","1","1","1","1","0","1","1","0","0","1","0","0","1","1","0","1","0","1","5","1","1","2","1","","2","2","1","4","1","738059457485082626","付","523","","","","","","","","","","","","","","","","","","","","","","","","","","","","","","feedback_test","","","","","","","","","","","",""
"545","","f","psychophysics","87","260288","0.0-7.0-1.0-1.0-0.0-0.39","4","4","4","4","4","4","4","4","4","4","5","5","5","5","5","5","5","5","5","5","1","1","1","1","1","1","1","1","1","1","0","1","1","0","0","1","0","0","1","1","0","1","0","1","5","1","1","2","1","","2","2","1","4","1","738059457485082626","付","523","","","","nonmatch","","","","","","","","","","","","","","key","f","16.6637362637362","768","428","f","true","nonmatch","img/diamond.png","圆形","菱形","ALT1_2","prac_ALT1_2","","","","","","","","","","","",""
"null","<span style='color:GreenYellow; font-size: 70px;'>正确! </span>","null","html-keyboard-response","88","260789","0.0-7.0-1.0-1.0-0.0-1.39","4","4","4","4","4","4","4","4","4","4","5","5","5","5","5","5","5","5","5","5","1","1","1","1","1","1","1","1","1","1","0","1","1","0","0","1","0","0","1","1","0","1","0","1","5","1","1","2","1","","2","2","1","4","1","738059457485082626","付","523","","","","","","","","","","","","","","","","","","","","","","","","","","","","","","feedback_test","","","","","","","","","","","",""
"682","","j","psychophysics","89","262472","0.0-7.0-1.0-1.0-0.0-0.40","4","4","4","4","4","4","4","4","4","4","5","5","5","5","5","5","5","5","5","5","1","1","1","1","1","1","1","1","1","1","0","1","1","0","0","1","0","0","1","1","0","1","0","1","5","1","1","2","1","","2","2","1","4","1","738059457485082626","付","523","","","","match","","","","","","","","","","","","","","key","j","16.665","768","428","j","true","match","img/diamond.png","菱形","菱形","ALT1_2","prac_ALT1_2","","","","","","","","","","","",""
"null","<span style='color:GreenYellow; font-size: 70px;'>正确! </span>","null","html-keyboard-response","90","262973","0.0-7.0-1.0-1.0-0.0-1.40","4","4","4","4","4","4","4","4","4","4","5","5","5","5","5","5","5","5","5","5","1","1","1","1","1","1","1","1","1","1","0","1","1","0","0","1","0","0","1","1","0","1","0","1","5","1","1","2","1","","2","2","1","4","1","738059457485082626","付","523","","","","","","","","","","","","","","","","","","","","","","","","","","","","","","feedback_test","","","","","","","","","","","",""
"538","","f","psychophysics","91","264512","0.0-7.0-1.0-1.0-0.0-0.41","4","4","4","4","4","4","4","4","4","4","5","5","5","5","5","5","5","5","5","5","1","1","1","1","1","1","1","1","1","1","0","1","1","0","0","1","0","0","1","1","0","1","0","1","5","1","1","2","1","","2","2","1","4","1","738059457485082626","付","523","","","","nonmatch","","","","","","","","","","","","","","key","f","16.664130434782354","768","428","f","true","nonmatch","img/trapezoid.png","六边","梯形","ALT1_2","prac_ALT1_2","","","","","","","","","","","",""
"null","<span style='color:GreenYellow; font-size: 70px;'>正确! </span>","null","html-keyboard-response","92","265014","0.0-7.0-1.0-1.0-0.0-1.41","4","4","4","4","4","4","4","4","4","4","5","5","5","5","5","5","5","5","5","5","1","1","1","1","1","1","1","1","1","1","0","1","1","0","0","1","0","0","1","1","0","1","0","1","5","1","1","2","1","","2","2","1","4","1","738059457485082626","付","523","","","","","","","","","","","","","","","","","","","","","","","","","","","","","","feedback_test","","","","","","","","","","","",""
"794","","f","psychophysics","93","266809","0.0-7.0-1.0-1.0-0.0-0.42","4","4","4","4","4","4","4","4","4","4","5","5","5","5","5","5","5","5","5","5","1","1","1","1","1","1","1","1","1","1","0","1","1","0","0","1","0","0","1","1","0","1","0","1","5","1","1","2","1","","2","2","1","4","1","738059457485082626","付","523","","","","nonmatch","","","","","","","","","","","","","","key","f","16.665420560747773","768","428","j","false","match","img/diamond.png","菱形","菱形","ALT1_2","prac_ALT1_2","","","","","","","","","","","",""
"null","<span style='color:red; font-size: 70px;'>错误! </span>","null","html-keyboard-response","94","267311","0.0-7.0-1.0-1.0-0.0-1.42","4","4","4","4","4","4","4","4","4","4","5","5","5","5","5","5","5","5","5","5","1","1","1","1","1","1","1","1","1","1","0","1","1","0","0","1","0","0","1","1","0","1","0","1","5","1","1","2","1","","2","2","1","4","1","738059457485082626","付","523","","","","","","","","","","","","","","","","","","","","","","","","","","","","","","feedback_test","","","","","","","","","","","",""
"576","","f","psychophysics","95","268889","0.0-7.0-1.0-1.0-0.0-0.43","4","4","4","4","4","4","4","4","4","4","5","5","5","5","5","5","5","5","5","5","1","1","1","1","1","1","1","1","1","1","0","1","1","0","0","1","0","0","1","1","0","1","0","1","5","1","1","2","1","","2","2","1","4","1","738059457485082626","付","523","","","","nonmatch","","","","","","","","","","","","","","key","f","16.664516129032133","768","428","f","true","nonmatch","img/circle.png","梯形","圆形","ALT1_2","prac_ALT1_2","","","","","","","","","","","",""
"null","<span style='color:GreenYellow; font-size: 70px;'>正确! </span>","null","html-keyboard-response","96","269389","0.0-7.0-1.0-1.0-0.0-1.43","4","4","4","4","4","4","4","4","4","4","5","5","5","5","5","5","5","5","5","5","1","1","1","1","1","1","1","1","1","1","0","1","1","0","0","1","0","0","1","1","0","1","0","1","5","1","1","2","1","","2","2","1","4","1","738059457485082626","付","523","","","","","","","","","","","","","","","","","","","","","","","","","","","","","","feedback_test","","","","","","","","","","","",""
"538","","j","psychophysics","97","270929","0.0-7.0-1.0-1.0-0.0-0.44","4","4","4","4","4","4","4","4","4","4","5","5","5","5","5","5","5","5","5","5","1","1","1","1","1","1","1","1","1","1","0","1","1","0","0","1","0","0","1","1","0","1","0","1","5","1","1","2","1","","2","2","1","4","1","738059457485082626","付","523","","","","match","","","","","","","","","","","","","","key","j","16.66304347826087","768","428","j","true","match","img/circle.png","圆形","圆形","ALT1_2","prac_ALT1_2","","","","","","","","","","","",""
"null","<span style='color:GreenYellow; font-size: 70px;'>正确! </span>","null","html-keyboard-response","98","271429","0.0-7.0-1.0-1.0-0.0-1.44","4","4","4","4","4","4","4","4","4","4","5","5","5","5","5","5","5","5","5","5","1","1","1","1","1","1","1","1","1","1","0","1","1","0","0","1","0","0","1","1","0","1","0","1","5","1","1","2","1","","2","2","1","4","1","738059457485082626","付","523","","","","","","","","","","","","","","","","","","","","","","","","","","","","","","feedback_test","","","","","","","","","","","",""
"530","","f","psychophysics","99","272960","0.0-7.0-1.0-1.0-0.0-0.45","4","4","4","4","4","4","4","4","4","4","5","5","5","5","5","5","5","5","5","5","1","1","1","1","1","1","1","1","1","1","0","1","1","0","0","1","0","0","1","1","0","1","0","1","5","1","1","2","1","","2","2","1","4","1","738059457485082626","付","523","","","","nonmatch","","","","","","","","","","","","","","key","f","16.66593406593381","768","428","f","true","nonmatch","img/trapezoid.png","菱形","梯形","ALT1_2","prac_ALT1_2","","","","","","","","","","","",""
"null","<span style='color:GreenYellow; font-size: 70px;'>正确! </span>","null","html-keyboard-response","100","273462","0.0-7.0-1.0-1.0-0.0-1.45","4","4","4","4","4","4","4","4","4","4","5","5","5","5","5","5","5","5","5","5","1","1","1","1","1","1","1","1","1","1","0","1","1","0","0","1","0","0","1","1","0","1","0","1","5","1","1","2","1","","2","2","1","4","1","738059457485082626","付","523","","","","","","","","","","","","","","","","","","","","","","","","","","","","","","feedback_test","","","","","","","","","","","",""
"664","","j","psychophysics","101","275128","0.0-7.0-1.0-1.0-0.0-0.46","4","4","4","4","4","4","4","4","4","4","5","5","5","5","5","5","5","5","5","5","1","1","1","1","1","1","1","1","1","1","0","1","1","0","0","1","0","0","1","1","0","1","0","1","5","1","1","2","1","","2","2","1","4","1","738059457485082626","付","523","","","","match","","","","","","","","","","","","","","key","j","16.666666666666668","768","428","j","true","match","img/hexagon.png","六边","六边","ALT1_2","prac_ALT1_2","","","","","","","","","","","",""
"null","<span style='color:GreenYellow; font-size: 70px;'>正确! </span>","null","html-keyboard-response","102","275629","0.0-7.0-1.0-1.0-0.0-1.46","4","4","4","4","4","4","4","4","4","4","5","5","5","5","5","5","5","5","5","5","1","1","1","1","1","1","1","1","1","1","0","1","1","0","0","1","0","0","1","1","0","1","0","1","5","1","1","2","1","","2","2","1","4","1","738059457485082626","付","523","","","","","","","","","","","","","","","","","","","","","","","","","","","","","","feedback_test","","","","","","","","","","","",""
"568","","f","psychophysics","103","277200","0.0-7.0-1.0-1.0-0.0-0.47","4","4","4","4","4","4","4","4","4","4","5","5","5","5","5","5","5","5","5","5","1","1","1","1","1","1","1","1","1","1","0","1","1","0","0","1","0","0","1","1","0","1","0","1","5","1","1","2","1","","2","2","1","4","1","738059457485082626","付","523","","","","nonmatch","","","","","","","","","","","","","","key","f","16.664516129032133","768","428","f","true","nonmatch","img/diamond.png","六边","菱形","ALT1_2","prac_ALT1_2","","","","","","","","","","","",""
"null","<span style='color:GreenYellow; font-size: 70px;'>正确! </span>","null","html-keyboard-response","104","277702","0.0-7.0-1.0-1.0-0.0-1.47","4","4","4","4","4","4","4","4","4","4","5","5","5","5","5","5","5","5","5","5","1","1","1","1","1","1","1","1","1","1","0","1","1","0","0","1","0","0","1","1","0","1","0","1","5","1","1","2","1","","2","2","1","4","1","738059457485082626","付","523","","","","","","","","","","","","","","","","","","","","","","","","","","","","","","feedback_test","","","","","","","","","","","",""
"14792","<style>.context{color:white; font-size: 35px; line-height:40px}</style>                          <div><p class='context'>您正确回答了88% 的试次。</p><p class='context'>您的平均反应时为643毫秒。</p><p class='context'>恭喜您完成练习。按空格键进入正式实验。</p><p class='footer' style='font-size: 35px; line-height:40px;'>请在进入正式实验实验之前将您的<span style='color: lightgreen;'>食指</span>放在电脑键盘的相应键位上进行按键。</p>"," ","html-keyboard-response","105","292496","0.0-7.0-1.0-2.0","4","4","4","4","4","4","4","4","4","4","5","5","5","5","5","5","5","5","5","5","1","1","1","1","1","1","1","1","1","1","0","1","1","0","0","1","0","0","1","1","0","1","0","1","5","1","1","2","1","","2","2","1","4","1","738059457485082626","付","523","","","","","","","","","","","","","","","","","","","","","","","","","","","","","","","","","","","","","","","","","",""
"501","
  <p style='color: white; font-size: 22px'>请您将手指放在按键上，准备进入正式的匹配任务。</p>
  <p> <div style = ""color: green""><按空格键进入下一阶段的匹配任务></div></p>
  "," ","html-keyboard-response","106","293000","0.0-7.0-1.0-3.0","4","4","4","4","4","4","4","4","4","4","5","5","5","5","5","5","5","5","5","5","1","1","1","1","1","1","1","1","1","1","0","1","1","0","0","1","0","0","1","1","0","1","0","1","5","1","1","2","1","","2","2","1","4","1","738059457485082626","付","523","","","","","","","","","","","","","","","","","","","","","","","","","","","","","","","","","","","","","","","","","",""
"822","","j","psychophysics","107","294824","0.0-7.0-1.0-4.0-0.0-0.0","4","4","4","4","4","4","4","4","4","4","5","5","5","5","5","5","5","5","5","5","1","1","1","1","1","1","1","1","1","1","0","1","1","0","0","1","0","0","1","1","0","1","0","1","5","1","1","2","1","","2","2","1","4","1","738059457485082626","付","523","","","","match","","","","","","","","","","","","","","key","j","16.66605504587188","768","428","j","true","match","img/trapezoid.png","梯形","梯形","ALT1","formal_ALT1_2","","","","","","","","","","","",""
"null","<span style='color:GreenYellow; font-size: 70px;'>正确! </span>","null","html-keyboard-response","108","295325","0.0-7.0-1.0-4.0-0.0-1.0","4","4","4","4","4","4","4","4","4","4","5","5","5","5","5","5","5","5","5","5","1","1","1","1","1","1","1","1","1","1","0","1","1","0","0","1","0","0","1","1","0","1","0","1","5","1","1","2","1","","2","2","1","4","1","738059457485082626","付","523","","","","","","","","","","","","","","","","","","","","","","","","","","","","","","feedback_test","","","","","","","","","","","",""
"528","","j","psychophysics","109","296856","0.0-7.0-1.0-4.0-0.0-0.1","4","4","4","4","4","4","4","4","4","4","5","5","5","5","5","5","5","5","5","5","1","1","1","1","1","1","1","1","1","1","0","1","1","0","0","1","0","0","1","1","0","1","0","1","5","1","1","2","1","","2","2","1","4","1","738059457485082626","付","523","","","","match","","","","","","","","","","","","","","key","j","16.66593406593381","768","428","j","true","match","img/hexagon.png","六边","六边","ALT1","formal_ALT1_2","","","","","","","","","","","",""
"null","<span style='color:GreenYellow; font-size: 70px;'>正确! </span>","null","html-keyboard-response","110","297358","0.0-7.0-1.0-4.0-0.0-1.1","4","4","4","4","4","4","4","4","4","4","5","5","5","5","5","5","5","5","5","5","1","1","1","1","1","1","1","1","1","1","0","1","1","0","0","1","0","0","1","1","0","1","0","1","5","1","1","2","1","","2","2","1","4","1","738059457485082626","付","523","","","","","","","","","","","","","","","","","","","","","","","","","","","","","","feedback_test","","","","","","","","","","","",""
"547","","j","psychophysics","111","298906","0.0-7.0-1.0-4.0-0.0-0.2","4","4","4","4","4","4","4","4","4","4","5","5","5","5","5","5","5","5","5","5","1","1","1","1","1","1","1","1","1","1","0","1","1","0","0","1","0","0","1","1","0","1","0","1","5","1","1","2","1","","2","2","1","4","1","738059457485082626","付","523","","","","match","","","","","","","","","","","","","","key","j","16.66521739130384","768","428","j","true","match","img/circle.png","圆形","圆形","ALT1","formal_ALT1_2","","","","","","","","","","","",""
"null","<span style='color:GreenYellow; font-size: 70px;'>正确! </span>","null","html-keyboard-response","112","299406","0.0-7.0-1.0-4.0-0.0-1.2","4","4","4","4","4","4","4","4","4","4","5","5","5","5","5","5","5","5","5","5","1","1","1","1","1","1","1","1","1","1","0","1","1","0","0","1","0","0","1","1","0","1","0","1","5","1","1","2","1","","2","2","1","4","1","738059457485082626","付","523","","","","","","","","","","","","","","","","","","","","","","","","","","","","","","feedback_test","","","","","","","","","","","",""
"760","","f","psychophysics","113","301168","0.0-7.0-1.0-4.0-0.0-0.3","4","4","4","4","4","4","4","4","4","4","5","5","5","5","5","5","5","5","5","5","1","1","1","1","1","1","1","1","1","1","0","1","1","0","0","1","0","0","1","1","0","1","0","1","5","1","1","2","1","","2","2","1","4","1","738059457485082626","付","523","","","","nonmatch","","","","","","","","","","","","","","key","f","16.66442307692285","768","428","f","true","nonmatch","img/diamond.png","梯形","菱形","ALT1","formal_ALT1_2","","","","","","","","","","","",""
"null","<span style='color:GreenYellow; font-size: 70px;'>正确! </span>","null","html-keyboard-response","114","301670","0.0-7.0-1.0-4.0-0.0-1.3","4","4","4","4","4","4","4","4","4","4","5","5","5","5","5","5","5","5","5","5","1","1","1","1","1","1","1","1","1","1","0","1","1","0","0","1","0","0","1","1","0","1","0","1","5","1","1","2","1","","2","2","1","4","1","738059457485082626","付","523","","","","","","","","","","","","","","","","","","","","","","","","","","","","","","feedback_test","","","","","","","","","","","",""
"585","","f","psychophysics","115","303257","0.0-7.0-1.0-4.0-0.0-0.4","4","4","4","4","4","4","4","4","4","4","5","5","5","5","5","5","5","5","5","5","1","1","1","1","1","1","1","1","1","1","0","1","1","0","0","1","0","0","1","1","0","1","0","1","5","1","1","2","1","","2","2","1","4","1","738059457485082626","付","523","","","","nonmatch","","","","","","","","","","","","","","key","f","16.664893617021278","768","428","f","true","nonmatch","img/circle.png","菱形","圆形","ALT1","formal_ALT1_2","","","","","","","","","","","",""
"null","<span style='color:GreenYellow; font-size: 70px;'>正确! </span>","null","html-keyboard-response","116","303759","0.0-7.0-1.0-4.0-0.0-1.4","4","4","4","4","4","4","4","4","4","4","5","5","5","5","5","5","5","5","5","5","1","1","1","1","1","1","1","1","1","1","0","1","1","0","0","1","0","0","1","1","0","1","0","1","5","1","1","2","1","","2","2","1","4","1","738059457485082626","付","523","","","","","","","","","","","","","","","","","","","","","","","","","","","","","","feedback_test","","","","","","","","","","","",""
"584","","f","psychophysics","117","305344","0.0-7.0-1.0-4.0-0.0-0.5","4","4","4","4","4","4","4","4","4","4","5","5","5","5","5","5","5","5","5","5","1","1","1","1","1","1","1","1","1","1","0","1","1","0","0","1","0","0","1","1","0","1","0","1","5","1","1","2","1","","2","2","1","4","1","738059457485082626","付","523","","","","nonmatch","","","","","","","","","","","","","","key","f","16.665957446808882","768","428","f","true","nonmatch","img/trapezoid.png","六边","梯形","ALT1","formal_ALT1_2","","","","","","","","","","","",""
"null","<span style='color:GreenYellow; font-size: 70px;'>正确! </span>","null","html-keyboard-response","118","305846","0.0-7.0-1.0-4.0-0.0-1.5","4","4","4","4","4","4","4","4","4","4","5","5","5","5","5","5","5","5","5","5","1","1","1","1","1","1","1","1","1","1","0","1","1","0","0","1","0","0","1","1","0","1","0","1","5","1","1","2","1","","2","2","1","4","1","738059457485082626","付","523","","","","","","","","","","","","","","","","","","","","","","","","","","","","","","feedback_test","","","","","","","","","","","",""
"576","","j","psychophysics","119","307424","0.0-7.0-1.0-4.0-0.0-0.6","4","4","4","4","4","4","4","4","4","4","5","5","5","5","5","5","5","5","5","5","1","1","1","1","1","1","1","1","1","1","0","1","1","0","0","1","0","0","1","1","0","1","0","1","5","1","1","2","1","","2","2","1","4","1","738059457485082626","付","523","","","","match","","","","","","","","","","","","","","key","j","16.664893617021278","768","428","f","false","nonmatch","img/diamond.png","六边","菱形","ALT1","formal_ALT1_2","","","","","","","","","","","",""
"null","<span style='color:red; font-size: 70px;'>错误! </span>","null","html-keyboard-response","120","307925","0.0-7.0-1.0-4.0-0.0-1.6","4","4","4","4","4","4","4","4","4","4","5","5","5","5","5","5","5","5","5","5","1","1","1","1","1","1","1","1","1","1","0","1","1","0","0","1","0","0","1","1","0","1","0","1","5","1","1","2","1","","2","2","1","4","1","738059457485082626","付","523","","","","","","","","","","","","","","","","","","","","","","","","","","","","","","feedback_test","","","","","","","","","","","",""
"629","","j","psychophysics","121","309555","0.0-7.0-1.0-4.0-0.0-0.7","4","4","4","4","4","4","4","4","4","4","5","5","5","5","5","5","5","5","5","5","1","1","1","1","1","1","1","1","1","1","0","1","1","0","0","1","0","0","1","1","0","1","0","1","5","1","1","2","1","","2","2","1","4","1","738059457485082626","付","523","","","","match","","","","","","","","","","","","","","key","j","16.663917525772835","768","428","j","true","match","img/hexagon.png","六边","六边","ALT1","formal_ALT1_2","","","","","","","","","","","",""
"null","<span style='color:GreenYellow; font-size: 70px;'>正确! </span>","null","html-keyboard-response","122","310057","0.0-7.0-1.0-4.0-0.0-1.7","4","4","4","4","4","4","4","4","4","4","5","5","5","5","5","5","5","5","5","5","1","1","1","1","1","1","1","1","1","1","0","1","1","0","0","1","0","0","1","1","0","1","0","1","5","1","1","2","1","","2","2","1","4","1","738059457485082626","付","523","","","","","","","","","","","","","","","","","","","","","","","","","","","","","","feedback_test","","","","","","","","","","","",""
"677","","f","psychophysics","123","311736","0.0-7.0-1.0-4.0-0.0-0.8","4","4","4","4","4","4","4","4","4","4","5","5","5","5","5","5","5","5","5","5","1","1","1","1","1","1","1","1","1","1","0","1","1","0","0","1","0","0","1","1","0","1","0","1","5","1","1","2","1","","2","2","1","4","1","738059457485082626","付","523","","","","nonmatch","","","","","","","","","","","","","","key","f","16.664000000000232","768","428","f","true","nonmatch","img/trapezoid.png","菱形","梯形","ALT1","formal_ALT1_2","","","","","","","","","","","",""
"null","<span style='color:GreenYellow; font-size: 70px;'>正确! </span>","null","html-keyboard-response","124","312238","0.0-7.0-1.0-4.0-0.0-1.8","4","4","4","4","4","4","4","4","4","4","5","5","5","5","5","5","5","5","5","5","1","1","1","1","1","1","1","1","1","1","0","1","1","0","0","1","0","0","1","1","0","1","0","1","5","1","1","2","1","","2","2","1","4","1","738059457485082626","付","523","","","","","","","","","","","","","","","","","","","","","","","","","","","","","","feedback_test","","","","","","","","","","","",""
"601","","j","psychophysics","125","313840","0.0-7.0-1.0-4.0-0.0-0.9","4","4","4","4","4","4","4","4","4","4","5","5","5","5","5","5","5","5","5","5","1","1","1","1","1","1","1","1","1","1","0","1","1","0","0","1","0","0","1","1","0","1","0","1","5","1","1","2","1","","2","2","1","4","1","738059457485082626","付","523","","","","match","","","","","","","","","","","","","","key","j","16.664210526316158","768","428","j","true","match","img/diamond.png","菱形","菱形","ALT1","formal_ALT1_2","","","","","","","","","","","",""
"null","<span style='color:GreenYellow; font-size: 70px;'>正确! </span>","null","html-keyboard-response","126","314342","0.0-7.0-1.0-4.0-0.0-1.9","4","4","4","4","4","4","4","4","4","4","5","5","5","5","5","5","5","5","5","5","1","1","1","1","1","1","1","1","1","1","0","1","1","0","0","1","0","0","1","1","0","1","0","1","5","1","1","2","1","","2","2","1","4","1","738059457485082626","付","523","","","","","","","","","","","","","","","","","","","","","","","","","","","","","","feedback_test","","","","","","","","","","","",""
"608","","j","psychophysics","127","315952","0.0-7.0-1.0-4.0-0.0-0.10","4","4","4","4","4","4","4","4","4","4","5","5","5","5","5","5","5","5","5","5","1","1","1","1","1","1","1","1","1","1","0","1","1","0","0","1","0","0","1","1","0","1","0","1","5","1","1","2","1","","2","2","1","4","1","738059457485082626","付","523","","","","match","","","","","","","","","","","","","","key","j","16.666666666666668","768","428","j","true","match","img/trapezoid.png","梯形","梯形","ALT1","formal_ALT1_2","","","","","","","","","","","",""
"null","<span style='color:GreenYellow; font-size: 70px;'>正确! </span>","null","html-keyboard-response","128","316453","0.0-7.0-1.0-4.0-0.0-1.10","4","4","4","4","4","4","4","4","4","4","5","5","5","5","5","5","5","5","5","5","1","1","1","1","1","1","1","1","1","1","0","1","1","0","0","1","0","0","1","1","0","1","0","1","5","1","1","2","1","","2","2","1","4","1","738059457485082626","付","523","","","","","","","","","","","","","","","","","","","","","","","","","","","","","","feedback_test","","","","","","","","","","","",""
"562","","f","psychophysics","129","318016","0.0-7.0-1.0-4.0-0.0-0.11","4","4","4","4","4","4","4","4","4","4","5","5","5","5","5","5","5","5","5","5","1","1","1","1","1","1","1","1","1","1","0","1","1","0","0","1","0","0","1","1","0","1","0","1","5","1","1","2","1","","2","2","1","4","1","738059457485082626","付","523","","","","nonmatch","","","","","","","","","","","","","","key","f","16.665217391304473","768","428","f","true","nonmatch","img/circle.png","六边","圆形","ALT1","formal_ALT1_2","","","","","","","","","","","",""
"null","<span style='color:GreenYellow; font-size: 70px;'>正确! </span>","null","html-keyboard-response","130","318517","0.0-7.0-1.0-4.0-0.0-1.11","4","4","4","4","4","4","4","4","4","4","5","5","5","5","5","5","5","5","5","5","1","1","1","1","1","1","1","1","1","1","0","1","1","0","0","1","0","0","1","1","0","1","0","1","5","1","1","2","1","","2","2","1","4","1","738059457485082626","付","523","","","","","","","","","","","","","","","","","","","","","","","","","","","","","","feedback_test","","","","","","","","","","","",""
"769","","f","psychophysics","131","320288","0.0-7.0-1.0-4.0-0.0-0.12","4","4","4","4","4","4","4","4","4","4","5","5","5","5","5","5","5","5","5","5","1","1","1","1","1","1","1","1","1","1","0","1","1","0","0","1","0","0","1","1","0","1","0","1","5","1","1","2","1","","2","2","1","4","1","738059457485082626","付","523","","","","nonmatch","","","","","","","","","","","","","","key","f","16.65714285714286","768","428","f","true","nonmatch","img/hexagon.png","菱形","六边","ALT1","formal_ALT1_2","","","","","","","","","","","",""
"null","<span style='color:GreenYellow; font-size: 70px;'>正确! </span>","null","html-keyboard-response","132","320789","0.0-7.0-1.0-4.0-0.0-1.12","4","4","4","4","4","4","4","4","4","4","5","5","5","5","5","5","5","5","5","5","1","1","1","1","1","1","1","1","1","1","0","1","1","0","0","1","0","0","1","1","0","1","0","1","5","1","1","2","1","","2","2","1","4","1","738059457485082626","付","523","","","","","","","","","","","","","","","","","","","","","","","","","","","","","","feedback_test","","","","","","","","","","","",""
"805","","f","psychophysics","133","322595","0.0-7.0-1.0-4.0-0.0-0.13","4","4","4","4","4","4","4","4","4","4","5","5","5","5","5","5","5","5","5","5","1","1","1","1","1","1","1","1","1","1","0","1","1","0","0","1","0","0","1","1","0","1","0","1","5","1","1","2","1","","2","2","1","4","1","738059457485082626","付","523","","","","nonmatch","","","","","","","","","","","","","","key","f","16.666355140186806","768","428","j","false","match","img/trapezoid.png","梯形","梯形","ALT1","formal_ALT1_2","","","","","","","","","","","",""
"null","<span style='color:red; font-size: 70px;'>错误! </span>","null","html-keyboard-response","134","323096","0.0-7.0-1.0-4.0-0.0-1.13","4","4","4","4","4","4","4","4","4","4","5","5","5","5","5","5","5","5","5","5","1","1","1","1","1","1","1","1","1","1","0","1","1","0","0","1","0","0","1","1","0","1","0","1","5","1","1","2","1","","2","2","1","4","1","738059457485082626","付","523","","","","","","","","","","","","","","","","","","","","","","","","","","","","","","feedback_test","","","","","","","","","","","",""
"542","","j","psychophysics","135","324640","0.0-7.0-1.0-4.0-0.0-0.14","4","4","4","4","4","4","4","4","4","4","5","5","5","5","5","5","5","5","5","5","1","1","1","1","1","1","1","1","1","1","0","1","1","0","0","1","0","0","1","1","0","1","0","1","5","1","1","2","1","","2","2","1","4","1","738059457485082626","付","523","","","","match","","","","","","","","","","","","","","key","j","16.664130434782354","768","428","j","true","match","img/circle.png","圆形","圆形","ALT1","formal_ALT1_2","","","","","","","","","","","",""
"null","<span style='color:GreenYellow; font-size: 70px;'>正确! </span>","null","html-keyboard-response","136","325141","0.0-7.0-1.0-4.0-0.0-1.14","4","4","4","4","4","4","4","4","4","4","5","5","5","5","5","5","5","5","5","5","1","1","1","1","1","1","1","1","1","1","0","1","1","0","0","1","0","0","1","1","0","1","0","1","5","1","1","2","1","","2","2","1","4","1","738059457485082626","付","523","","","","","","","","","","","","","","","","","","","","","","","","","","","","","","feedback_test","","","","","","","","","","","",""
"609","","f","psychophysics","137","326752","0.0-7.0-1.0-4.0-0.0-0.15","4","4","4","4","4","4","4","4","4","4","5","5","5","5","5","5","5","5","5","5","1","1","1","1","1","1","1","1","1","1","0","1","1","0","0","1","0","0","1","1","0","1","0","1","5","1","1","2","1","","2","2","1","4","1","738059457485082626","付","523","","","","nonmatch","","","","","","","","","","","","","","key","f","16.665625000000244","768","428","f","true","nonmatch","img/circle.png","梯形","圆形","ALT1","formal_ALT1_2","","","","","","","","","","","",""
"null","<span style='color:GreenYellow; font-size: 70px;'>正确! </span>","null","html-keyboard-response","138","327254","0.0-7.0-1.0-4.0-0.0-1.15","4","4","4","4","4","4","4","4","4","4","5","5","5","5","5","5","5","5","5","5","1","1","1","1","1","1","1","1","1","1","0","1","1","0","0","1","0","0","1","1","0","1","0","1","5","1","1","2","1","","2","2","1","4","1","738059457485082626","付","523","","","","","","","","","","","","","","","","","","","","","","","","","","","","","","feedback_test","","","","","","","","","","","",""
"616","","j","psychophysics","139","328872","0.0-7.0-1.0-4.0-0.0-0.16","4","4","4","4","4","4","4","4","4","4","5","5","5","5","5","5","5","5","5","5","1","1","1","1","1","1","1","1","1","1","0","1","1","0","0","1","0","0","1","1","0","1","0","1","5","1","1","2","1","","2","2","1","4","1","738059457485082626","付","523","","","","match","","","","","","","","","","","","","","key","j","16.664583333333212","768","428","j","true","match","img/diamond.png","菱形","菱形","ALT1","formal_ALT1_2","","","","","","","","","","","",""
"null","<span style='color:GreenYellow; font-size: 70px;'>正确! </span>","null","html-keyboard-response","140","329374","0.0-7.0-1.0-4.0-0.0-1.16","4","4","4","4","4","4","4","4","4","4","5","5","5","5","5","5","5","5","5","5","1","1","1","1","1","1","1","1","1","1","0","1","1","0","0","1","0","0","1","1","0","1","0","1","5","1","1","2","1","","2","2","1","4","1","738059457485082626","付","523","","","","","","","","","","","","","","","","","","","","","","","","","","","","","","feedback_test","","","","","","","","","","","",""
"592","","f","psychophysics","141","330968","0.0-7.0-1.0-4.0-0.0-0.17","4","4","4","4","4","4","4","4","4","4","5","5","5","5","5","5","5","5","5","5","1","1","1","1","1","1","1","1","1","1","0","1","1","0","0","1","0","0","1","1","0","1","0","1","5","1","1","2","1","","2","2","1","4","1","738059457485082626","付","523","","","","nonmatch","","","","","","","","","","","","","","key","f","16.664210526315543","768","428","f","true","nonmatch","img/hexagon.png","圆形","六边","ALT1","formal_ALT1_2","","","","","","","","","","","",""
"null","<span style='color:GreenYellow; font-size: 70px;'>正确! </span>","null","html-keyboard-response","142","331469","0.0-7.0-1.0-4.0-0.0-1.17","4","4","4","4","4","4","4","4","4","4","5","5","5","5","5","5","5","5","5","5","1","1","1","1","1","1","1","1","1","1","0","1","1","0","0","1","0","0","1","1","0","1","0","1","5","1","1","2","1","","2","2","1","4","1","738059457485082626","付","523","","","","","","","","","","","","","","","","","","","","","","","","","","","","","","feedback_test","","","","","","","","","","","",""
"714","","j","psychophysics","143","333184","0.0-7.0-1.0-4.0-0.0-0.18","4","4","4","4","4","4","4","4","4","4","5","5","5","5","5","5","5","5","5","5","1","1","1","1","1","1","1","1","1","1","0","1","1","0","0","1","0","0","1","1","0","1","0","1","5","1","1","2","1","","2","2","1","4","1","738059457485082626","付","523","","","","match","","","","","","","","","","","","","","key","j","16.666666666666668","768","428","j","true","match","img/diamond.png","菱形","菱形","ALT1","formal_ALT1_2","","","","","","","","","","","",""
"null","<span style='color:GreenYellow; font-size: 70px;'>正确! </span>","null","html-keyboard-response","144","333686","0.0-7.0-1.0-4.0-0.0-1.18","4","4","4","4","4","4","4","4","4","4","5","5","5","5","5","5","5","5","5","5","1","1","1","1","1","1","1","1","1","1","0","1","1","0","0","1","0","0","1","1","0","1","0","1","5","1","1","2","1","","2","2","1","4","1","738059457485082626","付","523","","","","","","","","","","","","","","","","","","","","","","","","","","","","","","feedback_test","","","","","","","","","","","",""
"697","","f","psychophysics","145","335384","0.0-7.0-1.0-4.0-0.0-0.19","4","4","4","4","4","4","4","4","4","4","5","5","5","5","5","5","5","5","5","5","1","1","1","1","1","1","1","1","1","1","0","1","1","0","0","1","0","0","1","1","0","1","0","1","5","1","1","2","1","","2","2","1","4","1","738059457485082626","付","523","","","","nonmatch","","","","","","","","","","","","","","key","f","16.66435643564391","768","428","f","true","nonmatch","img/trapezoid.png","圆形","梯形","ALT1","formal_ALT1_2","","","","","","","","","","","",""
"null","<span style='color:GreenYellow; font-size: 70px;'>正确! </span>","null","html-keyboard-response","146","335886","0.0-7.0-1.0-4.0-0.0-1.19","4","4","4","4","4","4","4","4","4","4","5","5","5","5","5","5","5","5","5","5","1","1","1","1","1","1","1","1","1","1","0","1","1","0","0","1","0","0","1","1","0","1","0","1","5","1","1","2","1","","2","2","1","4","1","738059457485082626","付","523","","","","","","","","","","","","","","","","","","","","","","","","","","","","","","feedback_test","","","","","","","","","","","",""
"601","","j","psychophysics","147","337488","0.0-7.0-1.0-4.0-0.0-0.20","4","4","4","4","4","4","4","4","4","4","5","5","5","5","5","5","5","5","5","5","1","1","1","1","1","1","1","1","1","1","0","1","1","0","0","1","0","0","1","1","0","1","0","1","5","1","1","2","1","","2","2","1","4","1","738059457485082626","付","523","","","","match","","","","","","","","","","","","","","key","j","16.667368421052263","768","428","j","true","match","img/circle.png","圆形","圆形","ALT1","formal_ALT1_2","","","","","","","","","","","",""
"null","<span style='color:GreenYellow; font-size: 70px;'>正确! </span>","null","html-keyboard-response","148","337989","0.0-7.0-1.0-4.0-0.0-1.20","4","4","4","4","4","4","4","4","4","4","5","5","5","5","5","5","5","5","5","5","1","1","1","1","1","1","1","1","1","1","0","1","1","0","0","1","0","0","1","1","0","1","0","1","5","1","1","2","1","","2","2","1","4","1","738059457485082626","付","523","","","","","","","","","","","","","","","","","","","","","","","","","","","","","","feedback_test","","","","","","","","","","","",""
"537","","f","psychophysics","149","339528","0.0-7.0-1.0-4.0-0.0-0.21","4","4","4","4","4","4","4","4","4","4","5","5","5","5","5","5","5","5","5","5","1","1","1","1","1","1","1","1","1","1","0","1","1","0","0","1","0","0","1","1","0","1","0","1","5","1","1","2","1","","2","2","1","4","1","738059457485082626","付","523","","","","nonmatch","","","","","","","","","","","","","","key","f","16.667032967033094","768","428","f","true","nonmatch","img/diamond.png","圆形","菱形","ALT1","formal_ALT1_2","","","","","","","","","","","",""
"null","<span style='color:GreenYellow; font-size: 70px;'>正确! </span>","null","html-keyboard-response","150","340029","0.0-7.0-1.0-4.0-0.0-1.21","4","4","4","4","4","4","4","4","4","4","5","5","5","5","5","5","5","5","5","5","1","1","1","1","1","1","1","1","1","1","0","1","1","0","0","1","0","0","1","1","0","1","0","1","5","1","1","2","1","","2","2","1","4","1","738059457485082626","付","523","","","","","","","","","","","","","","","","","","","","","","","","","","","","","","feedback_test","","","","","","","","","","","",""
"921","","f","psychophysics","151","341953","0.0-7.0-1.0-4.0-0.0-0.22","4","4","4","4","4","4","4","4","4","4","5","5","5","5","5","5","5","5","5","5","1","1","1","1","1","1","1","1","1","1","0","1","1","0","0","1","0","0","1","1","0","1","0","1","5","1","1","2","1","","2","2","1","4","1","738059457485082626","付","523","","","","nonmatch","","","","","","","","","","","","","","key","f","16.661739130435087","768","428","f","true","nonmatch","img/hexagon.png","梯形","六边","ALT1","formal_ALT1_2","","","","","","","","","","","",""
"null","<span style='color:GreenYellow; font-size: 70px;'>正确! </span>","null","html-keyboard-response","152","342454","0.0-7.0-1.0-4.0-0.0-1.22","4","4","4","4","4","4","4","4","4","4","5","5","5","5","5","5","5","5","5","5","1","1","1","1","1","1","1","1","1","1","0","1","1","0","0","1","0","0","1","1","0","1","0","1","5","1","1","2","1","","2","2","1","4","1","738059457485082626","付","523","","","","","","","","","","","","","","","","","","","","","","","","","","","","","","feedback_test","","","","","","","","","","","",""
"407","","j","psychophysics","153","343864","0.0-7.0-1.0-4.0-0.0-0.23","4","4","4","4","4","4","4","4","4","4","5","5","5","5","5","5","5","5","5","5","1","1","1","1","1","1","1","1","1","1","0","1","1","0","0","1","0","0","1","1","0","1","0","1","5","1","1","2","1","","2","2","1","4","1","738059457485082626","付","523","","","","match","","","","","","","","","","","","","","key","j","16.666265060240825","768","428","j","true","match","img/hexagon.png","六边","六边","ALT1","formal_ALT1_2","","","","","","","","","","","",""
"null","<span style='color:GreenYellow; font-size: 70px;'>正确! </span>","null","html-keyboard-response","154","344364","0.0-7.0-1.0-4.0-0.0-1.23","4","4","4","4","4","4","4","4","4","4","5","5","5","5","5","5","5","5","5","5","1","1","1","1","1","1","1","1","1","1","0","1","1","0","0","1","0","0","1","1","0","1","0","1","5","1","1","2","1","","2","2","1","4","1","738059457485082626","付","523","","","","","","","","","","","","","","","","","","","","","","","","","","","","","","feedback_test","","","","","","","","","","","",""
"786","","f","psychophysics","155","346153","0.0-7.0-1.0-4.0-0.0-0.24","4","4","4","4","4","4","4","4","4","4","5","5","5","5","5","5","5","5","5","5","1","1","1","1","1","1","1","1","1","1","0","1","1","0","0","1","0","0","1","1","0","1","0","1","5","1","1","2","1","","2","2","1","4","1","738059457485082626","付","523","","","","nonmatch","","","","","","","","","","","","","","key","f","16.66509433962264","768","428","f","true","nonmatch","img/circle.png","菱形","圆形","ALT1","formal_ALT1_2","","","","","","","","","","","",""
"null","<span style='color:GreenYellow; font-size: 70px;'>正确! </span>","null","html-keyboard-response","156","346654","0.0-7.0-1.0-4.0-0.0-1.24","4","4","4","4","4","4","4","4","4","4","5","5","5","5","5","5","5","5","5","5","1","1","1","1","1","1","1","1","1","1","0","1","1","0","0","1","0","0","1","1","0","1","0","1","5","1","1","2","1","","2","2","1","4","1","738059457485082626","付","523","","","","","","","","","","","","","","","","","","","","","","","","","","","","","","feedback_test","","","","","","","","","","","",""
"384","","j","psychophysics","157","348041","0.0-7.0-1.0-4.0-0.0-0.25","4","4","4","4","4","4","4","4","4","4","5","5","5","5","5","5","5","5","5","5","1","1","1","1","1","1","1","1","1","1","0","1","1","0","0","1","0","0","1","1","0","1","0","1","5","1","1","2","1","","2","2","1","4","1","738059457485082626","付","523","","","","match","","","","","","","","","","","","","","key","j","16.665853658536303","768","428","f","false","nonmatch","img/circle.png","梯形","圆形","ALT1","formal_ALT1_2","","","","","","","","","","","",""
"null","<span style='color:red; font-size: 70px;'>错误! </span>","null","html-keyboard-response","158","348542","0.0-7.0-1.0-4.0-0.0-1.25","4","4","4","4","4","4","4","4","4","4","5","5","5","5","5","5","5","5","5","5","1","1","1","1","1","1","1","1","1","1","0","1","1","0","0","1","0","0","1","1","0","1","0","1","5","1","1","2","1","","2","2","1","4","1","738059457485082626","付","523","","","","","","","","","","","","","","","","","","","","","","","","","","","","","","feedback_test","","","","","","","","","","","",""
"872","","j","psychophysics","159","350416","0.0-7.0-1.0-4.0-0.0-0.26","4","4","4","4","4","4","4","4","4","4","5","5","5","5","5","5","5","5","5","5","1","1","1","1","1","1","1","1","1","1","0","1","1","0","0","1","0","0","1","1","0","1","0","1","5","1","1","2","1","","2","2","1","4","1","738059457485082626","付","523","","","","match","","","","","","","","","","","","","","key","j","16.66607142857174","768","428","j","true","match","img/diamond.png","菱形","菱形","ALT1","formal_ALT1_2","","","","","","","","","","","",""
"null","<span style='color:GreenYellow; font-size: 70px;'>正确! </span>","null","html-keyboard-response","160","350917","0.0-7.0-1.0-4.0-0.0-1.26","4","4","4","4","4","4","4","4","4","4","5","5","5","5","5","5","5","5","5","5","1","1","1","1","1","1","1","1","1","1","0","1","1","0","0","1","0","0","1","1","0","1","0","1","5","1","1","2","1","","2","2","1","4","1","738059457485082626","付","523","","","","","","","","","","","","","","","","","","","","","","","","","","","","","","feedback_test","","","","","","","","","","","",""
"402","","f","psychophysics","161","352320","0.0-7.0-1.0-4.0-0.0-0.27","4","4","4","4","4","4","4","4","4","4","5","5","5","5","5","5","5","5","5","5","1","1","1","1","1","1","1","1","1","1","0","1","1","0","0","1","0","0","1","1","0","1","0","1","5","1","1","2","1","","2","2","1","4","1","738059457485082626","付","523","","","","nonmatch","","","","","","","","","","","","","","key","f","16.665060240963996","768","428","f","true","nonmatch","img/trapezoid.png","圆形","梯形","ALT1","formal_ALT1_2","","","","","","","","","","","",""
"null","<span style='color:GreenYellow; font-size: 70px;'>正确! </span>","null","html-keyboard-response","162","352821","0.0-7.0-1.0-4.0-0.0-1.27","4","4","4","4","4","4","4","4","4","4","5","5","5","5","5","5","5","5","5","5","1","1","1","1","1","1","1","1","1","1","0","1","1","0","0","1","0","0","1","1","0","1","0","1","5","1","1","2","1","","2","2","1","4","1","738059457485082626","付","523","","","","","","","","","","","","","","","","","","","","","","","","","","","","","","feedback_test","","","","","","","","","","","",""
"697","","f","psychophysics","163","354520","0.0-7.0-1.0-4.0-0.0-0.28","4","4","4","4","4","4","4","4","4","4","5","5","5","5","5","5","5","5","5","5","1","1","1","1","1","1","1","1","1","1","0","1","1","0","0","1","0","0","1","1","0","1","0","1","5","1","1","2","1","","2","2","1","4","1","738059457485082626","付","523","","","","nonmatch","","","","","","","","","","","","","","key","f","16.66633663366383","768","428","f","true","nonmatch","img/trapezoid.png","菱形","梯形","ALT1","formal_ALT1_2","","","","","","","","","","","",""
"null","<span style='color:GreenYellow; font-size: 70px;'>正确! </span>","null","html-keyboard-response","164","355021","0.0-7.0-1.0-4.0-0.0-1.28","4","4","4","4","4","4","4","4","4","4","5","5","5","5","5","5","5","5","5","5","1","1","1","1","1","1","1","1","1","1","0","1","1","0","0","1","0","0","1","1","0","1","0","1","5","1","1","2","1","","2","2","1","4","1","738059457485082626","付","523","","","","","","","","","","","","","","","","","","","","","","","","","","","","","","feedback_test","","","","","","","","","","","",""
"625","","f","psychophysics","165","356648","0.0-7.0-1.0-4.0-0.0-0.29","4","4","4","4","4","4","4","4","4","4","5","5","5","5","5","5","5","5","5","5","1","1","1","1","1","1","1","1","1","1","0","1","1","0","0","1","0","0","1","1","0","1","0","1","5","1","1","2","1","","2","2","1","4","1","738059457485082626","付","523","","","","nonmatch","","","","","","","","","","","","","","key","f","16.66701030927847","768","428","f","true","nonmatch","img/hexagon.png","菱形","六边","ALT1","formal_ALT1_2","","","","","","","","","","","",""
"null","<span style='color:GreenYellow; font-size: 70px;'>正确! </span>","null","html-keyboard-response","166","357149","0.0-7.0-1.0-4.0-0.0-1.29","4","4","4","4","4","4","4","4","4","4","5","5","5","5","5","5","5","5","5","5","1","1","1","1","1","1","1","1","1","1","0","1","1","0","0","1","0","0","1","1","0","1","0","1","5","1","1","2","1","","2","2","1","4","1","738059457485082626","付","523","","","","","","","","","","","","","","","","","","","","","","","","","","","","","","feedback_test","","","","","","","","","","","",""
"665","","f","psychophysics","167","358816","0.0-7.0-1.0-4.0-0.0-0.30","4","4","4","4","4","4","4","4","4","4","5","5","5","5","5","5","5","5","5","5","1","1","1","1","1","1","1","1","1","1","0","1","1","0","0","1","0","0","1","1","0","1","0","1","5","1","1","2","1","","2","2","1","4","1","738059457485082626","付","523","","","","nonmatch","","","","","","","","","","","","","","key","f","16.664646464646346","768","428","f","true","nonmatch","img/diamond.png","梯形","菱形","ALT1","formal_ALT1_2","","","","","","","","","","","",""
"null","<span style='color:GreenYellow; font-size: 70px;'>正确! </span>","null","html-keyboard-response","168","359318","0.0-7.0-1.0-4.0-0.0-1.30","4","4","4","4","4","4","4","4","4","4","5","5","5","5","5","5","5","5","5","5","1","1","1","1","1","1","1","1","1","1","0","1","1","0","0","1","0","0","1","1","0","1","0","1","5","1","1","2","1","","2","2","1","4","1","738059457485082626","付","523","","","","","","","","","","","","","","","","","","","","","","","","","","","","","","feedback_test","","","","","","","","","","","",""
"657","","j","psychophysics","169","360976","0.0-7.0-1.0-4.0-0.0-0.31","4","4","4","4","4","4","4","4","4","4","5","5","5","5","5","5","5","5","5","5","1","1","1","1","1","1","1","1","1","1","0","1","1","0","0","1","0","0","1","1","0","1","0","1","5","1","1","2","1","","2","2","1","4","1","738059457485082626","付","523","","","","match","","","","","","","","","","","","","","key","j","16.667346938775154","768","428","j","true","match","img/hexagon.png","六边","六边","ALT1","formal_ALT1_2","","","","","","","","","","","",""
"null","<span style='color:GreenYellow; font-size: 70px;'>正确! </span>","null","html-keyboard-response","170","361478","0.0-7.0-1.0-4.0-0.0-1.31","4","4","4","4","4","4","4","4","4","4","5","5","5","5","5","5","5","5","5","5","1","1","1","1","1","1","1","1","1","1","0","1","1","0","0","1","0","0","1","1","0","1","0","1","5","1","1","2","1","","2","2","1","4","1","738059457485082626","付","523","","","","","","","","","","","","","","","","","","","","","","","","","","","","","","feedback_test","","","","","","","","","","","",""
"569","","j","psychophysics","171","363048","0.0-7.0-1.0-4.0-0.0-0.32","4","4","4","4","4","4","4","4","4","4","5","5","5","5","5","5","5","5","5","5","1","1","1","1","1","1","1","1","1","1","0","1","1","0","0","1","0","0","1","1","0","1","0","1","5","1","1","2","1","","2","2","1","4","1","738059457485082626","付","523","","","","match","","","","","","","","","","","","","","key","j","16.664893617021278","768","428","j","true","match","img/diamond.png","菱形","菱形","ALT1","formal_ALT1_2","","","","","","","","","","","",""
"null","<span style='color:GreenYellow; font-size: 70px;'>正确! </span>","null","html-keyboard-response","172","363550","0.0-7.0-1.0-4.0-0.0-1.32","4","4","4","4","4","4","4","4","4","4","5","5","5","5","5","5","5","5","5","5","1","1","1","1","1","1","1","1","1","1","0","1","1","0","0","1","0","0","1","1","0","1","0","1","5","1","1","2","1","","2","2","1","4","1","738059457485082626","付","523","","","","","","","","","","","","","","","","","","","","","","","","","","","","","","feedback_test","","","","","","","","","","","",""
"529","","j","psychophysics","173","365080","0.0-7.0-1.0-4.0-0.0-0.33","4","4","4","4","4","4","4","4","4","4","5","5","5","5","5","5","5","5","5","5","1","1","1","1","1","1","1","1","1","1","0","1","1","0","0","1","0","0","1","1","0","1","0","1","5","1","1","2","1","","2","2","1","4","1","738059457485082626","付","523","","","","match","","","","","","","","","","","","","","key","j","16.66593406593381","768","428","j","true","match","img/hexagon.png","六边","六边","ALT1","formal_ALT1_2","","","","","","","","","","","",""
"null","<span style='color:GreenYellow; font-size: 70px;'>正确! </span>","null","html-keyboard-response","174","365582","0.0-7.0-1.0-4.0-0.0-1.33","4","4","4","4","4","4","4","4","4","4","5","5","5","5","5","5","5","5","5","5","1","1","1","1","1","1","1","1","1","1","0","1","1","0","0","1","0","0","1","1","0","1","0","1","5","1","1","2","1","","2","2","1","4","1","738059457485082626","付","523","","","","","","","","","","","","","","","","","","","","","","","","","","","","","","feedback_test","","","","","","","","","","","",""
"569","","j","psychophysics","175","367152","0.0-7.0-1.0-4.0-0.0-0.34","4","4","4","4","4","4","4","4","4","4","5","5","5","5","5","5","5","5","5","5","1","1","1","1","1","1","1","1","1","1","0","1","1","0","0","1","0","0","1","1","0","1","0","1","5","1","1","2","1","","2","2","1","4","1","738059457485082626","付","523","","","","match","","","","","","","","","","","","","","key","j","16.664516129032133","768","428","j","true","match","img/circle.png","圆形","圆形","ALT1","formal_ALT1_2","","","","","","","","","","","",""
"null","<span style='color:GreenYellow; font-size: 70px;'>正确! </span>","null","html-keyboard-response","176","367654","0.0-7.0-1.0-4.0-0.0-1.34","4","4","4","4","4","4","4","4","4","4","5","5","5","5","5","5","5","5","5","5","1","1","1","1","1","1","1","1","1","1","0","1","1","0","0","1","0","0","1","1","0","1","0","1","5","1","1","2","1","","2","2","1","4","1","738059457485082626","付","523","","","","","","","","","","","","","","","","","","","","","","","","","","","","","","feedback_test","","","","","","","","","","","",""
"584","","j","psychophysics","177","369241","0.0-7.0-1.0-4.0-0.0-0.35","4","4","4","4","4","4","4","4","4","4","5","5","5","5","5","5","5","5","5","5","1","1","1","1","1","1","1","1","1","1","0","1","1","0","0","1","0","0","1","1","0","1","0","1","5","1","1","2","1","","2","2","1","4","1","738059457485082626","付","523","","","","match","","","","","","","","","","","","","","key","j","16.665957446808882","768","428","j","true","match","img/trapezoid.png","梯形","梯形","ALT1","formal_ALT1_2","","","","","","","","","","","",""
"null","<span style='color:GreenYellow; font-size: 70px;'>正确! </span>","null","html-keyboard-response","178","369741","0.0-7.0-1.0-4.0-0.0-1.35","4","4","4","4","4","4","4","4","4","4","5","5","5","5","5","5","5","5","5","5","1","1","1","1","1","1","1","1","1","1","0","1","1","0","0","1","0","0","1","1","0","1","0","1","5","1","1","2","1","","2","2","1","4","1","738059457485082626","付","523","","","","","","","","","","","","","","","","","","","","","","","","","","","","","","feedback_test","","","","","","","","","","","",""
"881","","j","psychophysics","179","371625","0.0-7.0-1.0-4.0-0.0-0.36","4","4","4","4","4","4","4","4","4","4","5","5","5","5","5","5","5","5","5","5","1","1","1","1","1","1","1","1","1","1","0","1","1","0","0","1","0","0","1","1","0","1","0","1","5","1","1","2","1","","2","2","1","4","1","738059457485082626","付","523","","","","match","","","","","","","","","","","","","","key","j","16.665178571428573","768","428","j","true","match","img/hexagon.png","六边","六边","ALT1","formal_ALT1_2","","","","","","","","","","","",""
"null","<span style='color:GreenYellow; font-size: 70px;'>正确! </span>","null","html-keyboard-response","180","372126","0.0-7.0-1.0-4.0-0.0-1.36","4","4","4","4","4","4","4","4","4","4","5","5","5","5","5","5","5","5","5","5","1","1","1","1","1","1","1","1","1","1","0","1","1","0","0","1","0","0","1","1","0","1","0","1","5","1","1","2","1","","2","2","1","4","1","738059457485082626","付","523","","","","","","","","","","","","","","","","","","","","","","","","","","","","","","feedback_test","","","","","","","","","","","",""
"1153","","f","psychophysics","181","374280","0.0-7.0-1.0-4.0-0.0-0.37","4","4","4","4","4","4","4","4","4","4","5","5","5","5","5","5","5","5","5","5","1","1","1","1","1","1","1","1","1","1","0","1","1","0","0","1","0","0","1","1","0","1","0","1","5","1","1","2","1","","2","2","1","4","1","738059457485082626","付","523","","","","nonmatch","","","","","","","","","","","","","","key","f","16.66511627907013","768","428","f","true","nonmatch","img/hexagon.png","圆形","六边","ALT1","formal_ALT1_2","","","","","","","","","","","",""
